trialIndex	left_option	right_option	response	response_time	xTrajectory	yTrajectory	tTrajectory
0	images/0051.jpg	images/0279.jpg	right	1.628	[0.0, 0.0, 0.0, 0.0, 0.0, 0.0, 0.0, 0.0, 0.0, 0.0, 0.0, 0.0, 0.0, 0.0, 0.0, 0.0, 0.0, 0.0, 0.0, 0.0, 0.0, 0.0, 0.0, 0.0, 0.0, 0.0, 0.0, 0.0, 0.0, 0.0, -3.0, -10.0, -20.0, -45.0, -72.0, -103.0, -144.0, -216.0, -258.0, -293.0, -324.0, -354.0, -376.0, -387.0, -390.0, -390.0, -390.0, -390.0, -390.0, -390.0, -390.0, -390.0, -390.0, -390.0, -390.0, -390.0, -390.0, -390.0, -390.0, -390.0, -390.0, -373.0, -327.0, -235.0, -124.0, -8.0, 108.0, 219.0, 338.0, 459.0, 575.0, 681.0, 822.0, 903.0, 959.0, 959.0, 959.0, 959.0, 959.0, 959.0, 959.0, 959.0, 959.0, 959.0, 959.0, 954.0, 947.0, 940.0, 931.0, 923.0, 922.0, 920.0, 920.0, 920.0, 920.0, 920.0, 920.0]	[-490.0, -490.0, -490.0, -490.0, -490.0, -490.0, -490.0, -490.0, -490.0, -490.0, -490.0, -490.0, -490.0, -490.0, -490.0, -490.0, -490.0, -490.0, -490.0, -490.0, -490.0, -490.0, -490.0, -490.0, -490.0, -490.0, -472.0, -455.0, -429.0, -397.0, -354.0, -310.0, -265.0, -204.0, -144.0, -93.0, -47.0, 7.0, 36.0, 59.0, 76.0, 88.0, 98.0, 103.0, 104.0, 104.0, 104.0, 104.0, 104.0, 104.0, 104.0, 104.0, 104.0, 104.0, 104.0, 104.0, 104.0, 104.0, 104.0, 104.0, 104.0, 104.0, 104.0, 104.0, 104.0, 104.0, 104.0, 104.0, 121.0, 147.0, 184.0, 214.0, 254.0, 278.0, 299.0, 321.0, 332.0, 343.0, 354.0, 358.0, 362.0, 365.0, 369.0, 370.0, 375.0, 381.0, 384.0, 387.0, 390.0, 393.0, 393.0, 394.0, 394.0, 394.0, 394.0, 394.0, 394.0]	[0.007205540430732071, 0.010564598895143718, 0.014873245905619115, 0.031105338712222874, 0.047546668676659465, 0.06449317157967016, 0.08095668815076351, 0.09781068976735696, 0.11419092112919316, 0.13113708270248026, 0.14745826344005764, 0.1644556249375455, 0.18090036819921806, 0.19780010846443474, 0.2139724679873325, 0.23112854937789962, 0.247608108620625, 0.26446688891155645, 0.28087067225715145, 0.29821824142709374, 0.3142581637366675, 0.33113571733701974, 0.34744017280172557, 0.3643965743249282, 0.3806924964301288, 0.39774310583015904, 0.41420491581084207, 0.4310793973854743, 0.4475722686620429, 0.4644423129502684, 0.480883642914705, 0.49771818856243044, 0.514235635753721, 0.5310619894298725, 0.5475429140496999, 0.5643815556541085, 0.5807914829929359, 0.5977243325323798, 0.61424007313326, 0.6310599414282478, 0.6475070740561932, 0.6644436782808043, 0.6808781815925613, 0.6977256978861988, 0.7139769053319469, 0.7310503841144964, 0.7475439380505122, 0.764438216923736, 0.7807505230302922, 0.7977301352075301, 0.8139973853249103, 0.8309974774601869, 0.8476971965865232, 0.8644255876424722, 0.880882277560886, 0.8977144339005463, 0.9142393904621713, 0.9310551627422683, 0.9475367700215429, 0.9644037422840483, 0.9808795468998142, 0.9977021458907984, 1.0142738650902174, 1.0311292320257053, 1.0473292395472527, 1.0644334382959642, 1.0809082188643515, 1.0977495911647566, 1.114238707756158, 1.131042874767445, 1.14751458336832, 1.1643515183241107, 1.1808880802127533, 1.1976915645645931, 1.2142216411302797, 1.2310537974117324, 1.247524140693713, 1.2644993155263364, 1.2810201761312783, 1.2977045352454297, 1.3141871665138751, 1.3310340000898577, 1.3475381353637204, 1.3644013529410586, 1.380859749566298, 1.3976888338802382, 1.4139615453314036, 1.4309855308383703, 1.447546327370219, 1.4644310489529744, 1.4808133282931522, 1.4977157991961576, 1.514217886433471, 1.5311063627013937, 1.5474681620835327, 1.5644825902418233, 1.580945082823746]
1	images/0502.jpg	images/0439.jpg	right	1.858	[0.0, 0.0, 0.0, 0.0, 0.0, 0.0, 0.0, 0.0, 0.0, 0.0, 0.0, 0.0, 0.0, 0.0, 0.0, 0.0, 0.0, 0.0, 0.0, 0.0, 0.0, 0.0, 0.0, 6.0, 25.0, 64.0, 117.0, 197.0, 255.0, 318.0, 395.0, 487.0, 580.0, 653.0, 695.0, 724.0, 746.0, 761.0, 768.0, 768.0, 761.0, 744.0, 699.0, 624.0, 516.0, 394.0, 275.0, 153.0, 37.0, -81.0, -211.0, -390.0, -493.0, -576.0, -637.0, -686.0, -719.0, -742.0, -757.0, -767.0, -770.0, -771.0, -775.0, -783.0, -787.0, -788.0, -789.0, -791.0, -791.0, -791.0, -791.0, -789.0, -784.0, -780.0, -773.0, -732.0, -645.0, -523.0, -363.0, -174.0, 42.0, 263.0, 443.0, 599.0, 724.0, 827.0, 881.0, 912.0, 916.0, 916.0, 916.0, 916.0, 916.0, 916.0, 916.0, 916.0, 916.0, 916.0, 916.0, 916.0, 916.0, 916.0, 916.0, 916.0, 916.0, 916.0, 916.0, 916.0, 916.0, 916.0, 916.0, 916.0]	[-490.0, -490.0, -490.0, -490.0, -490.0, -490.0, -490.0, -490.0, -490.0, -490.0, -490.0, -490.0, -490.0, -490.0, -490.0, -490.0, -490.0, -490.0, -490.0, -490.0, -490.0, -490.0, -490.0, -486.0, -459.0, -413.0, -356.0, -266.0, -196.0, -126.0, -49.0, 39.0, 132.0, 210.0, 261.0, 292.0, 319.0, 339.0, 355.0, 370.0, 380.0, 391.0, 407.0, 429.0, 459.0, 492.0, 512.0, 530.0, 540.0, 540.0, 540.0, 540.0, 540.0, 532.0, 523.0, 509.0, 499.0, 492.0, 486.0, 481.0, 479.0, 477.0, 470.0, 452.0, 439.0, 432.0, 427.0, 425.0, 422.0, 418.0, 405.0, 389.0, 374.0, 368.0, 362.0, 351.0, 340.0, 322.0, 309.0, 309.0, 309.0, 309.0, 323.0, 345.0, 363.0, 376.0, 385.0, 390.0, 392.0, 392.0, 392.0, 392.0, 392.0, 392.0, 392.0, 392.0, 392.0, 392.0, 392.0, 392.0, 392.0, 392.0, 392.0, 392.0, 392.0, 392.0, 392.0, 392.0, 392.0, 392.0, 392.0, 392.0]	[0.006704292958602309, 0.011376801005098969, 0.015658141346648335, 0.029754513292573392, 0.046719448175281286, 0.06303789821686223, 0.07991545181721449, 0.09638204041402787, 0.11321897542802617, 0.12967088673030958, 0.14657233358593658, 0.1630041062599048, 0.17986049718456343, 0.19632264849497005, 0.2132387727033347, 0.2296411907300353, 0.24657130963169038, 0.2629689489258453, 0.2798918998450972, 0.29631206719204783, 0.31321249005850405, 0.3294544815435074, 0.3464917790261097, 0.3629928422742523, 0.379832849255763, 0.3963451765011996, 0.41317016480024904, 0.42967020405922085, 0.44657028559595346, 0.46304199419682845, 0.4798953131539747, 0.49647317634662613, 0.5133647246402688, 0.529801617260091, 0.5464835870079696, 0.5630143462331034, 0.5798284119227901, 0.5963369844830595, 0.6131568527780473, 0.6297661185963079, 0.6465224989806302, 0.6629689489491284, 0.6798191958805546, 0.6964038857840933, 0.7132623246870935, 0.7295773614314385, 0.7465327389654703, 0.7629928422393277, 0.7798335318802856, 0.7963506378000602, 0.8132002020720392, 0.8296435800730251, 0.846886360028293, 0.8630372155457735, 0.8798526465543546, 0.896094638039358, 0.9132787087000906, 0.929712870682124, 0.9465115763014182, 0.9628522130660713, 0.9798294358770363, 0.9963212831644341, 1.0131544634350576, 1.029657916049473, 1.0465156723512337, 1.0630754448357038, 1.0798707372159697, 1.0963472244911827, 1.1132735887076706, 1.1294476548791863, 1.1464835870428942, 1.16297406895319, 1.179788134584669, 1.1963465418084525, 1.213172212766949, 1.2294776922208257, 1.2466375282383524, 1.2630027409177274, 1.2841104349354282, 1.2964639603742398, 1.3133186446502805, 1.3297558785998262, 1.3465143070206977, 1.3630064955796115, 1.379873467842117, 1.3962670111795887, 1.4131578768137842, 1.429449702904094, 1.4465238643460907, 1.4628245650674216, 1.4799413931323215, 1.4964011550764553, 1.5132824633619748, 1.5296872706967406, 1.5467013575253077, 1.562765855807811, 1.5798553772037849, 1.5964414323680103, 1.6132496953941882, 1.6295944281155244, 1.6465999815845862, 1.6630027409410104, 1.6799287638277747, 1.6963434697827324, 1.7132025914033875, 1.7295770201017149, 1.7466197789181024, 1.7629774822853506, 1.7799178411369212, 1.7960567500558682, 1.81323979672743, 1.8296879533445463]
2	images/0243.jpg	images/0211.jpg	right	1.894	[0.0, 0.0, 0.0, 0.0, 0.0, 0.0, 0.0, 0.0, 0.0, 0.0, 0.0, 0.0, 0.0, 0.0, 0.0, 0.0, 0.0, 0.0, 0.0, 0.0, 1.0, 1.0, 1.0, 1.0, 1.0, 1.0, 1.0, 1.0, 1.0, 1.0, 1.0, 1.0, 1.0, 1.0, 2.0, 5.0, 7.0, 9.0, 11.0, 13.0, 18.0, 20.0, 22.0, 22.0, 22.0, 21.0, 20.0, 20.0, 20.0, 20.0, 20.0, 20.0, 20.0, 20.0, 20.0, 20.0, 24.0, 27.0, 43.0, 69.0, 108.0, 147.0, 184.0, 214.0, 237.0, 260.0, 281.0, 295.0, 303.0, 308.0, 312.0, 319.0, 326.0, 337.0, 355.0, 379.0, 411.0, 451.0, 497.0, 549.0, 604.0, 647.0, 671.0, 688.0, 691.0, 691.0, 691.0, 691.0, 691.0, 695.0, 698.0, 707.0, 721.0, 738.0, 754.0, 771.0, 778.0, 780.0, 780.0, 780.0, 780.0, 780.0, 780.0, 780.0, 780.0, 780.0, 780.0, 780.0, 780.0, 780.0, 780.0, 780.0, 780.0, 780.0]	[-490.0, -490.0, -490.0, -490.0, -490.0, -490.0, -490.0, -490.0, -490.0, -490.0, -490.0, -490.0, -490.0, -490.0, -487.0, -487.0, -486.0, -484.0, -484.0, -483.0, -482.0, -481.0, -481.0, -481.0, -480.0, -480.0, -480.0, -480.0, -479.0, -478.0, -478.0, -478.0, -478.0, -478.0, -475.0, -467.0, -462.0, -455.0, -447.0, -437.0, -423.0, -408.0, -397.0, -378.0, -358.0, -335.0, -310.0, -304.0, -299.0, -298.0, -296.0, -292.0, -285.0, -276.0, -266.0, -256.0, -246.0, -233.0, -199.0, -158.0, -106.0, -54.0, -8.0, 29.0, 62.0, 89.0, 115.0, 134.0, 146.0, 152.0, 157.0, 167.0, 174.0, 181.0, 190.0, 200.0, 214.0, 224.0, 238.0, 253.0, 268.0, 273.0, 276.0, 279.0, 279.0, 279.0, 279.0, 279.0, 279.0, 280.0, 283.0, 288.0, 296.0, 305.0, 314.0, 324.0, 329.0, 329.0, 329.0, 329.0, 329.0, 329.0, 329.0, 329.0, 329.0, 329.0, 329.0, 329.0, 329.0, 329.0, 329.0, 329.0, 329.0, 329.0]	[0.010536780348047614, 0.014983325847424567, 0.020921838120557368, 0.037467957357876, 0.05433834297582507, 0.07079571555368602, 0.0878715836443007, 0.10416545777115971, 0.12112117663491517, 0.13748468266567215, 0.154448252171278, 0.17084281955612823, 0.18773914646590129, 0.20416272711008787, 0.22108738467795774, 0.2374662506626919, 0.2543168389820494, 0.27063051040749997, 0.287830623681657, 0.3041333724395372, 0.32098703272640705, 0.3375505599542521, 0.35428407101426274, 0.3708069795393385, 0.38773197843693197, 0.4041651164297946, 0.42103481938829646, 0.43753485864726827, 0.4543909082422033, 0.4708179022418335, 0.48771115712588653, 0.5041449777781963, 0.5210843126405962, 0.5373327894485556, 0.5603645778028294, 0.5707970809307881, 0.5877937597106211, 0.6041330311563797, 0.6209781580837443, 0.6376266772276722, 0.6542775856796652, 0.6708581795101054, 0.6876217278768308, 0.7039807965629734, 0.7210273100645281, 0.7374853653600439, 0.7542963589658029, 0.7707131129573099, 0.7877347090980038, 0.8041524871368892, 0.8209996620425954, 0.8374857066664845, 0.8544970627990551, 0.8707800142583437, 0.8876719038235024, 0.9039470046409406, 0.9210344780585729, 0.9375351999769919, 0.9542830470018089, 0.9706629370339215, 0.9876934078056365, 1.0041282524471171, 1.0210017100907862, 1.0375669439090416, 1.0544363055378199, 1.0708237048820592, 1.087700917152688, 1.104175697779283, 1.120981571439188, 1.1375089173088782, 1.1542666630120948, 1.1709414647775702, 1.187696479842998, 1.2041883270721883, 1.2210071713780053, 1.2375778665882535, 1.2544182148994878, 1.27078718226403, 1.287749727780465, 1.3041429297882132, 1.320899651502259, 1.3374870719853789, 1.3543233242817223, 1.3705721424194053, 1.3876418665167876, 1.4042869723052718, 1.4209764514234848, 1.4374928746838123, 1.4544434735435061, 1.4705431291367859, 1.4875596052734181, 1.5041477084741928, 1.520913987478707, 1.5372464322135784, 1.5543376602581702, 1.5708008355577476, 1.5878244797349907, 1.6041552177630365, 1.6211177632794715, 1.637530762644019, 1.654404561559204, 1.6705830650753342, 1.6875729172606952, 1.7038999006617814, 1.7209423180902377, 1.7375150613370351, 1.7543270789901726, 1.7707929849275388, 1.7876934078522027, 1.8039859166019596, 1.8210075127426535, 1.8373041175073013, 1.8542792923399247, 1.8707909369259141]
3	images/0192.jpg	images/0458.jpg	right	1.201	[0.0, 0.0, 0.0, 0.0, 0.0, 0.0, 0.0, 0.0, 0.0, 0.0, 0.0, 0.0, 0.0, 0.0, 0.0, 0.0, 0.0, 0.0, 0.0, 0.0, 0.0, 0.0, 0.0, 0.0, 0.0, 0.0, 0.0, 0.0, 0.0, 0.0, 0.0, 0.0, 0.0, 0.0, 0.0, 0.0, 0.0, 0.0, 0.0, 0.0, 0.0, 0.0, 0.0, 0.0, 0.0, 0.0, 0.0, 0.0, 3.0, 17.0, 58.0, 136.0, 227.0, 316.0, 411.0, 498.0, 564.0, 619.0, 633.0, 638.0, 638.0, 638.0, 639.0, 644.0, 650.0, 654.0, 657.0, 658.0, 658.0, 658.0, 658.0, 658.0]	[-490.0, -490.0, -490.0, -490.0, -490.0, -490.0, -490.0, -490.0, -490.0, -490.0, -490.0, -490.0, -490.0, -490.0, -490.0, -490.0, -490.0, -490.0, -490.0, -490.0, -490.0, -490.0, -490.0, -490.0, -490.0, -490.0, -490.0, -490.0, -490.0, -490.0, -490.0, -490.0, -490.0, -490.0, -490.0, -490.0, -490.0, -490.0, -490.0, -490.0, -490.0, -490.0, -490.0, -490.0, -490.0, -490.0, -490.0, -490.0, -482.0, -458.0, -406.0, -302.0, -172.0, -47.0, 86.0, 200.0, 275.0, 323.0, 335.0, 341.0, 341.0, 341.0, 343.0, 351.0, 359.0, 366.0, 370.0, 370.0, 370.0, 370.0, 370.0, 370.0]	[0.005205670255236328, 0.009779874351806939, 0.02694005169905722, 0.04382374929264188, 0.06027839123271406, 0.07721158216008916, 0.0935549495043233, 0.11067894560983405, 0.12700046767713502, 0.14385515195317566, 0.16039376182015985, 0.1773204673663713, 0.19351501355413347, 0.21072741487296298, 0.22696872369851917, 0.24396608519600704, 0.260273271240294, 0.2772132888203487, 0.29359113081591204, 0.3104918950702995, 0.3269622383522801, 0.34382443194044754, 0.36015926604159176, 0.37715696886880323, 0.3936191201210022, 0.4106543696252629, 0.4270185583154671, 0.44391829858068377, 0.4601517567061819, 0.4771794968401082, 0.49337404302787036, 0.510433868446853, 0.5267168199061416, 0.5437824479886331, 0.5603101352462545, 0.5771962221479043, 0.593671344104223, 0.6106465189368464, 0.6270253849797882, 0.6503220477607101, 0.6603531431755982, 0.6772313794353977, 0.6937242507119663, 0.7108120654593222, 0.7270431342767552, 0.7439019145676866, 0.7603142312145792, 0.7771866648108698, 0.7946734979050234, 0.8104492284473963, 0.8269257157226093, 0.843867439951282, 0.8603056978899986, 0.8770955289364792, 0.893718448060099, 0.9104516177903861, 0.9269332250696607, 0.9437722080037929, 0.960269516624976, 0.9771040622144938, 0.9935276428586803, 1.0104362578131258, 1.0269704303354956, 1.0438350132899359, 1.0602763432543725, 1.0771016728831455, 1.0935928375110961, 1.1104376231087372, 1.1269127450650558, 1.1437848373316228, 1.1602469886420295, 1.1772040728246793]
4	images/0511.jpg	images/0535.jpg	right	1.599	[0.0, 0.0, 0.0, 0.0, 0.0, 0.0, 0.0, 0.0, 0.0, 0.0, 0.0, 0.0, 0.0, 0.0, 0.0, 0.0, 0.0, 0.0, 0.0, 0.0, 0.0, 0.0, 0.0, 0.0, 0.0, 0.0, 0.0, 0.0, 0.0, 0.0, 0.0, 0.0, 0.0, 0.0, 0.0, 0.0, 0.0, 0.0, 0.0, 0.0, 0.0, 0.0, 0.0, 0.0, 0.0, 0.0, 0.0, 0.0, 0.0, 0.0, 0.0, 0.0, 0.0, 0.0, 0.0, 0.0, 0.0, 0.0, 0.0, 0.0, 0.0, 0.0, 0.0, 0.0, 0.0, 0.0, 0.0, 0.0, 0.0, 0.0, 3.0, 11.0, 18.0, 32.0, 91.0, 152.0, 220.0, 298.0, 365.0, 436.0, 502.0, 560.0, 609.0, 649.0, 682.0, 710.0, 719.0, 723.0, 725.0, 725.0, 725.0, 725.0, 725.0, 725.0, 725.0, 725.0]	[-490.0, -490.0, -490.0, -490.0, -490.0, -490.0, -490.0, -490.0, -490.0, -490.0, -490.0, -490.0, -490.0, -490.0, -490.0, -490.0, -490.0, -490.0, -490.0, -490.0, -490.0, -490.0, -490.0, -490.0, -490.0, -490.0, -490.0, -490.0, -490.0, -490.0, -490.0, -490.0, -490.0, -490.0, -490.0, -490.0, -490.0, -490.0, -490.0, -490.0, -490.0, -490.0, -490.0, -490.0, -490.0, -490.0, -490.0, -490.0, -490.0, -490.0, -490.0, -490.0, -490.0, -490.0, -490.0, -490.0, -490.0, -490.0, -490.0, -490.0, -490.0, -490.0, -490.0, -490.0, -490.0, -490.0, -490.0, -490.0, -485.0, -475.0, -460.0, -442.0, -424.0, -408.0, -333.0, -246.0, -139.0, -30.0, 72.0, 165.0, 243.0, 302.0, 343.0, 378.0, 401.0, 423.0, 433.0, 438.0, 442.0, 443.0, 443.0, 443.0, 443.0, 443.0, 443.0, 443.0]	[0.002932392235379666, 0.007169359247200191, 0.02262491942383349, 0.03913417464355007, 0.05614245880860835, 0.07251688750693575, 0.0895644249394536, 0.105798224452883, 0.12276896194089204, 0.1388911455287598, 0.1560274295625277, 0.17243291955674067, 0.18931764113949612, 0.20573166449321434, 0.22267919132718816, 0.23912461730651557, 0.255943120282609, 0.27242882357677445, 0.28948455303907394, 0.3058279203833081, 0.3227133246837184, 0.33912188664544374, 0.355962234956678, 0.37220115441596135, 0.38926780654583126, 0.40559513127664104, 0.4226617833483033, 0.4388703242293559, 0.45593629364157096, 0.47246261552209035, 0.4893869317602366, 0.5057797924382612, 0.5227314152871259, 0.5390962866949849, 0.5559342456399463, 0.5721943277749233, 0.5891766705899499, 0.605751461815089, 0.6227501886314712, 0.6388419935829006, 0.6559202509815805, 0.6725407807971351, 0.6893384624854662, 0.7057978830998763, 0.7227334633353166, 0.7391751346294768, 0.7560260642203502, 0.7724789995118044, 0.7895094703417271, 0.8057989070657641, 0.8227184446295723, 0.8391642119386233, 0.8559253709972836, 0.8724124396103434, 0.8893872731132433, 0.9058405497344211, 0.9226187753956765, 0.9389088948373683, 0.9559567735996097, 0.9724923114990816, 0.9894128730520606, 1.0056528165587224, 1.0226887486642227, 1.039211657247506, 1.0559301496250555, 1.072396396950353, 1.0893596251262352, 1.1058794616837986, 1.1225781567627564, 1.139109939977061, 1.155889872345142, 1.172436674241908, 1.189278046542313, 1.2055278886691667, 1.2226450580637902, 1.2390635187039152, 1.2560089975595474, 1.2724141462240368, 1.28936679312028, 1.305576016602572, 1.322670316672884, 1.339106185361743, 1.3558816803852096, 1.3723981035873294, 1.389281801180914, 1.4057337124831975, 1.4225272981566377, 1.4391324679600075, 1.4559042083565146, 1.4721489304793067, 1.489165406615939, 1.50573541916674, 1.5225778154563159, 1.5391048199962825, 1.5560219682520255, 1.572438380913809]
5	images/0297.jpg	images/0135.jpg	left	2.607	[0.0, 0.0, 0.0, 0.0, 0.0, 0.0, 0.0, 0.0, 0.0, 0.0, 0.0, 0.0, 0.0, 0.0, 0.0, 0.0, 0.0, 0.0, 0.0, 0.0, 0.0, 0.0, 0.0, 0.0, 0.0, 0.0, 0.0, 0.0, 0.0, 0.0, 0.0, 0.0, 0.0, 0.0, 0.0, 2.0, 2.0, -1.0, -6.0, -6.0, -7.0, -7.0, -7.0, -7.0, -7.0, -7.0, -7.0, -7.0, -7.0, -7.0, -6.0, -5.0, -3.0, -1.0, -1.0, -1.0, -1.0, -1.0, -1.0, -1.0, 0.0, 0.0, 1.0, 1.0, 1.0, 3.0, 8.0, 16.0, 31.0, 51.0, 87.0, 129.0, 183.0, 244.0, 304.0, 360.0, 402.0, 428.0, 450.0, 455.0, 457.0, 457.0, 457.0, 451.0, 431.0, 381.0, 314.0, 252.0, 215.0, 214.0, 213.0, 214.0, 236.0, 302.0, 410.0, 527.0, 640.0, 747.0, 836.0, 904.0, 930.0, 935.0, 935.0, 928.0, 899.0, 833.0, 733.0, 597.0, 431.0, 250.0, 29.0, -190.0, -416.0, -614.0, -836.0, -934.0, -960.0, -960.0, -960.0, -960.0, -960.0, -960.0, -960.0, -960.0, -960.0, -960.0, -960.0, -960.0, -960.0, -960.0, -960.0, -960.0, -960.0, -960.0, -960.0, -960.0, -960.0, -960.0, -960.0, -960.0, -960.0, -960.0, -960.0, -960.0, -960.0, -960.0, -960.0, -960.0, -960.0, -939.0, -900.0, -853.0, -814.0, -797.0, -792.0, -791.0, -791.0]	[-490.0, -491.0, -491.0, -491.0, -491.0, -491.0, -491.0, -491.0, -491.0, -491.0, -491.0, -491.0, -491.0, -491.0, -491.0, -491.0, -491.0, -491.0, -491.0, -491.0, -491.0, -491.0, -491.0, -491.0, -491.0, -491.0, -491.0, -491.0, -491.0, -491.0, -491.0, -491.0, -491.0, -491.0, -487.0, -471.0, -451.0, -433.0, -415.0, -408.0, -407.0, -407.0, -407.0, -407.0, -407.0, -407.0, -407.0, -407.0, -407.0, -405.0, -399.0, -397.0, -391.0, -390.0, -390.0, -390.0, -390.0, -390.0, -389.0, -386.0, -385.0, -385.0, -383.0, -383.0, -383.0, -378.0, -370.0, -357.0, -338.0, -313.0, -272.0, -224.0, -162.0, -92.0, -22.0, 45.0, 96.0, 125.0, 150.0, 158.0, 162.0, 165.0, 170.0, 180.0, 197.0, 223.0, 251.0, 275.0, 292.0, 293.0, 294.0, 296.0, 302.0, 305.0, 305.0, 305.0, 305.0, 309.0, 311.0, 311.0, 313.0, 314.0, 314.0, 314.0, 316.0, 328.0, 341.0, 360.0, 375.0, 380.0, 380.0, 380.0, 380.0, 376.0, 349.0, 336.0, 328.0, 324.0, 323.0, 323.0, 323.0, 323.0, 323.0, 323.0, 323.0, 323.0, 323.0, 323.0, 323.0, 323.0, 323.0, 323.0, 323.0, 323.0, 323.0, 323.0, 323.0, 323.0, 323.0, 323.0, 323.0, 323.0, 323.0, 323.0, 323.0, 323.0, 323.0, 323.0, 323.0, 325.0, 327.0, 329.0, 329.0, 329.0, 329.0, 329.0, 329.0]	[0.008029689139220864, 0.012116128287743777, 0.016727196343708783, 0.032725476077757776, 0.04909751540981233, 0.06610614090459421, 0.08249592955689877, 0.09938952582888305, 0.11554823204642162, 0.13259064947487786, 0.14885380363557488, 0.16595458902884275, 0.18219658051384613, 0.1992543579544872, 0.21573357586748898, 0.23270670272177085, 0.24909853941062465, 0.2659897463163361, 0.2824112789821811, 0.29928302991902456, 0.31557246670126915, 0.3326159081188962, 0.3490360754658468, 0.36590475437697023, 0.3824303936562501, 0.39933832589304075, 0.4158537251059897, 0.4327063614036888, 0.44914427801268175, 0.46595902636181563, 0.48239182302495465, 0.4992601606063545, 0.5157113892491907, 0.5326575507642701, 0.5490681607625447, 0.565868231758941, 0.5821986285154708, 0.5991758513264358, 0.61552843474783, 0.6326350228046067, 0.6490500701474957, 0.6658637944492511, 0.6823972843121737, 0.6992751792422496, 0.7157796558458358, 0.7326841747271828, 0.7492101553361863, 0.7659655116731301, 0.7825839935103431, 0.7993236485635862, 0.8157216292456724, 0.8326435561175458, 0.8491022940725088, 0.8659085090621375, 0.8823399404063821, 0.8993028272525407, 0.9155629093875177, 0.9326920254388824, 0.9490988807519898, 0.9658750584349036, 0.9824693056289107, 0.9992113499902189, 1.0154840614413843, 1.032559929531999, 1.0490872754016891, 1.0658477518009022, 1.0824314176570624, 1.0992751792655326, 1.1154826960992068, 1.1326090815127827, 1.149148374039214, 1.165880861110054, 1.1822829377488233, 1.1992011099937372, 1.2154919120948762, 1.2325742655084468, 1.2490732807782479, 1.2658542371354997, 1.2824512149672955, 1.2993045339244418, 1.3155472080688924, 1.3326063508284278, 1.3491483740508556, 1.3659450316918083, 1.3824133269954473, 1.3992560646147467, 1.4153748348471709, 1.4325315988971852, 1.4491709020221606, 1.4659433250199072, 1.4824105963343754, 1.4992840539198369, 1.5156956879072823, 1.5326281961170025, 1.5491261873976327, 1.5658805197454058, 1.5823966016760096, 1.5992243206128478, 1.6155949946842156, 1.6325681215384975, 1.6488616542774253, 1.6659016823978163, 1.6823911403189413, 1.6993362779030576, 1.715731869218871, 1.732666766794864, 1.7490879580727778, 1.7659754103515297, 1.7824075242970139, 1.799218176631257, 1.8157424505334347, 1.8326046441798098, 1.8488060170202516, 1.8658808610634878, 1.8824184469995089, 1.8992990725673735, 1.9157001252751797, 1.9326217108173296, 1.9490589447668754, 1.9659498103428632, 1.9822371991467662, 1.9992656219401397, 2.0155468666926026, 2.032697828079108, 2.0492070832988247, 2.0659532236750238, 2.082427662971895, 2.0992820059182122, 2.1157171918894164, 2.132641166797839, 2.149064406112302, 2.165858333115466, 2.1824143509729765, 2.1992744965828024, 2.215568029379938, 2.232540132186841, 2.2490528007620014, 2.265910557063762, 2.282443022937514, 2.2992775685852394, 2.31573323457269, 2.3326346814865246, 2.3490145714604296, 2.3659593677148223, 2.382420836307574, 2.3992304646526463, 2.4157141199102625, 2.432610105490312, 2.4489070515846834, 2.4659115810645744, 2.482140260573942, 2.4992690352955833, 2.515787847863976, 2.5326442387886345, 2.548859606264159, 2.56586720776977, 2.582314681727439]
6	images/0318.jpg	images/0548.jpg	left	1.872	[0.0, 0.0, 0.0, 0.0, 0.0, 0.0, 0.0, 0.0, 0.0, 0.0, 0.0, 0.0, 0.0, 0.0, 0.0, 0.0, 0.0, 0.0, 0.0, 0.0, 0.0, 0.0, 0.0, 0.0, 0.0, 0.0, 0.0, 0.0, 0.0, 0.0, 0.0, 0.0, 0.0, 0.0, 0.0, 0.0, 0.0, 0.0, 0.0, 0.0, 0.0, 0.0, 0.0, 0.0, 0.0, 0.0, 5.0, 31.0, 56.0, 81.0, 103.0, 123.0, 143.0, 166.0, 187.0, 204.0, 220.0, 229.0, 240.0, 248.0, 257.0, 259.0, 260.0, 262.0, 262.0, 262.0, 262.0, 253.0, 223.0, 170.0, 93.0, -36.0, -80.0, -204.0, -283.0, -348.0, -400.0, -433.0, -448.0, -453.0, -454.0, -455.0, -457.0, -458.0, -465.0, -468.0, -471.0, -471.0, -473.0, -479.0, -488.0, -497.0, -501.0, -501.0, -501.0, -501.0, -501.0, -501.0, -501.0, -501.0, -502.0, -514.0, -539.0, -564.0, -588.0, -616.0, -651.0, -690.0, -717.0, -726.0, -726.0, -726.0, -726.0]	[-490.0, -490.0, -490.0, -490.0, -490.0, -490.0, -490.0, -490.0, -490.0, -490.0, -490.0, -490.0, -490.0, -490.0, -490.0, -490.0, -490.0, -490.0, -490.0, -490.0, -490.0, -490.0, -490.0, -490.0, -490.0, -490.0, -490.0, -490.0, -490.0, -490.0, -490.0, -490.0, -490.0, -490.0, -489.0, -489.0, -489.0, -489.0, -489.0, -489.0, -489.0, -489.0, -489.0, -489.0, -489.0, -489.0, -477.0, -448.0, -416.0, -378.0, -338.0, -299.0, -265.0, -225.0, -190.0, -167.0, -144.0, -128.0, -115.0, -104.0, -92.0, -88.0, -85.0, -82.0, -80.0, -77.0, -71.0, -58.0, -36.0, -2.0, 39.0, 103.0, 118.0, 163.0, 187.0, 206.0, 221.0, 229.0, 233.0, 233.0, 233.0, 233.0, 233.0, 233.0, 235.0, 235.0, 235.0, 236.0, 237.0, 237.0, 240.0, 243.0, 244.0, 244.0, 244.0, 244.0, 244.0, 244.0, 244.0, 244.0, 245.0, 247.0, 256.0, 263.0, 269.0, 277.0, 288.0, 307.0, 318.0, 323.0, 323.0, 323.0, 323.0]	[0.01015192735940218, 0.016143687593284994, 0.021173912624362856, 0.036645515414420515, 0.05359406629577279, 0.0699302657158114, 0.08684707258362323, 0.10326962923863903, 0.12013182288501412, 0.13640009699156508, 0.15347630641190335, 0.16988998837769032, 0.18682761659147218, 0.2032716772519052, 0.22013011621311307, 0.23655608616536483, 0.25862599804531783, 0.27008045226102695, 0.2868272752966732, 0.3032614372787066, 0.3201601534965448, 0.3365929501596838, 0.35356334631796926, 0.36967836192343384, 0.3870505071245134, 0.4032392505905591, 0.420310681394767, 0.43658578215399757, 0.45358382631093264, 0.4699466496822424, 0.48691636318108067, 0.5032689466024749, 0.5203014654107392, 0.5365994354942814, 0.5536394636146724, 0.5700142336427234, 0.5869429871672764, 0.6032365199644119, 0.6201860948349349, 0.6364830409293063, 0.6535305783618242, 0.6699241216992959, 0.6868214725982398, 0.7033553038490936, 0.7201656148536131, 0.7366509767598473, 0.7536019169492647, 0.7699207083787769, 0.786846048606094, 0.8033942158217542, 0.8203113640192896, 0.8366461981204338, 0.8537073888583109, 0.8699804416391999, 0.8868757445598021, 0.9033133198972791, 0.9201366015477106, 0.936451296962332, 0.953501223702915, 0.9699725909740664, 0.9867869979934767, 1.0032815759186633, 1.0201826815027744, 1.036578955478035, 1.0536671115551144, 1.0699763456941582, 1.086759008700028, 1.1032846479211003, 1.1200918868998997, 1.136598752811551, 1.1534858637605794, 1.1699131990317255, 1.1867491099983454, 1.203282258589752, 1.2201406975509599, 1.2365932915126905, 1.2534527544048615, 1.2698271831031889, 1.2867317020427436, 1.3032955705421045, 1.3200727722723968, 1.336593632819131, 1.3534585571032949, 1.3696558339288458, 1.3867528646951541, 1.4032979598850943, 1.4201581054949202, 1.436543456860818, 1.4534537784056738, 1.4699579136795364, 1.4867501340340823, 1.5032836238970049, 1.5201693695271388, 1.5365687155281194, 1.5535261410404928, 1.5698910123901442, 1.5868136219796725, 1.6032450532657094, 1.620121582876891, 1.6365994354709983, 1.653500882384833, 1.67002413229784, 1.6867146354052238, 1.7032706532627344, 1.7200662869145162, 1.7363250037305988, 1.7533810744644143, 1.77003130025696, 1.7867282886873, 1.8032679226016626, 1.8201137321884744, 1.8365803208434954, 1.8534636771073565]
7	images/0038.jpg	images/0010.jpg	right	1.867	[0.0, 0.0, 0.0, 0.0, 0.0, 0.0, 0.0, 0.0, 0.0, 0.0, 0.0, 0.0, 0.0, 0.0, 0.0, 0.0, 0.0, 0.0, 0.0, 0.0, 0.0, 0.0, 0.0, 0.0, 0.0, 0.0, 0.0, 0.0, 0.0, 0.0, 0.0, 0.0, 0.0, 0.0, 0.0, 0.0, 0.0, 0.0, 0.0, 0.0, 0.0, 0.0, 0.0, 0.0, 0.0, 0.0, 0.0, 0.0, 0.0, 0.0, 0.0, 0.0, 0.0, 0.0, 0.0, 0.0, 0.0, -6.0, -13.0, -23.0, -30.0, -37.0, -44.0, -46.0, -47.0, -47.0, -47.0, -47.0, -47.0, -47.0, -47.0, -47.0, -47.0, -47.0, -47.0, -47.0, -47.0, -46.0, -46.0, -44.0, -42.0, -41.0, -41.0, -40.0, -38.0, -27.0, -21.0, 5.0, 39.0, 89.0, 150.0, 233.0, 312.0, 387.0, 454.0, 515.0, 569.0, 619.0, 653.0, 679.0, 686.0, 689.0, 690.0, 690.0, 691.0, 694.0, 698.0, 699.0, 699.0, 699.0, 699.0, 699.0, 699.0]	[-490.0, -490.0, -490.0, -490.0, -490.0, -490.0, -490.0, -490.0, -490.0, -490.0, -490.0, -490.0, -490.0, -490.0, -490.0, -490.0, -490.0, -490.0, -490.0, -490.0, -490.0, -490.0, -490.0, -490.0, -490.0, -490.0, -490.0, -490.0, -490.0, -490.0, -490.0, -490.0, -490.0, -490.0, -490.0, -490.0, -490.0, -490.0, -490.0, -490.0, -490.0, -490.0, -490.0, -490.0, -490.0, -490.0, -490.0, -490.0, -490.0, -490.0, -490.0, -490.0, -490.0, -490.0, -490.0, -490.0, -489.0, -473.0, -451.0, -429.0, -409.0, -394.0, -381.0, -375.0, -372.0, -366.0, -357.0, -349.0, -338.0, -324.0, -310.0, -301.0, -288.0, -273.0, -269.0, -258.0, -252.0, -246.0, -243.0, -240.0, -232.0, -229.0, -226.0, -223.0, -218.0, -202.0, -193.0, -168.0, -141.0, -107.0, -72.0, -36.0, -3.0, 31.0, 59.0, 92.0, 126.0, 162.0, 191.0, 220.0, 231.0, 239.0, 247.0, 253.0, 262.0, 272.0, 281.0, 286.0, 288.0, 288.0, 288.0, 288.0, 288.0]	[0.00595182430697605, 0.010649249597918242, 0.014182387909386307, 0.028325181221589446, 0.045243012078572065, 0.0613378889975138, 0.07852332503534853, 0.09470455924747512, 0.11169338738545775, 0.12827841856051236, 0.145170308125671, 0.16135734500130638, 0.17859568761195987, 0.19485952443210408, 0.2117592646391131, 0.2281930852914229, 0.24505084159318358, 0.26148807554272935, 0.278407271776814, 0.294649604591541, 0.3116397981066257, 0.32814154401421547, 0.34508395090233535, 0.3614778355695307, 0.37856291967909783, 0.3948243671329692, 0.41170328605221584, 0.42812550137750804, 0.4450467455899343, 0.4614942195476033, 0.47838713316014037, 0.49483733775559813, 0.5116995314019732, 0.5281889893230982, 0.545039577584248, 0.561504800862167, 0.5784048824571073, 0.5946513112867251, 0.6117008966975845, 0.6282323385821655, 0.6450655189109966, 0.6613761183107272, 0.6785352716688067, 0.6948236844618805, 0.7117439046851359, 0.7282333626062609, 0.7451092095579952, 0.7616730780573562, 0.7784646157524548, 0.794828804442659, 0.8117776966537349, 0.8282231226330623, 0.8450911188847385, 0.8614228809601627, 0.8784949943656102, 0.8950090283178724, 0.9116869020508602, 0.9281528079882264, 0.9449999829521403, 0.9614911475800909, 0.9783611918101087, 0.9947789698489942, 1.0116831474006176, 1.0282299492973834, 1.04507029755041, 1.0614829555852339, 1.078403517138213, 1.0948448471026495, 1.1116677874233574, 1.128155880025588, 1.1450061269570142, 1.1615150408470072, 1.1783642638474703, 1.1948049111524597, 1.2117435633554123, 1.2282023013103753, 1.2450184149784036, 1.2615000221994705, 1.2783980558160692, 1.2946827139239758, 1.3116425287444144, 1.3282067386317067, 1.3450474282726645, 1.361501046223566, 1.3783652878482826, 1.3948875137139112, 1.4116677874117158, 1.4281845520017669, 1.4450221696170047, 1.4615515635232441, 1.4783349091885611, 1.4949117483920418, 1.511645600781776, 1.5281616826541722, 1.5449528790195473, 1.5614822729257867, 1.5783052131882869, 1.594597380666528, 1.6116435527801514, 1.6281432507093996, 1.6450347989448346, 1.6614744222606532, 1.678435602458194, 1.6948636203887872, 1.7116944114095531, 1.7282197093009017, 1.7449757482972927, 1.7614887582021765, 1.7783727971836925, 1.7947987671359442, 1.8116585714160465, 1.8281739706289954, 1.8451160361873917]
8	images/0518.jpg	images/0453.jpg	right	1.447	[0.0, 0.0, 0.0, 0.0, 0.0, 0.0, 0.0, 0.0, 0.0, 0.0, 0.0, 0.0, 0.0, 0.0, 0.0, 0.0, 0.0, 0.0, 0.0, 0.0, 0.0, 0.0, 0.0, 0.0, 0.0, 0.0, 0.0, 0.0, 0.0, 0.0, 0.0, 0.0, 0.0, 0.0, 0.0, 0.0, 0.0, 0.0, 0.0, 0.0, 0.0, 0.0, 0.0, 0.0, 0.0, 0.0, 0.0, 0.0, 0.0, 0.0, 0.0, 0.0, 0.0, 0.0, 0.0, 0.0, 0.0, 0.0, 0.0, 9.0, 46.0, 121.0, 223.0, 320.0, 412.0, 494.0, 583.0, 649.0, 709.0, 757.0, 774.0, 784.0, 794.0, 801.0, 811.0, 818.0, 827.0, 838.0, 844.0, 848.0, 848.0, 848.0, 847.0, 847.0, 847.0, 847.0, 847.0]	[-490.0, -490.0, -490.0, -490.0, -490.0, -490.0, -490.0, -490.0, -490.0, -490.0, -490.0, -490.0, -490.0, -490.0, -490.0, -490.0, -490.0, -490.0, -490.0, -490.0, -490.0, -490.0, -490.0, -490.0, -490.0, -490.0, -490.0, -490.0, -490.0, -490.0, -490.0, -490.0, -490.0, -490.0, -490.0, -490.0, -490.0, -490.0, -490.0, -490.0, -490.0, -490.0, -490.0, -490.0, -490.0, -490.0, -490.0, -490.0, -490.0, -490.0, -490.0, -490.0, -490.0, -490.0, -490.0, -490.0, -490.0, -490.0, -490.0, -475.0, -443.0, -379.0, -292.0, -205.0, -123.0, -39.0, 38.0, 89.0, 130.0, 160.0, 174.0, 185.0, 198.0, 211.0, 225.0, 242.0, 262.0, 282.0, 295.0, 309.0, 319.0, 326.0, 333.0, 333.0, 333.0, 334.0, 334.0]	[0.0013759135035797954, 0.005691045837011188, 0.019092805043328553, 0.035945782670751214, 0.05239666998386383, 0.06934931682189927, 0.08556366030825302, 0.1025845737894997, 0.11900166911073029, 0.13600551593117416, 0.15239803527947515, 0.16917694365838543, 0.18549471104051918, 0.2025111872353591, 0.2190122504835017, 0.23589867871487513, 0.2521969901281409, 0.2692114182864316, 0.28569541487377137, 0.30257228581467643, 0.3187118773930706, 0.33584440674167126, 0.3522584300953895, 0.3693083568941802, 0.3856933668721467, 0.4027153043425642, 0.4190347784315236, 0.43593008135212585, 0.4524400192894973, 0.4691748956684023, 0.4856691322638653, 0.5025429311790504, 0.519019759783987, 0.5359133560559712, 0.5523324993555434, 0.5691796743194573, 0.5856807375675999, 0.6026210964191705, 0.6189931358094327, 0.6359205240150914, 0.652408616617322, 0.6692605702555738, 0.685774945479352, 0.7086435766541399, 0.7191255730576813, 0.7359812813228928, 0.7524120299494825, 0.7692479409161024, 0.7857435428304598, 0.8026702483766712, 0.8191655090195127, 0.8359887906117365, 0.8523809686303139, 0.869176943670027, 0.8855093884048983, 0.9025180138414726, 0.919021466455888, 0.9359191586845554, 0.952336254005786, 0.9691390556981787, 0.9856698149233125, 1.0025511231506243, 1.0188054026220925, 1.0358164174249396, 1.0523075820528902, 1.0690864903735928, 1.0854189351084642, 1.102491389901843, 1.1189613918541, 1.1357645348180085, 1.1522990487283096, 1.169106287707109, 1.1854912977432832, 1.202523475221824, 1.2189869917929173, 1.2358857080689631, 1.2522891500848345, 1.2690864903852344, 1.2856513829319738, 1.3025200618430972, 1.3189323785481974, 1.335775116167497, 1.3523256726912223, 1.3691632903064601, 1.385411425784696, 1.4026535230805166, 1.4189071198925376]
9	images/0534.jpg	images/0233.jpg	right	1.245	[0.0, 0.0, 0.0, 0.0, 0.0, 0.0, 0.0, 0.0, 0.0, -1.0, -1.0, -2.0, -2.0, -3.0, -3.0, -3.0, -3.0, -3.0, -3.0, -3.0, -3.0, 11.0, 41.0, 69.0, 90.0, 106.0, 119.0, 130.0, 136.0, 139.0, 141.0, 141.0, 141.0, 141.0, 141.0, 141.0, 141.0, 141.0, 141.0, 141.0, 141.0, 141.0, 141.0, 141.0, 141.0, 141.0, 141.0, 141.0, 141.0, 141.0, 152.0, 180.0, 236.0, 318.0, 410.0, 504.0, 596.0, 698.0, 738.0, 765.0, 783.0, 793.0, 802.0, 807.0, 812.0, 812.0, 812.0, 812.0, 812.0, 812.0, 812.0, 812.0, 812.0, 812.0, 812.0]	[-490.0, -490.0, -490.0, -490.0, -490.0, -490.0, -490.0, -490.0, -490.0, -489.0, -489.0, -489.0, -489.0, -489.0, -489.0, -489.0, -489.0, -489.0, -489.0, -489.0, -489.0, -473.0, -434.0, -397.0, -371.0, -351.0, -338.0, -324.0, -317.0, -312.0, -309.0, -309.0, -309.0, -309.0, -309.0, -309.0, -309.0, -309.0, -309.0, -309.0, -309.0, -309.0, -309.0, -309.0, -309.0, -309.0, -309.0, -309.0, -309.0, -309.0, -291.0, -251.0, -172.0, -56.0, 59.0, 141.0, 203.0, 265.0, 290.0, 311.0, 327.0, 343.0, 360.0, 372.0, 382.0, 391.0, 396.0, 398.0, 401.0, 406.0, 407.0, 407.0, 407.0, 407.0, 407.0]	[0.013766644289717078, 0.017946950043551624, 0.02720219548791647, 0.0439063519006595, 0.06081394280772656, 0.07712966221151873, 0.09412463440094143, 0.11031576723325998, 0.12741416331846267, 0.14387460792204365, 0.16067160695092753, 0.17713648889912292, 0.1940539784845896, 0.21025125531014055, 0.22739812068175524, 0.24366332276258618, 0.2607484068721533, 0.2771764248609543, 0.29409357311669737, 0.3103475112002343, 0.3274107499746606, 0.34379780798917636, 0.3608262308407575, 0.37722899013897404, 0.3941116637433879, 0.4103167912689969, 0.4273800300434232, 0.443862319982145, 0.4607074469095096, 0.4772071448387578, 0.49414170102681965, 0.5105127164279111, 0.5273930006660521, 0.5438694879412651, 0.5606866255984642, 0.577184958208818, 0.5940317917848006, 0.6105263697099872, 0.6273465793929063, 0.6439281972125173, 0.6607996068196371, 0.6771917848382145, 0.6940160904778168, 0.7104758524219505, 0.7338906164513901, 0.7438592479447834, 0.7608405667706393, 0.7770357956178486, 0.7941918770084158, 0.8103522898745723, 0.8274704832583666, 0.8436831200961024, 0.860550775018055, 0.8769719663541764, 0.8939990238286555, 0.910272417939268, 0.9272472514421679, 0.9438145333551802, 0.9606156283407472, 0.9770781209226698, 0.9939904905040748, 1.0104560551117174, 1.0272878701216541, 1.043755824037362, 1.0605773990391754, 1.0769405637402087, 1.0939573812065646, 1.110427041829098, 1.1272591981105506, 1.1435373708955012, 1.160600950999651, 1.1770760729559697, 1.1939952691900544, 1.2104130471707322, 1.2272970860940404]
10	images/0583.jpg	images/0199.jpg	right	1.392	[0.0, 0.0, 0.0, 0.0, 0.0, 0.0, 0.0, 0.0, 0.0, 0.0, 0.0, 0.0, 0.0, 0.0, 0.0, 0.0, 0.0, 0.0, 0.0, 0.0, 0.0, 0.0, 0.0, 0.0, 0.0, 0.0, 0.0, 0.0, 0.0, 0.0, 0.0, 0.0, 0.0, 0.0, 0.0, 0.0, 0.0, 0.0, 0.0, 0.0, 0.0, 0.0, 0.0, 0.0, 0.0, 0.0, 1.0, 14.0, 33.0, 51.0, 74.0, 108.0, 156.0, 228.0, 296.0, 370.0, 406.0, 431.0, 450.0, 461.0, 471.0, 475.0, 478.0, 480.0, 482.0, 484.0, 496.0, 501.0, 508.0, 512.0, 518.0, 524.0, 528.0, 532.0, 538.0, 544.0, 557.0, 571.0, 596.0, 608.0, 614.0, 615.0, 615.0, 615.0]	[-490.0, -490.0, -490.0, -490.0, -490.0, -490.0, -490.0, -490.0, -490.0, -490.0, -490.0, -490.0, -490.0, -490.0, -490.0, -490.0, -490.0, -490.0, -490.0, -490.0, -490.0, -490.0, -490.0, -490.0, -490.0, -490.0, -490.0, -490.0, -490.0, -490.0, -490.0, -490.0, -490.0, -490.0, -490.0, -490.0, -490.0, -490.0, -490.0, -490.0, -490.0, -490.0, -490.0, -490.0, -490.0, -490.0, -486.0, -481.0, -470.0, -449.0, -405.0, -327.0, -239.0, -141.0, -50.0, 65.0, 120.0, 169.0, 215.0, 261.0, 292.0, 307.0, 317.0, 324.0, 329.0, 333.0, 342.0, 343.0, 346.0, 347.0, 350.0, 354.0, 355.0, 357.0, 359.0, 359.0, 359.0, 362.0, 366.0, 367.0, 368.0, 369.0, 369.0, 369.0]	[0.015201608359348029, 0.02006799355149269, 0.030237670231144875, 0.046857175999321043, 0.06367124168900773, 0.08015557960607111, 0.09699012525379658, 0.11355058045592159, 0.13037010742118582, 0.1467387334560044, 0.1636558817117475, 0.18016513693146408, 0.19695599196711555, 0.21348026586929336, 0.2303230034885928, 0.246817922743503, 0.26374531094916165, 0.2801822035689838, 0.2969979759072885, 0.3135355617851019, 0.33032368612475693, 0.3468568347161636, 0.363665780343581, 0.3801579689607024, 0.39700685057323426, 0.4135236151632853, 0.4303335847798735, 0.4468343066982925, 0.4637569162878208, 0.4801798142725602, 0.4970249411999248, 0.5135563830845058, 0.5303141287877224, 0.5468431813642383, 0.5636248203809373, 0.5801610409398563, 0.5969795439159498, 0.6135925644193776, 0.630309350148309, 0.646836013358552, 0.6636524683563039, 0.6801443156437017, 0.6969559919671156, 0.713522591162473, 0.7303209554520436, 0.7468264560448006, 0.7636954763438553, 0.7802047315635718, 0.7970351811964065, 0.8134976738365367, 0.8302113875397481, 0.8465380296111107, 0.8636046817409806, 0.8800828756648116, 0.8969006959814578, 0.9134471565485001, 0.9302523475489579, 0.9467005041660741, 0.9636050230474211, 0.9800992596428841, 0.9968750959960744, 1.0132723940187134, 1.0301844222703949, 1.046745560131967, 1.0636732896673493, 1.08009038498858, 1.0969211759511381, 1.1134191672317684, 1.130220603547059, 1.1467052828520536, 1.1636087777442299, 1.1800726357032545, 1.196893527987413, 1.2133956152247265, 1.2301577982725576, 1.2467817414435558, 1.2636231137439609, 1.2801832276163623, 1.2969099119654857, 1.3133904952555895, 1.3302001236006618, 1.3466912881704047, 1.3635893217287958, 1.380096870358102]
11	images/0014.jpg	images/0365.jpg	right	1.053	[0.0, 0.0, 0.0, 0.0, 0.0, 0.0, 0.0, 0.0, 0.0, 0.0, 0.0, 0.0, 0.0, -2.0, -3.0, -3.0, -4.0, -4.0, -4.0, -4.0, -4.0, -4.0, -4.0, -4.0, -5.0, -6.0, -7.0, -8.0, -9.0, -9.0, -9.0, -6.0, 4.0, 18.0, 37.0, 58.0, 80.0, 99.0, 129.0, 171.0, 219.0, 288.0, 329.0, 368.0, 405.0, 441.0, 473.0, 500.0, 519.0, 545.0, 570.0, 597.0, 621.0, 647.0, 660.0, 669.0, 673.0, 677.0, 681.0, 683.0, 685.0, 685.0, 685.0]	[-490.0, -490.0, -490.0, -490.0, -490.0, -490.0, -490.0, -490.0, -490.0, -490.0, -490.0, -490.0, -491.0, -491.0, -491.0, -491.0, -491.0, -491.0, -491.0, -491.0, -491.0, -491.0, -491.0, -491.0, -491.0, -490.0, -488.0, -485.0, -484.0, -480.0, -468.0, -445.0, -417.0, -382.0, -341.0, -293.0, -230.0, -159.0, -79.0, 3.0, 85.0, 196.0, 246.0, 286.0, 312.0, 332.0, 344.0, 356.0, 367.0, 378.0, 389.0, 401.0, 411.0, 420.0, 426.0, 429.0, 431.0, 433.0, 435.0, 435.0, 436.0, 436.0, 436.0]	[0.004524710820987821, 0.00897159770829603, 0.025604756840039045, 0.042529414407908916, 0.05887756042648107, 0.07587458059424534, 0.09233434253837913, 0.10930576274404302, 0.12562865013023838, 0.1426342036575079, 0.15898917632875964, 0.17593158321687952, 0.19231079058954492, 0.20923237613169476, 0.22570954606635496, 0.24262157431803644, 0.2588946270989254, 0.2759831245057285, 0.2923988545080647, 0.3092426161165349, 0.3256914553930983, 0.3426625342690386, 0.35897279233904555, 0.3758370339637622, 0.39243844914017245, 0.4091064242529683, 0.4256061221822165, 0.44255057704867795, 0.45895436039427295, 0.4758517112932168, 0.49230191588867456, 0.5091487495228648, 0.5255330768995918, 0.5425335103645921, 0.5591209309059195, 0.5758114340133034, 0.5924036331707612, 0.6090907229227014, 0.6255962235154584, 0.6424512491212226, 0.6588471817667596, 0.6757960739778355, 0.6922056599869393, 0.7090726322494447, 0.7253743570181541, 0.7424393024411984, 0.7586888032383285, 0.775788223312702, 0.7922595906420611, 0.8090118750114925, 0.8255631141946651, 0.8425010837381706, 0.8588352351216599, 0.8757953913300298, 0.8922647106228396, 0.9090927709476091, 0.9255627728416584, 0.9425167850567959, 0.9589683550293557, 0.9757513593649492, 0.9923008918995038, 1.0090770695824176, 1.0254398929537274]
12	images/0516.jpg	images/0250.jpg	right	1.144	[0.0, 0.0, 0.0, 0.0, 0.0, 0.0, 0.0, 0.0, 0.0, 0.0, 0.0, 0.0, 0.0, 0.0, 0.0, 0.0, 0.0, 0.0, 0.0, -1.0, -1.0, -1.0, -1.0, -1.0, -1.0, -1.0, -1.0, -1.0, -1.0, -1.0, -1.0, -1.0, -1.0, -1.0, -1.0, -1.0, -1.0, 17.0, 55.0, 116.0, 207.0, 311.0, 419.0, 529.0, 628.0, 698.0, 753.0, 784.0, 806.0, 829.0, 839.0, 846.0, 853.0, 856.0, 860.0, 863.0, 866.0, 868.0, 869.0, 870.0, 870.0, 870.0, 870.0, 870.0, 870.0, 870.0, 870.0, 870.0, 870.0]	[-490.0, -490.0, -490.0, -490.0, -490.0, -490.0, -490.0, -490.0, -490.0, -490.0, -490.0, -490.0, -490.0, -490.0, -490.0, -490.0, -490.0, -490.0, -490.0, -489.0, -489.0, -489.0, -489.0, -489.0, -489.0, -489.0, -489.0, -489.0, -489.0, -489.0, -489.0, -489.0, -489.0, -489.0, -487.0, -483.0, -467.0, -406.0, -342.0, -255.0, -157.0, -56.0, 35.0, 128.0, 210.0, 275.0, 328.0, 360.0, 381.0, 405.0, 416.0, 424.0, 433.0, 437.0, 443.0, 448.0, 454.0, 458.0, 462.0, 463.0, 464.0, 464.0, 464.0, 464.0, 464.0, 464.0, 464.0, 464.0, 464.0]	[0.014661960827652365, 0.019133082358166575, 0.029019111243542284, 0.04564305441454053, 0.06259467726340517, 0.07879912212956697, 0.09571012633387, 0.11232109885895625, 0.1293133403523825, 0.14564510236959904, 0.16257180797401816, 0.17898890329524875, 0.19588864350225776, 0.2123200748465024, 0.22928944701561704, 0.24568879301659763, 0.2625417706440203, 0.27898480725707486, 0.29586099553853273, 0.3123033494921401, 0.32928432704648003, 0.345780270290561, 0.36252845864510164, 0.37898753792978823, 0.3958558755693957, 0.4123296321486123, 0.42921196442330256, 0.44567821169039235, 0.4626018452690914, 0.4790438578929752, 0.4959545208257623, 0.5123610348091461, 0.5292778416769579, 0.5457123449887149, 0.5624622400500812, 0.5790028979536146, 0.5958804515539669, 0.6124258880736306, 0.6291484764660709, 0.6456922063371167, 0.6624560960335657, 0.6789848072803579, 0.6958592888549902, 0.7120869443751872, 0.729197287117131, 0.7455771771492437, 0.7623560854699463, 0.7789735433179885, 0.79572582768742, 0.8123453334555961, 0.829134140512906, 0.845636569079943, 0.8624960320303217, 0.8788045834517106, 0.8958551929099485, 0.9120210671098903, 0.9290918151964433, 0.945555673155468, 0.9624479040503502, 0.9789943646173924, 0.9958545102272183, 1.0122555628768168, 1.0292880816850811, 1.0457198543590494, 1.0625103680067696, 1.0789895859197713, 1.0959046861971729, 1.1122937921900302, 1.1291180978296325]
13	images/0251.jpg	images/0568.jpg	right	1.008	[0.0, 0.0, 0.0, 0.0, 0.0, 0.0, 0.0, 0.0, 0.0, 0.0, 0.0, 0.0, 0.0, 0.0, 0.0, 0.0, 0.0, 1.0, 4.0, 8.0, 11.0, 14.0, 14.0, 14.0, 14.0, 15.0, 16.0, 19.0, 23.0, 33.0, 63.0, 80.0, 158.0, 231.0, 306.0, 384.0, 448.0, 499.0, 537.0, 568.0, 591.0, 609.0, 627.0, 651.0, 669.0, 685.0, 697.0, 704.0, 708.0, 713.0, 717.0, 723.0, 726.0, 729.0, 731.0, 733.0, 734.0, 734.0, 734.0, 734.0, 734.0]	[-490.0, -490.0, -490.0, -490.0, -490.0, -490.0, -490.0, -490.0, -490.0, -490.0, -490.0, -490.0, -490.0, -488.0, -486.0, -482.0, -477.0, -472.0, -463.0, -451.0, -444.0, -440.0, -439.0, -436.0, -432.0, -429.0, -424.0, -419.0, -408.0, -392.0, -350.0, -330.0, -240.0, -162.0, -92.0, -30.0, 21.0, 65.0, 104.0, 142.0, 167.0, 190.0, 211.0, 237.0, 256.0, 271.0, 282.0, 290.0, 296.0, 303.0, 309.0, 315.0, 321.0, 327.0, 332.0, 337.0, 339.0, 339.0, 339.0, 339.0, 339.0]	[0.014668958145193756, 0.021065880719106644, 0.02911656181095168, 0.046129965980071574, 0.062330656161066145, 0.07932255632476881, 0.095660803723149, 0.11258921591797844, 0.12902883923379704, 0.1466003229143098, 0.16209650167729706, 0.17920923372730613, 0.19545634521637112, 0.21258443727856502, 0.22898173530120403, 0.24584222224075347, 0.2623371414956637, 0.2791815857635811, 0.2957420409657061, 0.31253733328776434, 0.32896876463200897, 0.3459319928078912, 0.36211732297670096, 0.37929320166585967, 0.39547033986309543, 0.4125827305833809, 0.4290039219195023, 0.44582822755910456, 0.46231802680995315, 0.47918124444549903, 0.4954147025709972, 0.5124530240427703, 0.5287967327749357, 0.5458630435168743, 0.562347722821869, 0.5792529243626632, 0.5954440572531894, 0.6125206080032513, 0.6290254259365611, 0.6460316620650701, 0.6623456748202443, 0.6791556444368325, 0.6954324519028887, 0.7124847680097446, 0.7290438578929752, 0.7458326648920774, 0.7623200748348609, 0.7792379057500511, 0.7954652198823169, 0.8125055893324316, 0.8288731913780794, 0.8458398329094052, 0.8621289283037186, 0.8791593991336413, 0.8956662650452927, 0.9125096853240393, 0.9289749086019583, 0.945863384869881, 0.96242042677477, 0.979182951094117, 0.9956423717085272]
14	images/0095.jpg	images/0210.jpg	right	1.375	[0.0, 0.0, 0.0, 0.0, 0.0, 0.0, 0.0, 0.0, 1.0, 1.0, 1.0, 1.0, 1.0, 1.0, 1.0, 1.0, 1.0, 1.0, 1.0, 1.0, 1.0, 2.0, 3.0, 3.0, 3.0, 3.0, 3.0, 3.0, 3.0, 4.0, 7.0, 10.0, 15.0, 20.0, 26.0, 39.0, 47.0, 61.0, 79.0, 95.0, 115.0, 137.0, 155.0, 169.0, 183.0, 193.0, 203.0, 223.0, 236.0, 248.0, 259.0, 270.0, 282.0, 301.0, 318.0, 341.0, 372.0, 410.0, 456.0, 530.0, 573.0, 611.0, 639.0, 663.0, 679.0, 692.0, 707.0, 715.0, 720.0, 727.0, 732.0, 737.0, 739.0, 743.0, 745.0, 749.0, 752.0, 752.0, 753.0, 754.0, 754.0, 755.0, 755.0]	[-490.0, -490.0, -490.0, -490.0, -490.0, -490.0, -490.0, -490.0, -489.0, -489.0, -488.0, -488.0, -488.0, -487.0, -487.0, -485.0, -484.0, -483.0, -482.0, -482.0, -480.0, -475.0, -475.0, -475.0, -475.0, -475.0, -475.0, -475.0, -474.0, -467.0, -458.0, -446.0, -429.0, -414.0, -398.0, -376.0, -359.0, -342.0, -323.0, -305.0, -288.0, -272.0, -262.0, -253.0, -245.0, -239.0, -234.0, -221.0, -213.0, -205.0, -198.0, -192.0, -182.0, -168.0, -152.0, -133.0, -109.0, -76.0, -37.0, 27.0, 64.0, 99.0, 131.0, 161.0, 183.0, 203.0, 225.0, 240.0, 254.0, 270.0, 283.0, 298.0, 308.0, 322.0, 334.0, 347.0, 360.0, 368.0, 373.0, 379.0, 380.0, 381.0, 381.0]	[0.013765278970822692, 0.018737477366812527, 0.02727387542836368, 0.044424836814869195, 0.06063303630799055, 0.08242680970579386, 0.09396318387007341, 0.11095781467156485, 0.12734043534146622, 0.14426645828643814, 0.16081701481016353, 0.17755701119313017, 0.19398707716027275, 0.21094108937541023, 0.2273424833547324, 0.2443422342184931, 0.26041902048746124, 0.2775727125117555, 0.29399390384787694, 0.31082298810360953, 0.3272772887721658, 0.34423915162915364, 0.3606156283058226, 0.3774921579170041, 0.3939683038624935, 0.41091139341006055, 0.42710559820989147, 0.4443220955436118, 0.46048284973949194, 0.47756315517472103, 0.49399561050813645, 0.5108397134463303, 0.5272964034229517, 0.5441678130300716, 0.5606166523066349, 0.5775201471988112, 0.5939969758037478, 0.6107799801393412, 0.6273438486969098, 0.6441657650284469, 0.6604702204349451, 0.677520829893183, 0.6939713758183643, 0.7108369827619754, 0.7273906113114208, 0.744113199703861, 0.7607548921951093, 0.7774989845929667, 0.7940532958018593, 0.8107994361780584, 0.8273639873368666, 0.844196826335974, 0.8607634255313314, 0.8775314111844636, 0.8939440692192875, 0.9108277668128721, 0.9273209793609567, 0.9441425543627702, 0.960637814947404, 0.9775655444827862, 0.9939485065406188, 1.0108417614246719, 1.0273001580499113, 1.0441534770070575, 1.0603971751406789, 1.0775396032258868, 1.0939549918402918, 1.1108881827676669, 1.127328488684725, 1.1441381170297973, 1.160615628294181, 1.177517757867463, 1.1939642078359611, 1.2107857828377746, 1.2272998167318292, 1.2441237810417078, 1.2603883005212992, 1.2774518806254491, 1.2938205066602677, 1.3108448334387504, 1.327348968712613, 1.3441558663616888, 1.3603773778304458]
15	images/0094.jpg	images/0309.jpg	right	0.991	[0.0, 0.0, 0.0, 0.0, 0.0, 0.0, 0.0, 0.0, 0.0, 0.0, 0.0, 0.0, 0.0, 0.0, 0.0, 0.0, 0.0, 0.0, 0.0, 0.0, 0.0, 1.0, 3.0, 6.0, 13.0, 41.0, 110.0, 266.0, 347.0, 416.0, 481.0, 541.0, 593.0, 630.0, 657.0, 677.0, 690.0, 696.0, 700.0, 707.0, 721.0, 731.0, 740.0, 741.0, 741.0, 739.0, 738.0, 738.0, 738.0, 740.0, 742.0, 752.0, 766.0, 782.0, 798.0, 807.0, 810.0, 810.0, 810.0, 810.0]	[-490.0, -490.0, -490.0, -490.0, -490.0, -490.0, -490.0, -490.0, -490.0, -489.0, -488.0, -488.0, -488.0, -488.0, -488.0, -488.0, -488.0, -487.0, -487.0, -486.0, -484.0, -475.0, -463.0, -448.0, -426.0, -376.0, -278.0, -111.0, -34.0, 16.0, 50.0, 79.0, 102.0, 125.0, 142.0, 158.0, 171.0, 183.0, 198.0, 217.0, 241.0, 264.0, 285.0, 300.0, 308.0, 315.0, 319.0, 324.0, 331.0, 338.0, 343.0, 358.0, 373.0, 386.0, 396.0, 400.0, 402.0, 402.0, 402.0, 402.0]	[0.01656796457245946, 0.022794220596551895, 0.03314616909483448, 0.05001109337899834, 0.06638347404077649, 0.08339278219500557, 0.09959961636923254, 0.11657820455729961, 0.13307756115682423, 0.14986124815186486, 0.16637152741895989, 0.18322109169093892, 0.19965320569463074, 0.21655738324625418, 0.23296219058101997, 0.24990562145831063, 0.26639985805377364, 0.2833371449378319, 0.29975697089685127, 0.31662564986618236, 0.3328526226687245, 0.3498185815406032, 0.3664408180047758, 0.38315419043647125, 0.39973478426691145, 0.41650652460521087, 0.4328403347171843, 0.44983633083757013, 0.4663438794086687, 0.48322825971990824, 0.4996825603302568, 0.5166311112116091, 0.5327625107602216, 0.5498581761494279, 0.5663029194693081, 0.5831190331373364, 0.5997102083056234, 0.6164597619790584, 0.6327253054478206, 0.6498438401613384, 0.6663247647811659, 0.6832135823788121, 0.6997569709201343, 0.716642375162337, 0.7327433961327188, 0.7498271148651838, 0.7663018954917789, 0.7831320037948899, 0.7993879899149761, 0.8164129993529059, 0.8329584359307773, 0.8498493015067652, 0.8663036021171138, 0.8832606863579713, 0.8997201069723815, 0.9166751431766897, 0.9327181374537759, 0.9497021869756281, 0.9661558049265295, 0.9832466916996054]
16	images/0291.jpg	images/0224.jpg	right	0.977	[0.0, 0.0, 0.0, 0.0, 0.0, 0.0, 0.0, 0.0, 0.0, 0.0, 0.0, 0.0, 0.0, 1.0, 1.0, 2.0, 4.0, 9.0, 17.0, 28.0, 47.0, 67.0, 95.0, 118.0, 136.0, 154.0, 177.0, 216.0, 273.0, 374.0, 437.0, 503.0, 577.0, 650.0, 721.0, 783.0, 829.0, 854.0, 871.0, 888.0, 903.0, 920.0, 929.0, 933.0, 933.0, 934.0, 936.0, 936.0, 937.0, 937.0, 937.0, 937.0, 937.0, 937.0, 937.0, 937.0, 937.0, 937.0, 937.0]	[-490.0, -491.0, -491.0, -491.0, -491.0, -491.0, -491.0, -491.0, -491.0, -491.0, -491.0, -491.0, -491.0, -490.0, -488.0, -485.0, -481.0, -470.0, -456.0, -437.0, -410.0, -380.0, -348.0, -321.0, -299.0, -278.0, -251.0, -205.0, -145.0, -55.0, -8.0, 41.0, 94.0, 143.0, 191.0, 234.0, 271.0, 294.0, 311.0, 332.0, 352.0, 377.0, 390.0, 396.0, 400.0, 405.0, 410.0, 414.0, 418.0, 421.0, 422.0, 423.0, 424.0, 424.0, 424.0, 424.0, 424.0, 424.0, 424.0]	[0.001625769305974245, 0.007072079344652593, 0.019685700593981892, 0.03669773938599974, 0.0529175442061387, 0.07002037763595581, 0.08635487034916878, 0.10978738369885832, 0.11946281010750681, 0.13632022502133623, 0.1530134588247165, 0.16987462842371315, 0.18634565436514094, 0.20316279202234, 0.21958125266246498, 0.23658168612746522, 0.25313224270939827, 0.2698756523896009, 0.28639548900537193, 0.30318497866392136, 0.31964269262971357, 0.33660455548670143, 0.3531455546617508, 0.3699169537285343, 0.3863398517132737, 0.4034020664403215, 0.4195413166889921, 0.4365891955094412, 0.4528861415456049, 0.4698442497756332, 0.4861422198591754, 0.5031573306769133, 0.519654297910165, 0.5366304967901669, 0.5531066427356564, 0.569866095087491, 0.5863142517046072, 0.603206482657697, 0.619631428620778, 0.6365154675440863, 0.6530394001165405, 0.6698162604589015, 0.6863954889704473, 0.7032283279695548, 0.7198096044594422, 0.7366421021288261, 0.7530540774459951, 0.7698544897721149, 0.7863190303905867, 0.8031163706909865, 0.8196839939337224, 0.8367192433797754, 0.8529905895120464, 0.8699852203135379, 0.8861067212419584, 0.9031836133217439, 0.9197085698833689, 0.9365857821539976, 0.953003901464399]
17	images/0431.jpg	images/0181.jpg	right	1.866	[0.0, 0.0, 0.0, 0.0, 0.0, 0.0, 0.0, 0.0, 0.0, 0.0, 0.0, -1.0, -1.0, -1.0, -1.0, -1.0, 0.0, 2.0, 9.0, 14.0, 23.0, 35.0, 46.0, 55.0, 62.0, 72.0, 82.0, 96.0, 107.0, 118.0, 135.0, 145.0, 156.0, 166.0, 176.0, 183.0, 192.0, 202.0, 210.0, 213.0, 213.0, 198.0, 172.0, 135.0, 89.0, 38.0, -2.0, -24.0, -34.0, -37.0, -38.0, -40.0, -40.0, -40.0, -40.0, -40.0, -41.0, -41.0, -41.0, -41.0, -41.0, -40.0, -16.0, 52.0, 156.0, 306.0, 571.0, 739.0, 871.0, 959.0, 959.0, 959.0, 959.0, 959.0, 959.0, 959.0, 959.0, 959.0, 959.0, 959.0, 959.0, 959.0, 957.0, 955.0, 950.0, 946.0, 940.0, 931.0, 923.0, 908.0, 900.0, 894.0, 889.0, 886.0, 883.0, 881.0, 880.0, 879.0, 878.0, 877.0, 876.0, 874.0, 866.0, 858.0, 854.0, 852.0, 851.0, 851.0, 851.0, 851.0, 851.0, 851.0]	[-490.0, -490.0, -490.0, -490.0, -490.0, -490.0, -490.0, -490.0, -490.0, -490.0, -490.0, -490.0, -489.0, -486.0, -484.0, -479.0, -470.0, -463.0, -448.0, -435.0, -420.0, -404.0, -388.0, -377.0, -367.0, -352.0, -337.0, -320.0, -304.0, -288.0, -264.0, -250.0, -235.0, -220.0, -206.0, -193.0, -178.0, -162.0, -144.0, -135.0, -120.0, -92.0, -70.0, -49.0, -27.0, -8.0, 8.0, 18.0, 22.0, 25.0, 26.0, 26.0, 27.0, 27.0, 27.0, 27.0, 28.0, 28.0, 28.0, 28.0, 28.0, 29.0, 40.0, 71.0, 113.0, 167.0, 245.0, 278.0, 296.0, 310.0, 320.0, 331.0, 336.0, 338.0, 341.0, 344.0, 345.0, 348.0, 348.0, 349.0, 349.0, 349.0, 351.0, 352.0, 354.0, 356.0, 357.0, 358.0, 359.0, 361.0, 361.0, 361.0, 361.0, 361.0, 361.0, 361.0, 361.0, 361.0, 361.0, 361.0, 361.0, 361.0, 358.0, 355.0, 353.0, 352.0, 352.0, 352.0, 352.0, 352.0, 352.0, 352.0]	[0.004635302757378668, 0.009362424025312066, 0.025685652799438685, 0.04264444363070652, 0.058662520663347095, 0.0806443685432896, 0.09201212419429794, 0.10910915490239859, 0.12552795693045482, 0.14250654506031424, 0.15896835504099727, 0.17567080480512232, 0.19223638001130894, 0.20907638693461195, 0.2253805010113865, 0.2424795797560364, 0.2588843870908022, 0.27567865542368963, 0.2922346733394079, 0.30908253096276894, 0.32542111969087273, 0.34242325980449095, 0.35893592837965116, 0.3756516901194118, 0.3921865453594364, 0.4091006215894595, 0.4255112315877341, 0.4424201878136955, 0.45887721912004054, 0.475731220736634, 0.4922445719712414, 0.5090965256094933, 0.5256013434845954, 0.5424908437416889, 0.5589721096912399, 0.5757008420769125, 0.592223750660196, 0.6090412296471186, 0.6255358075723052, 0.6423918571672402, 0.6588888244586997, 0.6756899194442667, 0.6921926893410273, 0.7090958429034799, 0.725609194196295, 0.7425836863694713, 0.7589314910583198, 0.7758387406356633, 0.7922609559609555, 0.8090774109587073, 0.8253245223895647, 0.8425027904449962, 0.8589171550702304, 0.875745898054447, 0.8922602732782252, 0.9091296349070035, 0.9253494397271425, 0.9423665985232219, 0.9588792670983821, 0.9759739085566252, 0.9922176066902466, 1.0090610269689932, 1.0253159890999086, 1.0424290624796413, 1.058910669758916, 1.0757267834269442, 1.0923698411788791, 1.109053858963307, 1.1255009915912524, 1.1425161024089903, 1.1589765470125712, 1.1757394127198495, 1.1922053186572157, 1.2090384989860468, 1.2253013117588125, 1.2423727425630204, 1.2589075977448374, 1.2757520420709625, 1.2923261505784467, 1.3090886749560013, 1.325307114457246, 1.3422768279560842, 1.358725325902924, 1.3757359993760474, 1.3922060013283044, 1.409041229635477, 1.425564479548484, 1.4424297451623715, 1.4589427550672553, 1.475718250090722, 1.4922694892738946, 1.50903303764062, 1.5256303568021394, 1.5424980117822997, 1.5589232990751043, 1.5757373647065833, 1.5922718786168844, 1.6091193949105218, 1.625331690418534, 1.6424983530887403, 1.6589325150707737, 1.67576808470767, 1.692278363974765, 1.7090644402778707, 1.7253275944385678, 1.7422556653036736, 1.7589871283853427, 1.775738047377672, 1.7922169240191579, 1.8090774109587073, 1.8255470715812407, 1.8425198570475914]
18	images/0093.jpg	images/0125.jpg	right	1.328	[0.0, 0.0, 0.0, 0.0, 0.0, 0.0, 0.0, 0.0, 0.0, 0.0, -1.0, -1.0, -1.0, -1.0, 0.0, 1.0, 1.0, 2.0, 2.0, 2.0, 2.0, 2.0, 3.0, 3.0, 3.0, 3.0, 3.0, 3.0, 3.0, 3.0, 3.0, 3.0, 4.0, 5.0, 5.0, 5.0, 5.0, 5.0, 5.0, 5.0, 5.0, 5.0, 5.0, 5.0, 5.0, 5.0, 6.0, 6.0, 6.0, 6.0, 6.0, 6.0, 6.0, 9.0, 12.0, 21.0, 52.0, 120.0, 217.0, 335.0, 449.0, 550.0, 630.0, 682.0, 729.0, 751.0, 769.0, 779.0, 786.0, 793.0, 799.0, 804.0, 808.0, 811.0, 811.0, 812.0, 813.0, 813.0, 813.0, 813.0]	[-490.0, -490.0, -490.0, -490.0, -490.0, -490.0, -490.0, -490.0, -490.0, -490.0, -490.0, -490.0, -488.0, -487.0, -485.0, -484.0, -483.0, -481.0, -481.0, -480.0, -480.0, -480.0, -479.0, -479.0, -479.0, -478.0, -478.0, -478.0, -478.0, -477.0, -476.0, -476.0, -474.0, -472.0, -472.0, -472.0, -472.0, -472.0, -472.0, -471.0, -471.0, -471.0, -471.0, -471.0, -470.0, -470.0, -470.0, -470.0, -470.0, -470.0, -469.0, -469.0, -467.0, -463.0, -457.0, -444.0, -406.0, -341.0, -259.0, -158.0, -44.0, 52.0, 139.0, 196.0, 260.0, 291.0, 314.0, 335.0, 355.0, 373.0, 390.0, 406.0, 415.0, 420.0, 422.0, 424.0, 425.0, 425.0, 425.0, 425.0]	[0.00098798843100667, 0.005184678186196834, 0.018349552294239402, 0.03559506288729608, 0.05178653710754588, 0.06880198925500736, 0.08509279135614634, 0.1020730861928314, 0.11839972826419398, 0.13532609248068184, 0.15173124114517123, 0.16857363743474707, 0.1850654847221449, 0.20202154491562396, 0.21839324291795492, 0.23525816720211878, 0.2517824411042966, 0.26864770671818405, 0.28505149006377906, 0.3019935555639677, 0.3183836856042035, 0.3352765991585329, 0.35171997715951875, 0.3685896801180206, 0.38487399683799595, 0.40199048357317224, 0.41839768027421087, 0.4352247165516019, 0.45176332647679374, 0.46856476279208437, 0.48510917532257736, 0.5020939075038768, 0.5183048376929946, 0.5352950311498716, 0.5518148677656427, 0.5686019680579193, 0.5848511275253259, 0.6019222169998102, 0.6184598028776236, 0.6353110737982206, 0.6517981424112804, 0.6686053813900799, 0.6848299648845568, 0.7017576944781467, 0.7184154295828193, 0.7352042365819216, 0.751759571779985, 0.7686395146884024, 0.7852006526081823, 0.8018966169911437, 0.8184007522650063, 0.8352916178409941, 0.8517978010931984, 0.8685961654409766, 0.8848374742083251, 0.9019280196516775, 0.9184270349214785, 0.9352472445461899, 0.9517486491240561, 0.9685470134718344, 0.9848402048810385, 1.0019611289608292, 1.0185041761724278, 1.035217207216192, 1.0517926811007783, 1.0685661280876957, 1.0850518313818611, 1.1020778648671694, 1.1184625335154124, 1.1352585085551254, 1.1514735347009264, 1.1685388214536943, 1.184862732887268, 1.2019778542453423, 1.2184362508705817, 1.2353062951588072, 1.2518367130542174, 1.2686562400194816, 1.2848504448775202, 1.3019177796668373]
19	images/0236.jpg	images/0287.jpg	left	1.401	[0.0, 3.0, 3.0, 3.0, 3.0, 3.0, 3.0, 3.0, 4.0, 5.0, 6.0, 6.0, 7.0, 8.0, 9.0, 10.0, 11.0, 12.0, 14.0, 18.0, 20.0, 23.0, 25.0, 27.0, 28.0, 30.0, 31.0, 33.0, 34.0, 35.0, 35.0, 37.0, 39.0, 41.0, 42.0, 44.0, 45.0, 46.0, 48.0, 51.0, 53.0, 62.0, 78.0, 108.0, 146.0, 163.0, 177.0, 189.0, 194.0, 202.0, 206.0, 215.0, 226.0, 235.0, 249.0, 265.0, 284.0, 291.0, 294.0, 295.0, 287.0, 253.0, 169.0, 70.0, -49.0, -181.0, -311.0, -422.0, -563.0, -641.0, -701.0, -711.0, -727.0, -730.0, -730.0, -730.0, -730.0, -730.0, -730.0, -731.0, -731.0, -731.0, -731.0, -731.0]	[-490.0, -491.0, -491.0, -491.0, -491.0, -491.0, -491.0, -491.0, -491.0, -491.0, -491.0, -491.0, -491.0, -491.0, -490.0, -489.0, -487.0, -482.0, -477.0, -466.0, -459.0, -451.0, -447.0, -443.0, -440.0, -437.0, -433.0, -429.0, -426.0, -425.0, -422.0, -417.0, -413.0, -409.0, -406.0, -404.0, -402.0, -399.0, -396.0, -391.0, -388.0, -377.0, -356.0, -323.0, -283.0, -265.0, -247.0, -234.0, -225.0, -218.0, -213.0, -202.0, -188.0, -177.0, -160.0, -141.0, -114.0, -102.0, -93.0, -84.0, -70.0, -46.0, -8.0, 25.0, 62.0, 102.0, 140.0, 170.0, 212.0, 234.0, 250.0, 253.0, 258.0, 258.0, 258.0, 258.0, 258.0, 258.0, 258.0, 260.0, 260.0, 260.0, 261.0, 262.0]	[0.0029890534351579845, 0.007619918789714575, 0.02226686099311337, 0.03906590800033882, 0.055554683262016624, 0.0724851434933953, 0.08891486813081428, 0.1056746618123725, 0.1220794691471383, 0.13903689465951174, 0.15557345654815435, 0.17248411948094144, 0.18903843068983406, 0.2057968590524979, 0.22228938894113526, 0.2391198385739699, 0.25541098206304014, 0.2724626155104488, 0.2889483187464066, 0.3056528164888732, 0.32230713829630986, 0.3390232413657941, 0.35540688602486625, 0.37222163437400013, 0.3889186227461323, 0.4057371257804334, 0.4220845891395584, 0.43902187602361664, 0.45545467268675566, 0.4724271168233827, 0.4889326174161397, 0.5056849017855711, 0.5222194156958722, 0.5390297267003916, 0.555407568695955, 0.5725537514081225, 0.5889496840536594, 0.6057118671014905, 0.6222317036590539, 0.6389996893703938, 0.6556342138210312, 0.6723919595242478, 0.6889838174101897, 0.7056473551783711, 0.7222617410006933, 0.7389689693809487, 0.7555417125695385, 0.7723591915564612, 0.7887592202168889, 0.8056770511320792, 0.822190061036963, 0.8389266441226937, 0.8553358887438662, 0.8722707863198593, 0.8888933641137555, 0.905677733826451, 0.9222265837015584, 0.938940980064217, 0.955501435266342, 0.9725216660881415, 0.9889032627688721, 1.00563745648833, 1.0222323863417841, 1.0389805746963248, 1.0555280592525378, 1.0724308714852668, 1.0888083722093143, 1.1056811471353285, 1.1221764077199623, 1.145535193150863, 1.155576869903598, 1.1789988019154407, 1.1888551348238252, 1.2056712484918535, 1.2221429570927285, 1.2390054920106195, 1.2555051899398677, 1.27241824218072, 1.288670132344123, 1.3057026510941796, 1.322164119745139, 1.3389914973522536, 1.3554638886707835, 1.3758308899705298]
20	images/0572.jpg	images/0017.jpg	right	1.598	[0.0, 0.0, 0.0, 0.0, 0.0, 0.0, 0.0, 0.0, 0.0, 0.0, 0.0, 0.0, 0.0, 0.0, 0.0, 0.0, 0.0, 0.0, 0.0, 0.0, 0.0, 0.0, 0.0, 0.0, 0.0, 0.0, 0.0, 0.0, 0.0, 0.0, 0.0, 0.0, 0.0, 0.0, 0.0, 0.0, 0.0, 0.0, 0.0, 0.0, 0.0, 0.0, 0.0, 0.0, 0.0, 3.0, 19.0, 50.0, 84.0, 112.0, 143.0, 161.0, 173.0, 184.0, 195.0, 207.0, 228.0, 254.0, 306.0, 387.0, 500.0, 621.0, 745.0, 842.0, 910.0, 939.0, 946.0, 946.0, 946.0, 946.0, 946.0, 946.0, 947.0, 947.0, 947.0, 947.0, 947.0, 947.0, 947.0, 947.0, 947.0, 947.0, 942.0, 936.0, 929.0, 924.0, 918.0, 916.0, 916.0, 916.0, 916.0, 916.0, 916.0, 916.0, 916.0, 916.0]	[-490.0, -490.0, -490.0, -490.0, -490.0, -490.0, -490.0, -490.0, -490.0, -490.0, -490.0, -490.0, -490.0, -490.0, -490.0, -490.0, -490.0, -490.0, -490.0, -490.0, -490.0, -490.0, -490.0, -490.0, -490.0, -490.0, -490.0, -490.0, -490.0, -490.0, -490.0, -490.0, -490.0, -490.0, -490.0, -489.0, -489.0, -489.0, -489.0, -489.0, -488.0, -487.0, -487.0, -487.0, -486.0, -478.0, -443.0, -385.0, -329.0, -276.0, -234.0, -212.0, -194.0, -178.0, -164.0, -148.0, -123.0, -99.0, -60.0, -11.0, 39.0, 89.0, 122.0, 149.0, 157.0, 159.0, 160.0, 160.0, 160.0, 160.0, 160.0, 160.0, 160.0, 160.0, 160.0, 160.0, 160.0, 160.0, 160.0, 160.0, 160.0, 163.0, 175.0, 197.0, 228.0, 264.0, 300.0, 335.0, 358.0, 374.0, 383.0, 387.0, 387.0, 387.0, 387.0, 387.0]	[0.003988647251389921, 0.007606436149217188, 0.02430547255789861, 0.04097276501124725, 0.05798958247760311, 0.07434353121789172, 0.09134294069372118, 0.10767640941776335, 0.12453348306007683, 0.14099768234882504, 0.15824285161215812, 0.1743520645541139, 0.19133201806107536, 0.20769620675127953, 0.2246529496042058, 0.24100997031200677, 0.2578646545880474, 0.274305984552484, 0.2912716020946391, 0.30761940678348765, 0.32457102969055995, 0.34107141027925536, 0.35790015320526436, 0.3743189552333206, 0.39128901006188244, 0.40768391877645627, 0.4247089282143861, 0.4410062156384811, 0.45789673988474533, 0.47430939791956916, 0.4912736500846222, 0.50746375892777, 0.5245618136832491, 0.5408826530911028, 0.5578868412412703, 0.5741363420384005, 0.5909715703455731, 0.6077740306500345, 0.6246232536504976, 0.6410778955905698, 0.6578827452613041, 0.6741370247327723, 0.6912439541192725, 0.7076794814202003, 0.724598677654285, 0.7409966583363712, 0.7580008464865386, 0.7743619632092305, 0.7914040393079631, 0.8077566226711497, 0.8248065494699404, 0.8408860664349049, 0.8578694332391024, 0.8741824220051058, 0.8912398581160232, 0.907523492234759, 0.9245058350497857, 0.9408454477670603, 0.9578380305902101, 0.9743141765356995, 0.991201970144175, 1.0077583293314092, 1.0244727257522754, 1.0409874423057772, 1.0578236946603283, 1.074188224680256, 1.0911418955074623, 1.1076467134407721, 1.1246232536504976, 1.141072092927061, 1.1579011772410013, 1.1743295365595259, 1.1913224607123993, 1.2077156627201475, 1.2246410029474646, 1.2410481995902956, 1.2578813799191266, 1.274431936442852, 1.291205383487977, 1.307694158749655, 1.3245536217000335, 1.341062194260303, 1.35784861195134, 1.3741745713632554, 1.3913258740212768, 1.4077794920303859, 1.424646805622615, 1.4410034850006923, 1.457801849290263, 1.4743285125587136, 1.491142236860469, 1.5077095187152736, 1.524503787048161, 1.5410410315962508, 1.55784349195892, 1.574455829744693]
21	images/0555.jpg	images/0160.jpg	left	1.225	[0.0, 0.0, 0.0, 0.0, 0.0, 0.0, 0.0, 0.0, 0.0, 0.0, 0.0, 0.0, 0.0, 0.0, 0.0, 0.0, 0.0, 0.0, 0.0, 0.0, 0.0, 0.0, 0.0, 0.0, 0.0, 0.0, 0.0, 0.0, 0.0, 0.0, 0.0, 0.0, 0.0, 0.0, 0.0, 0.0, 0.0, 0.0, 0.0, 0.0, 0.0, 0.0, 0.0, 0.0, 0.0, 16.0, 30.0, 31.0, 28.0, 19.0, 2.0, -33.0, -91.0, -179.0, -289.0, -393.0, -497.0, -660.0, -751.0, -818.0, -853.0, -867.0, -870.0, -871.0, -871.0, -871.0, -869.0, -866.0, -862.0, -859.0, -854.0, -854.0, -854.0, -854.0]	[-490.0, -490.0, -490.0, -490.0, -490.0, -490.0, -490.0, -490.0, -490.0, -490.0, -490.0, -490.0, -490.0, -490.0, -490.0, -490.0, -490.0, -490.0, -490.0, -490.0, -490.0, -490.0, -490.0, -490.0, -490.0, -490.0, -490.0, -490.0, -490.0, -490.0, -490.0, -490.0, -490.0, -490.0, -490.0, -490.0, -490.0, -490.0, -490.0, -490.0, -490.0, -490.0, -490.0, -490.0, -488.0, -458.0, -409.0, -370.0, -336.0, -310.0, -275.0, -217.0, -144.0, -75.0, -13.0, 49.0, 106.0, 199.0, 252.0, 290.0, 314.0, 326.0, 330.0, 332.0, 336.0, 342.0, 346.0, 351.0, 356.0, 360.0, 364.0, 364.0, 364.0, 364.0]	[0.0024780778912827373, 0.012966900947503746, 0.02117049926891923, 0.038212234096135944, 0.05441019358113408, 0.0714877683785744, 0.08783215977018699, 0.10485853452701122, 0.12120258458890021, 0.1381122235325165, 0.15453990013338625, 0.17149391234852374, 0.1876519359066151, 0.20472302532289177, 0.22106536873616278, 0.23810403153765947, 0.2544948441791348, 0.2714730910374783, 0.2878994023776613, 0.30477422528201714, 0.32125788053963333, 0.3381016422063112, 0.35426512703998014, 0.3712990111671388, 0.3878301117219962, 0.4047711532912217, 0.4211442166706547, 0.43802518356824294, 0.45451839617453516, 0.4713775177951902, 0.4876150719355792, 0.5044936495251022, 0.5209472674760036, 0.5380483941989951, 0.5544975748634897, 0.5713942431029864, 0.5876631998689845, 0.6046404227381572, 0.6210445474134758, 0.6381204155040905, 0.6544081455795094, 0.6713683017878793, 0.6879318290157244, 0.7047144920215942, 0.7211414859630167, 0.7380917435511947, 0.7544849455589429, 0.7713607924524695, 0.7876027839374729, 0.8045305134728551, 0.8212360352627002, 0.8380647781887092, 0.854514641512651, 0.8713143711793236, 0.8876119999331422, 0.9046946946764365, 0.9211885899421759, 0.937986271630507, 0.9544781188596971, 0.9714150644140318, 0.9880226235836744, 1.0048889131867327, 1.0211926859337837, 1.0380873061949387, 1.054469244205393, 1.0713529417989776, 1.0876154132420197, 1.1046943533583544, 1.121012803458143, 1.1379736422677524, 1.1542101724189706, 1.171389464463573, 1.1877048425376415, 1.2046926466864534]
22	images/0344.jpg	images/0332.jpg	right	1.257	[0.0, 0.0, 0.0, 0.0, 0.0, 0.0, -1.0, -1.0, -1.0, -1.0, -1.0, -1.0, -1.0, -1.0, -1.0, -1.0, -1.0, -1.0, -1.0, -1.0, -1.0, -1.0, -1.0, -1.0, -1.0, -1.0, -1.0, -1.0, -1.0, -1.0, -1.0, -1.0, -1.0, -1.0, -1.0, -1.0, -1.0, -1.0, -1.0, -1.0, -1.0, -1.0, -1.0, -1.0, -1.0, -1.0, -1.0, -1.0, 0.0, 21.0, 43.0, 68.0, 107.0, 179.0, 284.0, 407.0, 530.0, 610.0, 661.0, 706.0, 788.0, 862.0, 929.0, 959.0, 959.0, 959.0, 959.0, 959.0, 959.0, 959.0, 959.0, 959.0, 959.0, 959.0, 959.0, 959.0]	[-490.0, -490.0, -490.0, -490.0, -490.0, -490.0, -490.0, -490.0, -490.0, -490.0, -490.0, -490.0, -490.0, -490.0, -490.0, -490.0, -490.0, -490.0, -490.0, -490.0, -490.0, -490.0, -490.0, -490.0, -490.0, -490.0, -490.0, -490.0, -490.0, -490.0, -490.0, -490.0, -490.0, -490.0, -490.0, -490.0, -490.0, -490.0, -490.0, -490.0, -490.0, -490.0, -490.0, -490.0, -490.0, -490.0, -490.0, -490.0, -488.0, -476.0, -456.0, -423.0, -371.0, -294.0, -204.0, -107.0, -15.0, 56.0, 98.0, 132.0, 201.0, 258.0, 302.0, 330.0, 358.0, 377.0, 396.0, 410.0, 419.0, 429.0, 432.0, 433.0, 433.0, 433.0, 433.0, 433.0]	[0.008925005735363811, 0.01272370119113475, 0.01780785684240982, 0.034569357172586024, 0.05080110870767385, 0.0678250941564329, 0.0841677788994275, 0.10107571113621816, 0.11752045439789072, 0.14088435983285308, 0.15086186595726758, 0.16771040624007583, 0.18410838692216203, 0.2010992630966939, 0.2175030464422889, 0.23442258400609717, 0.25081749266246334, 0.2677435155492276, 0.284148664213717, 0.30107571108965203, 0.3172589932801202, 0.33440790668828413, 0.3508557219756767, 0.36768480628961697, 0.38424901611870155, 0.401151487021707, 0.4175709717092104, 0.4342976561165415, 0.45061371685005724, 0.4677042622352019, 0.48432274407241493, 0.5011542176944204, 0.5175641450332478, 0.5344263386796229, 0.5508782499236986, 0.5677657022024505, 0.5839564937050454, 0.6011620683711953, 0.6173869931953959, 0.6343891333672218, 0.6507768740411848, 0.6676854889374226, 0.6839766323682852, 0.700849748624023, 0.7173187265871093, 0.7343887920142151, 0.7508891726029105, 0.767811099474784, 0.783943523070775, 0.8011303244275041, 0.817485979758203, 0.8344399919733405, 0.8508632312878035, 0.8678339688340202, 0.8841623175540008, 0.9010258764610626, 0.9174784704227932, 0.9343601200380363, 0.950590506196022, 0.9676448702812195, 0.9841752881766297, 1.0010217804810964, 1.0174859797698446, 1.0343454427202232, 1.0506198608200066, 1.0677581928903237, 1.0840575282927603, 1.1010647884686477, 1.1174723264412023, 1.1343993733171374, 1.150908287265338, 1.1677824275102466, 1.1842841734178364, 1.2010699084494263, 1.2175504917395301, 1.2343133573886007]
23	images/0593.jpg	images/0444.jpg	right	0.944	[0.0, 0.0, 0.0, 0.0, 0.0, 0.0, 0.0, 0.0, 0.0, 0.0, 0.0, 0.0, 0.0, 0.0, 0.0, 0.0, 0.0, -1.0, -1.0, -1.0, -1.0, -1.0, -1.0, -1.0, -1.0, -1.0, -1.0, -2.0, -4.0, -4.0, -4.0, -4.0, -4.0, -4.0, -5.0, -5.0, -5.0, -5.0, -3.0, 56.0, 109.0, 159.0, 213.0, 281.0, 354.0, 441.0, 509.0, 554.0, 575.0, 583.0, 591.0, 593.0, 593.0, 593.0, 593.0, 593.0, 593.0]	[-490.0, -490.0, -490.0, -490.0, -490.0, -490.0, -490.0, -490.0, -490.0, -490.0, -490.0, -490.0, -490.0, -490.0, -490.0, -490.0, -490.0, -490.0, -490.0, -490.0, -490.0, -490.0, -490.0, -490.0, -490.0, -490.0, -490.0, -490.0, -490.0, -490.0, -490.0, -490.0, -490.0, -490.0, -489.0, -489.0, -485.0, -468.0, -451.0, -350.0, -259.0, -163.0, -45.0, 81.0, 191.0, 289.0, 369.0, 423.0, 451.0, 470.0, 494.0, 499.0, 500.0, 500.0, 500.0, 500.0, 500.0]	[0.0019384304177947342, 0.0078318867017515, 0.020689902419690043, 0.03713054972467944, 0.05424737778957933, 0.07031699607614428, 0.08740856545045972, 0.1036321249557659, 0.1208936782204546, 0.13695305649889633, 0.1540050312760286, 0.17043748660944402, 0.1872703256085515, 0.20355839701369405, 0.22060695849359035, 0.23715751501731575, 0.25397806597175077, 0.2705108732334338, 0.28725598962046206, 0.303521191701293, 0.32054347050143406, 0.33723704563453794, 0.35404530860250816, 0.37052828120067716, 0.3873775041429326, 0.40379016217775643, 0.42072028102120385, 0.4371503470465541, 0.4540558899170719, 0.4704897105693817, 0.48734439484542236, 0.5035334796993993, 0.520501145219896, 0.5371267950395122, 0.5540210739709437, 0.5705026812502183, 0.5873218668857589, 0.6035464503802359, 0.6206632784451358, 0.637127477733884, 0.6540671539260074, 0.6704709372716025, 0.6873874028096907, 0.7036829835851677, 0.7205950118368492, 0.7370424857945181, 0.7538855647435412, 0.7703739986754954, 0.787281930912286, 0.8036942475591786, 0.8205854544648901, 0.8370865177130327, 0.8540217566187494, 0.8703866279684007, 0.8872573549160734, 0.9035147064132616, 0.9205137745593674]
24	images/0494.jpg	images/0190.jpg	right	1.066	[0.0, 0.0, 0.0, 0.0, 0.0, 0.0, 0.0, 0.0, 0.0, 0.0, 0.0, 0.0, 0.0, 0.0, 4.0, 12.0, 24.0, 48.0, 99.0, 168.0, 224.0, 298.0, 374.0, 453.0, 525.0, 619.0, 662.0, 687.0, 699.0, 705.0, 707.0, 708.0, 712.0, 715.0, 719.0, 720.0, 720.0, 720.0, 720.0, 717.0, 714.0, 714.0, 714.0, 714.0, 714.0, 714.0, 714.0, 714.0, 714.0, 714.0, 714.0, 714.0, 714.0, 714.0, 714.0, 714.0, 714.0, 714.0, 714.0, 714.0, 714.0, 714.0, 714.0, 714.0]	[-490.0, -490.0, -490.0, -490.0, -490.0, -490.0, -489.0, -488.0, -487.0, -485.0, -482.0, -480.0, -478.0, -475.0, -468.0, -458.0, -444.0, -421.0, -377.0, -325.0, -277.0, -205.0, -119.0, -33.0, 46.0, 133.0, 171.0, 195.0, 212.0, 222.0, 230.0, 238.0, 249.0, 260.0, 273.0, 278.0, 282.0, 283.0, 290.0, 297.0, 301.0, 301.0, 301.0, 301.0, 301.0, 301.0, 301.0, 301.0, 301.0, 301.0, 301.0, 301.0, 301.0, 301.0, 301.0, 301.0, 301.0, 301.0, 301.0, 301.0, 301.0, 301.0, 301.0, 301.0]	[0.004038652579765767, 0.008661325962748379, 0.02441691787680611, 0.041393799416255206, 0.05773170542670414, 0.07462530169868842, 0.09089835447957739, 0.10782574268523604, 0.12430905661312863, 0.1411309729446657, 0.15765388152794912, 0.17451061378233135, 0.19093999709002674, 0.2078042387147434, 0.2243189552682452, 0.24113267962820828, 0.25761394551955163, 0.27456010709283873, 0.2908881144830957, 0.3077878547483124, 0.3241912967641838, 0.3411647648899816, 0.357656953507103, 0.37450685910880566, 0.3909563811030239, 0.4077998013817705, 0.42431793129071593, 0.4412333728396334, 0.4576764095108956, 0.4746126723475754, 0.4908952824771404, 0.5079837798839435, 0.5241045981529169, 0.5413555700797588, 0.5575941482093185, 0.5748963201185688, 0.5907413412933238, 0.6078114067204297, 0.6242793606361374, 0.6411507702432573, 0.6573531671310775, 0.6745150511269458, 0.6909359011333436, 0.708045219827909, 0.7244534405181184, 0.7411227809498087, 0.7574316737009212, 0.7747618349385448, 0.7909198584384285, 0.8078339346684515, 0.8240277981967665, 0.8411507702548988, 0.8574101697304286, 0.8744416645495221, 0.8907266639871523, 0.907917219970841, 0.9243117872974835, 0.9412634101463482, 0.9573524844599888, 0.9744218672276475, 0.990963549062144, 1.007820964034181, 1.0240708061610349, 1.041188316885382]
25	images/0296.jpg	images/0334.jpg	right	1.98	[0.0, 0.0, 0.0, 0.0, 0.0, 0.0, 0.0, 0.0, -1.0, -1.0, -3.0, -4.0, -4.0, -4.0, -4.0, -4.0, -4.0, -3.0, 1.0, 4.0, 12.0, 42.0, 140.0, 180.0, 257.0, 348.0, 508.0, 614.0, 710.0, 771.0, 803.0, 815.0, 819.0, 820.0, 819.0, 813.0, 801.0, 777.0, 699.0, 611.0, 505.0, 375.0, 221.0, 51.0, -114.0, -249.0, -355.0, -434.0, -497.0, -551.0, -603.0, -614.0, -615.0, -615.0, -615.0, -615.0, -599.0, -538.0, -510.0, -453.0, -420.0, -405.0, -405.0, -404.0, -405.0, -406.0, -407.0, -409.0, -416.0, -431.0, -457.0, -491.0, -538.0, -614.0, -672.0, -729.0, -778.0, -810.0, -826.0, -830.0, -830.0, -830.0, -830.0, -830.0, -830.0, -830.0, -830.0, -830.0, -830.0, -830.0, -830.0, -819.0, -721.0, -578.0, -436.0, -274.0, -102.0, 186.0, 270.0, 459.0, 524.0, 552.0, 570.0, 578.0, 578.0, 578.0, 583.0, 590.0, 602.0, 612.0, 614.0, 614.0, 619.0, 648.0, 708.0, 782.0, 821.0, 836.0, 838.0]	[-490.0, -490.0, -490.0, -490.0, -490.0, -490.0, -490.0, -490.0, -489.0, -488.0, -482.0, -480.0, -475.0, -470.0, -456.0, -448.0, -440.0, -428.0, -418.0, -407.0, -388.0, -350.0, -231.0, -186.0, -78.0, 30.0, 171.0, 243.0, 304.0, 346.0, 370.0, 382.0, 387.0, 393.0, 401.0, 408.0, 417.0, 429.0, 451.0, 470.0, 490.0, 508.0, 530.0, 540.0, 540.0, 540.0, 540.0, 540.0, 540.0, 540.0, 540.0, 540.0, 540.0, 539.0, 536.0, 533.0, 530.0, 528.0, 528.0, 528.0, 524.0, 520.0, 520.0, 519.0, 517.0, 515.0, 513.0, 512.0, 504.0, 493.0, 479.0, 466.0, 451.0, 437.0, 429.0, 421.0, 415.0, 415.0, 414.0, 414.0, 413.0, 413.0, 413.0, 413.0, 413.0, 413.0, 413.0, 413.0, 413.0, 413.0, 413.0, 413.0, 428.0, 449.0, 461.0, 481.0, 503.0, 518.0, 518.0, 518.0, 518.0, 518.0, 522.0, 523.0, 523.0, 523.0, 525.0, 526.0, 526.0, 526.0, 526.0, 526.0, 526.0, 523.0, 517.0, 503.0, 490.0, 486.0, 485.0]	[0.00662237306823954, 0.013621748425066471, 0.029623782727867365, 0.04637401911895722, 0.06293208501301706, 0.07950824149884284, 0.09624960325891152, 0.11319166875910014, 0.12973369198152795, 0.14617399795679376, 0.1631013861624524, 0.17949766019592062, 0.19618304329924285, 0.21287559438496828, 0.22970092401374131, 0.24625967256724834, 0.2630583782447502, 0.27949731884291396, 0.29622127261245623, 0.31284282641718164, 0.32957394811091945, 0.34888076898641884, 0.3627361598191783, 0.38034962746314704, 0.39609395537991077, 0.41344698588363826, 0.42945618822705, 0.4466460615512915, 0.4631051408359781, 0.48011479031993076, 0.49628510186448693, 0.5132162447553128, 0.5296070574549958, 0.5464730057283305, 0.5626279572607018, 0.5798570839106105, 0.5959755128133111, 0.6131264741416089, 0.6294394629076123, 0.646444333717227, 0.6626262505888008, 0.6801424383302219, 0.6961400353466161, 0.7135435831150971, 0.7293729029479437, 0.7464518430642784, 0.7626549225533381, 0.7798041772912256, 0.7959953101235442, 0.8131274981424212, 0.8293309190194122, 0.8464327284018509, 0.8626996371895075, 0.8797645826125517, 0.8959523021476343, 0.9130114449071698, 0.92931726569077, 0.9464003017637879, 0.9625989439664409, 0.9798652759054676, 0.9960273954202421, 1.01316675147973, 1.0293756336322986, 1.0464617417310365, 1.0654084561974742, 1.07980759057682, 1.0976156180840917, 1.1130882448633201, 1.1307102458085865, 1.1463269151863642, 1.1637615243089385, 1.179708945332095, 1.196772525436245, 1.212962292949669, 1.2315301278140396, 1.2463043871684931, 1.262888394354377, 1.2796444334089756, 1.2960082807694562, 1.3130121275899, 1.3294322949368507, 1.3462043766048737, 1.3627696104813367, 1.3793399643036537, 1.39609293139074, 1.4129462503478862, 1.4294425349216908, 1.4463118964922614, 1.4627907731337473, 1.4794744495302439, 1.4967121094814502, 1.5127974291099235, 1.5296937560196966, 1.5460596514167264, 1.5630761275533587, 1.5794382682652213, 1.5965404189773835, 1.6127636371529661, 1.6297668013139628, 1.6461354273487814, 1.6631583888083696, 1.6796901720226742, 1.6965919602662325, 1.7126503145555034, 1.7296012547449209, 1.7459784141392447, 1.7630307302461006, 1.7793488390161656, 1.7964492830797099, 1.812674549233634, 1.8297562199877575, 1.8462292939075269, 1.8632280207239091, 1.8796642307424918, 1.896511405648198, 1.915754055895377, 1.9297381293145008, 1.9483991480665281, 1.963152927462943]
26	images/0525.jpg	images/0238.jpg	right	0.866	[0.0, 0.0, 0.0, 1.0, 1.0, 2.0, 4.0, 4.0, 4.0, 6.0, 6.0, 6.0, 6.0, 6.0, 7.0, 7.0, 7.0, 7.0, 7.0, 7.0, 18.0, 46.0, 95.0, 168.0, 318.0, 371.0, 533.0, 616.0, 686.0, 723.0, 743.0, 749.0, 750.0, 751.0, 751.0, 751.0, 751.0, 753.0, 760.0, 766.0, 769.0, 769.0, 769.0, 769.0, 769.0, 769.0, 769.0, 769.0, 769.0, 769.0, 769.0, 769.0]	[-490.0, -490.0, -490.0, -490.0, -490.0, -489.0, -488.0, -488.0, -488.0, -486.0, -486.0, -483.0, -481.0, -479.0, -476.0, -470.0, -460.0, -441.0, -417.0, -388.0, -342.0, -278.0, -190.0, -79.0, 94.0, 147.0, 282.0, 326.0, 359.0, 374.0, 384.0, 387.0, 387.0, 389.0, 390.0, 390.0, 393.0, 395.0, 400.0, 402.0, 405.0, 405.0, 405.0, 405.0, 405.0, 405.0, 405.0, 405.0, 405.0, 405.0, 405.0, 405.0]	[0.005095078377053142, 0.009368568076752126, 0.02687144378433004, 0.04309636860853061, 0.060265420645009726, 0.07645143347326666, 0.09362116816919297, 0.11008536745794117, 0.12707351293647662, 0.14303970732726157, 0.16010977275436744, 0.17641183885280043, 0.19349077891092747, 0.20971775177167729, 0.22666425461648032, 0.24304892332293093, 0.2601428820635192, 0.2763800948741846, 0.29343957896344364, 0.30971536244032905, 0.3267898651538417, 0.3430478993104771, 0.360096802120097, 0.37646611081436276, 0.3933450297336094, 0.40977134101558477, 0.42673866520635784, 0.44314961653435603, 0.4601097727427259, 0.4769067717716098, 0.49340578698320314, 0.512626591953449, 0.52680351852905, 0.5451143295504153, 0.5601548287086189, 0.5781137254089117, 0.5933969123288989, 0.6107335588894784, 0.6266881479532458, 0.6432359738391824, 0.6597619543899782, 0.6764603081392124, 0.6934228536556475, 0.7100464554969221, 0.7266666439827532, 0.7432496271212585, 0.7600394581677392, 0.7764080842025578, 0.7932105445070192, 0.8099669248913415, 0.8267116998904385, 0.8433284750790335]
27	images/0388.jpg	images/0346.jpg	right	1.238	[0.0, 0.0, 0.0, 0.0, 0.0, 0.0, 0.0, 0.0, 0.0, 0.0, 0.0, 0.0, 0.0, 0.0, 0.0, 0.0, 0.0, 0.0, 0.0, 0.0, 0.0, 0.0, 0.0, 0.0, 0.0, 0.0, 0.0, 0.0, 0.0, 0.0, 0.0, 0.0, 0.0, 0.0, 0.0, 0.0, 0.0, 0.0, 0.0, 0.0, 0.0, 0.0, 0.0, 0.0, 0.0, 0.0, 0.0, 0.0, 0.0, 1.0, 10.0, 36.0, 82.0, 150.0, 235.0, 330.0, 420.0, 509.0, 575.0, 633.0, 674.0, 703.0, 712.0, 718.0, 722.0, 724.0, 724.0, 724.0, 724.0, 725.0, 731.0, 741.0, 748.0, 750.0, 750.0]	[-490.0, -491.0, -491.0, -491.0, -491.0, -491.0, -491.0, -491.0, -491.0, -491.0, -491.0, -491.0, -491.0, -491.0, -491.0, -491.0, -491.0, -491.0, -491.0, -491.0, -491.0, -491.0, -491.0, -491.0, -491.0, -491.0, -491.0, -491.0, -491.0, -491.0, -491.0, -491.0, -491.0, -491.0, -491.0, -491.0, -491.0, -491.0, -491.0, -491.0, -491.0, -491.0, -491.0, -491.0, -491.0, -491.0, -491.0, -491.0, -489.0, -485.0, -470.0, -427.0, -359.0, -266.0, -164.0, -56.0, 61.0, 175.0, 265.0, 323.0, 359.0, 386.0, 397.0, 405.0, 414.0, 418.0, 418.0, 418.0, 418.0, 419.0, 427.0, 439.0, 447.0, 449.0, 449.0]	[0.008022862486541271, 0.012320586829446256, 0.01692482823273167, 0.0321745645487681, 0.049212203361094, 0.06563339463900775, 0.08272598806070164, 0.09885397431207821, 0.11593359708786011, 0.1324298816616647, 0.14921561669325456, 0.16574739990755916, 0.1826628414564766, 0.19902771280612797, 0.21592233306728303, 0.23234864440746605, 0.2491664647241123, 0.2657774371909909, 0.28263690014136955, 0.29907276877202094, 0.315885127754882, 0.33238619106123224, 0.34934122720733285, 0.3657108772895299, 0.3825379135669209, 0.3990198621759191, 0.41583938914118335, 0.43232202040962875, 0.449206059332937, 0.4657661732053384, 0.48253518290584907, 0.49897207552567124, 0.5158762531355023, 0.5323305537458509, 0.5492613553069532, 0.5654825254459865, 0.5824321003165096, 0.5988382729701698, 0.6158376825042069, 0.6321981165092438, 0.6492125446675345, 0.6656412453157827, 0.6825894548674114, 0.6989877768792212, 0.7158861517673358, 0.7323336257250048, 0.7492606726591475, 0.7656794746289961, 0.7824693056172691, 0.7989802675438114, 0.8159547597169876, 0.8323950656922534, 0.8492681819479913, 0.8657511545461603, 0.8827939133625478, 0.8989369182381779, 0.915799111884553, 0.9322936898097396, 0.9491292593884282, 0.9655763920745812, 0.982446436304599, 0.9989341875771061, 1.0158035492058843, 1.0322414658148773, 1.0492128860205412, 1.0655811707256362, 1.0824587243259884, 1.098993920837529, 1.1157547385664657, 1.131998436700087, 1.1490917127812281, 1.1657340879319236, 1.182460772281047, 1.198953302227892, 1.215872157132253]
28	images/0265.jpg	images/0306.jpg	right	0.896	[0.0, 0.0, 0.0, 0.0, 1.0, 1.0, 1.0, 1.0, 2.0, 2.0, 2.0, 2.0, 2.0, 2.0, 3.0, 3.0, 3.0, 3.0, 3.0, 3.0, 3.0, 3.0, 5.0, 5.0, 5.0, 5.0, 6.0, 13.0, 28.0, 85.0, 157.0, 250.0, 346.0, 443.0, 527.0, 618.0, 694.0, 762.0, 819.0, 852.0, 870.0, 878.0, 880.0, 881.0, 881.0, 881.0, 881.0, 881.0, 881.0, 881.0, 881.0, 881.0, 881.0, 881.0]	[-490.0, -490.0, -490.0, -490.0, -489.0, -489.0, -489.0, -489.0, -489.0, -488.0, -488.0, -488.0, -488.0, -488.0, -488.0, -488.0, -488.0, -487.0, -486.0, -486.0, -485.0, -484.0, -483.0, -481.0, -477.0, -472.0, -462.0, -446.0, -425.0, -355.0, -271.0, -174.0, -78.0, 11.0, 93.0, 184.0, 258.0, 320.0, 370.0, 393.0, 409.0, 421.0, 425.0, 428.0, 428.0, 428.0, 428.0, 429.0, 430.0, 431.0, 432.0, 432.0, 432.0, 432.0]	[0.002363731327932328, 0.008211449021473527, 0.021378371107857674, 0.03780809574527666, 0.05464161740383133, 0.07106315006967634, 0.08786014904035255, 0.10413149517262354, 0.1211360246525146, 0.13750226132106036, 0.1546627800562419, 0.1710972833679989, 0.1879014503210783, 0.20453085482586175, 0.2214087497559376, 0.2377517758286558, 0.25466073205461726, 0.2710993313230574, 0.28788199432892725, 0.3042031751247123, 0.3212715338449925, 0.3374449174152687, 0.3546856493339874, 0.37108636071207, 0.38801409024745226, 0.40435711632017046, 0.4213329738122411, 0.43772242113482207, 0.45472524396609515, 0.47104267007671297, 0.4879335356527008, 0.5041482204687782, 0.5212087286054157, 0.5377220798400231, 0.5546562946983613, 0.5708057849551551, 0.5879007676849142, 0.6042007857467979, 0.6212834805482998, 0.637715594493784, 0.6545740334549919, 0.671065880684182, 0.6878891623346135, 0.7043738416396081, 0.7212298912345432, 0.7377527998178266, 0.7546283053816296, 0.7711191286798567, 0.7879973649396561, 0.8043417563312687, 0.8213319497881457, 0.8377787410863675, 0.8546477613854222, 0.871084995334968]
29	images/0150.jpg	images/0223.jpg	right	0.983	[0.0, 0.0, 0.0, 0.0, 0.0, 0.0, 0.0, 0.0, 0.0, 0.0, 0.0, 0.0, 0.0, 0.0, 1.0, 1.0, 1.0, 1.0, 1.0, 1.0, 1.0, 1.0, 1.0, 1.0, 1.0, 1.0, 1.0, 1.0, 1.0, 1.0, 1.0, 1.0, 1.0, 1.0, 2.0, 5.0, 11.0, 21.0, 33.0, 71.0, 132.0, 193.0, 254.0, 318.0, 387.0, 458.0, 518.0, 564.0, 596.0, 616.0, 632.0, 641.0, 653.0, 660.0, 665.0, 670.0, 675.0, 678.0, 678.0, 678.0]	[-490.0, -490.0, -490.0, -490.0, -490.0, -490.0, -490.0, -490.0, -490.0, -490.0, -490.0, -490.0, -490.0, -489.0, -489.0, -489.0, -489.0, -489.0, -489.0, -489.0, -489.0, -489.0, -489.0, -489.0, -489.0, -489.0, -489.0, -489.0, -489.0, -489.0, -489.0, -489.0, -489.0, -482.0, -473.0, -462.0, -449.0, -431.0, -411.0, -358.0, -283.0, -199.0, -126.0, -60.0, -8.0, 42.0, 87.0, 126.0, 154.0, 177.0, 199.0, 211.0, 228.0, 236.0, 241.0, 246.0, 251.0, 254.0, 254.0, 254.0]	[0.006229328049812466, 0.011000822589267045, 0.014536691596731544, 0.028762087458744645, 0.04579255828866735, 0.06201748311286792, 0.07919336174381897, 0.09548689454095438, 0.1123262188048102, 0.12873136746929958, 0.14574101695325226, 0.16203932842472568, 0.1790295218816027, 0.1954148732475005, 0.21235318412072957, 0.22873205016367137, 0.24571063835173845, 0.26212773367296904, 0.2790407859138213, 0.29517252679215744, 0.3123286081245169, 0.32868733553914353, 0.345612334436737, 0.36199632042553276, 0.37899265793384984, 0.39550498517928645, 0.4124241814133711, 0.42866378353210166, 0.44567070237826556, 0.4620915523264557, 0.47903532453347, 0.4953817639616318, 0.5123606934794225, 0.528719762165565, 0.5456877690157853, 0.5621093016816303, 0.5789469192968681, 0.5954350118990988, 0.6124033600790426, 0.6286975755356252, 0.6456765050534159, 0.6620533230598085, 0.6789820765843615, 0.6954472998622805, 0.7122538562398404, 0.7285040396964177, 0.7455526011181064, 0.7620168004068546, 0.7788718260126188, 0.7953503613243811, 0.812257269572001, 0.8284709303989075, 0.8455031078192405, 0.8620676590362564, 0.878862610028591, 0.8951940307742916, 0.9123183681513183, 0.928521447640378, 0.9455850277445279, 0.9618034672457725]
30	images/0134.jpg	images/0219.jpg	right	1.142	[0.0, 0.0, 0.0, 0.0, 0.0, 0.0, 0.0, 0.0, 0.0, 0.0, 0.0, 0.0, 0.0, 0.0, 0.0, 0.0, 0.0, 0.0, 0.0, 0.0, 0.0, 0.0, 1.0, 2.0, 2.0, 3.0, 3.0, 4.0, 4.0, 4.0, 4.0, 4.0, 4.0, 4.0, 4.0, 6.0, 8.0, 10.0, 10.0, 11.0, 13.0, 14.0, 17.0, 21.0, 29.0, 40.0, 79.0, 129.0, 205.0, 305.0, 408.0, 497.0, 568.0, 630.0, 681.0, 722.0, 751.0, 769.0, 788.0, 800.0, 812.0, 817.0, 818.0, 821.0, 824.0, 830.0, 833.0, 833.0, 833.0]	[-490.0, -490.0, -490.0, -490.0, -490.0, -490.0, -490.0, -490.0, -490.0, -490.0, -490.0, -490.0, -490.0, -490.0, -490.0, -490.0, -490.0, -490.0, -490.0, -490.0, -485.0, -479.0, -469.0, -463.0, -461.0, -458.0, -455.0, -454.0, -454.0, -453.0, -453.0, -453.0, -453.0, -453.0, -451.0, -449.0, -445.0, -442.0, -442.0, -441.0, -437.0, -435.0, -429.0, -419.0, -404.0, -385.0, -330.0, -271.0, -187.0, -86.0, 8.0, 89.0, 156.0, 209.0, 253.0, 293.0, 327.0, 350.0, 372.0, 384.0, 395.0, 401.0, 402.0, 407.0, 410.0, 416.0, 418.0, 418.0, 418.0]	[0.0006927354261279106, 0.0076648041140288115, 0.017871003423351794, 0.034673463727813214, 0.05113356705987826, 0.0681165925343521, 0.08448248793138191, 0.10140066011808813, 0.11776041152188554, 0.13468199706403539, 0.1511697483365424, 0.16804900858551264, 0.18441285594599321, 0.2014634654042311, 0.2178075154661201, 0.23466458910843357, 0.25114926835522056, 0.2729351911111735, 0.28425481874728575, 0.30136004148516804, 0.3178867047536187, 0.33464991179062054, 0.35115097503876314, 0.36798449663911015, 0.3844445999711752, 0.4013975881389342, 0.41776416619541124, 0.43467414641054347, 0.4512335776234977, 0.4680124859442003, 0.4844292399357073, 0.5014074867940508, 0.5175617556669749, 0.5346475224359892, 0.551016831130255, 0.5680046352790669, 0.5842845147708431, 0.6013501428533345, 0.6178750994149595, 0.6347424130071886, 0.6512342602945864, 0.6680005392991006, 0.6842459441395476, 0.7013610654976219, 0.7178505234187469, 0.7346519597922452, 0.7510506231337786, 0.7679244220489636, 0.784531298559159, 0.8013201055582613, 0.817750854184851, 0.8346249944297597, 0.8511963722994551, 0.8678940433892421, 0.8841667548404075, 0.901250132243149, 0.9177385661751032, 0.934567991818767, 0.9510714444331825, 0.9679582139942795, 0.9844213892938569, 1.0013385375496, 1.0178269714815542, 1.03475811437238, 1.0511721376678906, 1.0678626407752745, 1.0845282265217975, 1.1012815349386074, 1.1177460754988715]
31	images/0077.jpg	images/0368.jpg	left	2.019	[0.0, 0.0, 0.0, 0.0, 0.0, 0.0, 0.0, 0.0, 0.0, 0.0, 0.0, 0.0, 0.0, 0.0, 1.0, 1.0, 1.0, 1.0, 1.0, 1.0, 1.0, 1.0, 2.0, 2.0, 4.0, 8.0, 56.0, 90.0, 169.0, 275.0, 418.0, 567.0, 696.0, 830.0, 882.0, 914.0, 929.0, 936.0, 938.0, 938.0, 938.0, 938.0, 938.0, 938.0, 938.0, 938.0, 938.0, 938.0, 938.0, 938.0, 938.0, 938.0, 938.0, 938.0, 938.0, 938.0, 938.0, 938.0, 938.0, 938.0, 938.0, 938.0, 938.0, 938.0, 938.0, 938.0, 938.0, 938.0, 938.0, 938.0, 938.0, 938.0, 938.0, 938.0, 938.0, 938.0, 938.0, 938.0, 938.0, 938.0, 938.0, 938.0, 938.0, 938.0, 938.0, 938.0, 938.0, 938.0, 938.0, 938.0, 938.0, 936.0, 837.0, 723.0, 586.0, 426.0, 256.0, 86.0, -52.0, -192.0, -301.0, -382.0, -445.0, -496.0, -555.0, -583.0, -605.0, -622.0, -634.0, -644.0, -649.0, -653.0, -656.0, -663.0, -672.0, -681.0, -688.0, -689.0, -689.0, -689.0, -689.0, -689.0]	[-490.0, -490.0, -490.0, -490.0, -490.0, -490.0, -490.0, -490.0, -490.0, -490.0, -491.0, -491.0, -491.0, -491.0, -491.0, -491.0, -491.0, -491.0, -490.0, -481.0, -471.0, -464.0, -459.0, -456.0, -450.0, -438.0, -366.0, -320.0, -216.0, -98.0, 34.0, 148.0, 232.0, 290.0, 308.0, 324.0, 331.0, 336.0, 336.0, 336.0, 336.0, 336.0, 336.0, 336.0, 336.0, 336.0, 336.0, 336.0, 336.0, 336.0, 336.0, 336.0, 336.0, 336.0, 336.0, 336.0, 336.0, 336.0, 336.0, 336.0, 336.0, 336.0, 336.0, 336.0, 336.0, 336.0, 336.0, 336.0, 336.0, 336.0, 336.0, 336.0, 336.0, 336.0, 336.0, 336.0, 336.0, 336.0, 336.0, 336.0, 336.0, 336.0, 336.0, 336.0, 336.0, 336.0, 336.0, 336.0, 336.0, 336.0, 336.0, 336.0, 336.0, 336.0, 336.0, 341.0, 341.0, 341.0, 341.0, 341.0, 341.0, 341.0, 341.0, 341.0, 342.0, 347.0, 350.0, 354.0, 358.0, 360.0, 361.0, 361.0, 362.0, 362.0, 362.0, 361.0, 361.0, 361.0, 361.0, 361.0, 361.0, 361.0]	[0.008238072972744703, 0.012607135926373303, 0.01750526507385075, 0.03360287263058126, 0.049721301591489464, 0.06685963360359892, 0.08309923578053713, 0.10017339716432616, 0.11654304718831554, 0.13348306476837024, 0.14970696560340002, 0.1668077509966679, 0.18302107049385086, 0.20037956233136356, 0.21667446044739336, 0.23348443006398156, 0.24968921625986695, 0.26682993763824925, 0.28331359289586544, 0.30011571187060326, 0.31639490864472464, 0.33339022216387093, 0.34999948798213154, 0.3667763483244926, 0.38322348095243797, 0.40630203194450587, 0.41662428446579725, 0.4333857848541811, 0.4499458987265825, 0.46663298847852275, 0.48323201428866014, 0.5000378879485652, 0.5164949192549102, 0.5333799821673892, 0.5497042349306867, 0.5667818096699193, 0.5832391823059879, 0.6002529278048314, 0.6165536285261624, 0.6333847608184442, 0.6496212909696624, 0.666496796591673, 0.6833238328690641, 0.7000679252669215, 0.7165362205705605, 0.7334240141208284, 0.7499728639959358, 0.7668299376382492, 0.7831657956703566, 0.8001604265300557, 0.8165345138986595, 0.8333878328558058, 0.8496656643110327, 0.8668251589988358, 0.8831634063390084, 0.9000593919190578, 0.9165976605145261, 0.9333963661920279, 0.9496677122660913, 0.9665319538908079, 0.9831937850103714, 1.0001426772214472, 1.0165549938683398, 1.0334188941633329, 1.0497359788860194, 1.0668504176428542, 1.083221432985738, 1.1000505172996782, 1.1165549938450567, 1.1334028514684178, 1.1496339202858508, 1.1665039645740762, 1.1832726329448633, 1.2001051305560395, 1.2166051698150113, 1.2334236727911048, 1.249645525647793, 1.2666910151019692, 1.2832248462946154, 1.3001703252084553, 1.316552604548633, 1.3334376674611121, 1.3496451842947863, 1.366573937877547, 1.383216995629482, 1.4001897811540402, 1.41657342587132, 1.4334414221229963, 1.4496834136079997, 1.466522396542132, 1.4832395236589946, 1.5000928425579332, 1.5165382685372606, 1.5333707662066445, 1.5496513282996602, 1.566825841611717, 1.583211875637062, 1.600245418434497, 1.6162539381184615, 1.6332895288942382, 1.6496513282763772, 1.6666817991062999, 1.6831709156977013, 1.699961088015698, 1.7165549938799813, 1.7332536889589392, 1.749647232296411, 1.766755185672082, 1.7829302758909762, 1.8001805651583709, 1.8164795592892915, 1.8333195662125945, 1.8498547627823427, 1.8666780444327742, 1.8831531663890928, 1.9000494932988659, 1.9165194952511229, 1.9333048888947815, 1.9498967467807233, 1.9667698630364612, 1.9831821796833538, 2.000267946452368]
32	images/0317.jpg	images/0072.jpg	right	1.632	[0.0, 0.0, 0.0, 0.0, 0.0, 0.0, 0.0, 0.0, 0.0, 0.0, 0.0, 0.0, 8.0, 27.0, 56.0, 85.0, 117.0, 137.0, 152.0, 153.0, 152.0, 141.0, 129.0, 116.0, 106.0, 98.0, 93.0, 86.0, 81.0, 80.0, 80.0, 80.0, 80.0, 80.0, 80.0, 80.0, 80.0, 80.0, 80.0, 79.0, 73.0, 59.0, 35.0, -14.0, -45.0, -74.0, -101.0, -141.0, -196.0, -258.0, -324.0, -389.0, -448.0, -500.0, -548.0, -600.0, -625.0, -643.0, -652.0, -654.0, -654.0, -654.0, -649.0, -628.0, -595.0, -562.0, -533.0, -499.0, -474.0, -429.0, -347.0, -247.0, -128.0, 18.0, 204.0, 436.0, 678.0, 883.0, 959.0, 959.0, 959.0, 959.0, 959.0, 959.0, 959.0, 959.0, 959.0, 959.0, 959.0, 943.0, 917.0, 874.0, 800.0, 761.0, 739.0, 734.0, 734.0, 734.0]	[-490.0, -490.0, -490.0, -490.0, -490.0, -490.0, -476.0, -463.0, -447.0, -422.0, -379.0, -322.0, -241.0, -140.0, -22.0, 110.0, 221.0, 291.0, 336.0, 349.0, 363.0, 377.0, 388.0, 398.0, 406.0, 409.0, 413.0, 415.0, 417.0, 417.0, 417.0, 417.0, 417.0, 417.0, 417.0, 417.0, 417.0, 417.0, 417.0, 417.0, 417.0, 417.0, 417.0, 417.0, 417.0, 417.0, 417.0, 417.0, 417.0, 417.0, 417.0, 417.0, 424.0, 431.0, 434.0, 436.0, 436.0, 436.0, 434.0, 433.0, 433.0, 433.0, 433.0, 433.0, 433.0, 433.0, 433.0, 429.0, 428.0, 428.0, 428.0, 426.0, 426.0, 426.0, 426.0, 424.0, 394.0, 367.0, 337.0, 327.0, 323.0, 323.0, 323.0, 323.0, 323.0, 323.0, 323.0, 323.0, 323.0, 323.0, 323.0, 323.0, 323.0, 330.0, 332.0, 333.0, 333.0, 333.0]	[0.004867409181315452, 0.009779533022083342, 0.02647481474559754, 0.04343531228369102, 0.05969266378087923, 0.07668251590803266, 0.09285316878231242, 0.10997682349989191, 0.12643965746974573, 0.1433878670213744, 0.15953872253885493, 0.17673200921854004, 0.19318869919516146, 0.2100010581780225, 0.22641303349519148, 0.24327693379018456, 0.25977253570454195, 0.2766408732859418, 0.29307742457604036, 0.3100153941777535, 0.32642634550575167, 0.34326703508850187, 0.3598199809785001, 0.3766285853344016, 0.39316753653110936, 0.40989899955457076, 0.4264089374919422, 0.44318989384919405, 0.45977765566203743, 0.4766009373124689, 0.49281357415020466, 0.5098675969638862, 0.5264202014659531, 0.5433861603378318, 0.5596622851444408, 0.5767091399175115, 0.5928436114918441, 0.6100106154917739, 0.6264014281914569, 0.6433660216862336, 0.6595656878780574, 0.676601278653834, 0.693150469858665, 0.7099259648821317, 0.7264010868384503, 0.7432957070996054, 0.7595093679265119, 0.7766555506386794, 0.793043632642366, 0.8099860395304859, 0.8264106441638432, 0.8432963897357695, 0.8597404503962025, 0.8766593053005636, 0.8928412221139297, 0.9099358635721728, 0.9264577481080778, 0.9432800057693385, 0.9595281412475742, 0.9765688520274125, 0.9928490727907047, 1.010010615515057, 1.0264184948173352, 1.0432772751082666, 1.059724407736212, 1.0766913905972615, 1.0928821820998564, 1.1099587328499183, 1.126435561454855, 1.1432943417457864, 1.1597325997427106, 1.176631998619996, 1.1929214354022406, 1.2100341674522497, 1.2265342067112215, 1.2432554297847673, 1.2597445463761687, 1.2767115292372182, 1.2931460325489752, 1.3100034475210123, 1.3264219081611373, 1.3433202830492519, 1.3597469357191585, 1.3767190385842696, 1.392870918090921, 1.4097290157224052, 1.4265608306741342, 1.4432946830638684, 1.4598967808997259, 1.476629950630013, 1.4928866194095463, 1.5098430209909566, 1.5262816202593967, 1.5434667149093002, 1.5597855063388124, 1.5767429318511859, 1.592837126168888, 1.60998160217423]
33	images/0398.jpg	images/0581.jpg	right	1.011	[0.0, 0.0, 0.0, 0.0, 0.0, 0.0, 0.0, 0.0, 0.0, 0.0, 0.0, 0.0, 0.0, 0.0, 0.0, 0.0, 0.0, 0.0, 0.0, 0.0, 0.0, 0.0, 0.0, 0.0, 0.0, 0.0, 0.0, 0.0, 0.0, 0.0, 0.0, 0.0, 0.0, 4.0, 13.0, 25.0, 48.0, 64.0, 78.0, 90.0, 102.0, 118.0, 150.0, 205.0, 299.0, 412.0, 569.0, 610.0, 716.0, 773.0, 813.0, 819.0, 824.0, 824.0, 825.0, 825.0, 825.0, 825.0, 825.0, 825.0, 825.0]	[-490.0, -490.0, -490.0, -490.0, -490.0, -490.0, -490.0, -490.0, -490.0, -490.0, -490.0, -490.0, -490.0, -490.0, -489.0, -489.0, -489.0, -489.0, -489.0, -489.0, -489.0, -489.0, -489.0, -489.0, -489.0, -489.0, -489.0, -489.0, -489.0, -489.0, -489.0, -488.0, -486.0, -479.0, -459.0, -443.0, -414.0, -391.0, -372.0, -353.0, -337.0, -318.0, -280.0, -218.0, -115.0, 7.0, 178.0, 225.0, 318.0, 358.0, 383.0, 388.0, 393.0, 393.0, 394.0, 394.0, 394.0, 394.0, 394.0, 394.0, 394.0]	[0.015715997258666903, 0.01975976984249428, 0.03155419178074226, 0.04835733474465087, 0.06454641959862784, 0.08171342359855771, 0.09789534047013149, 0.11503333121072501, 0.13120876270113513, 0.14846553734969348, 0.16480651538586244, 0.18172366364160553, 0.19818342558573931, 0.21514562977245077, 0.23149070382351056, 0.2483583587454632, 0.2648287020274438, 0.2817342449561693, 0.29808204964501783, 0.3151108137681149, 0.3314719304908067, 0.34842116403160617, 0.364914717967622, 0.3816813383018598, 0.3981994682108052, 0.41507702181115746, 0.43148148781619966, 0.4484443746623583, 0.4645723609137349, 0.4813857438857667, 0.49813290825113654, 0.5150572244892828, 0.5314528158633038, 0.5484027320635505, 0.5645607555634342, 0.5816704156459309, 0.5981844495399855, 0.615110813814681, 0.6314790984615684, 0.648378838726785, 0.6646399448509328, 0.6816110237268731, 0.6981458789086901, 0.7150439125252888, 0.7314179998938926, 0.7484201400075108, 0.7645395929575898, 0.7818305008695461, 0.7979642897262238, 0.8230065297102556, 0.8312203680397943, 0.8495175257558003, 0.8646160515490919, 0.8819059354718775, 0.8979731643921696, 0.9228327912278473, 0.9311992053990252, 0.9484095586813055, 0.9645477849408053, 0.9819622554350644, 0.997961217770353]
