trialIndex	stimulus	left_option	right_option	response	response_time	xTrajectory	yTrajectory	tTrajectory
0	inanimate/n46.jpg	animate	inanimate	right	1.231	[0.0, 0.0, 0.0, 0.0, 0.0, 0.0, 0.0, 0.0, 0.0, 0.0, 0.0, 0.0, -2.0, -10.0, -51.0, -144.0, -298.0, -482.0, -516.0, -516.0, -516.0, -516.0, -516.0, -516.0, -516.0, -516.0, -516.0, -516.0, -516.0, -516.0, -516.0, -516.0, -516.0, -516.0, -516.0, -508.0, -481.0, -458.0, -450.0, -439.0, -427.0, -386.0, -372.0, -367.0, -353.0, -317.0, -215.0, -34.0, 221.0, 493.0, 753.0, 959.0, 959.0, 959.0, 959.0, 959.0, 959.0, 959.0, 959.0, 959.0, 959.0, 959.0, 951.0, 942.0, 932.0, 927.0, 924.0, 921.0, 918.0, 915.0, 915.0, 915.0, 915.0, 915.0]	[-490.0, -490.0, -490.0, -490.0, -490.0, -490.0, -490.0, -490.0, -490.0, -490.0, -490.0, -486.0, -471.0, -440.0, -389.0, -314.0, -212.0, -112.0, -99.0, -99.0, -99.0, -99.0, -99.0, -99.0, -99.0, -99.0, -99.0, -99.0, -99.0, -99.0, -99.0, -99.0, -99.0, -91.0, -79.0, -69.0, -59.0, -58.0, -57.0, -57.0, -57.0, -52.0, -48.0, -46.0, -34.0, -4.0, 55.0, 133.0, 196.0, 232.0, 246.0, 255.0, 284.0, 336.0, 362.0, 373.0, 378.0, 379.0, 379.0, 379.0, 379.0, 383.0, 397.0, 415.0, 434.0, 440.0, 444.0, 446.0, 449.0, 451.0, 451.0, 451.0, 451.0, 451.0]	[0.014006533077917993, 0.021670483867637813, 0.02658806898398325, 0.04349361191270873, 0.0599673684919253, 0.076913871394936, 0.09313674818258733, 0.11021671228809282, 0.12650580774061382, 0.14367554243654013, 0.15975369402440265, 0.17684731143526733, 0.19322242279304191, 0.2101037310785614, 0.226465871790424, 0.24330280674621463, 0.25980830733897164, 0.2768544794525951, 0.2931630308739841, 0.3100924670579843, 0.32645938644418493, 0.3434256866457872, 0.35983356594806537, 0.3767240901943296, 0.39340810797875747, 0.4102375336224213, 0.4262634612969123, 0.44337516935775056, 0.45987589127616957, 0.4768940740614198, 0.4932231054408476, 0.5101020244183019, 0.52643890643958, 0.5433502520318143, 0.5597827073652297, 0.5767899674829096, 0.5929049830883741, 0.610054237768054, 0.626540282391943, 0.6434837132692337, 0.6598158166161738, 0.6767742661759257, 0.6932596280821599, 0.7102051069959998, 0.7265416476875544, 0.743363905348815, 0.759930845873896, 0.7767486661905423, 0.7930319589795545, 0.8100672084256075, 0.8265361863886937, 0.8434936119010672, 0.8598086486454122, 0.8767148742335849, 0.8932466574478894, 0.9100538964266889, 0.9266167409950867, 0.9435277451993898, 0.9598315179464407, 0.9767886021872982, 0.9931783908396028, 1.0100945150479674, 1.0262552693020552, 1.0433891639695503, 1.059901491214987, 1.0767810928518884, 1.0932097935001366, 1.1100255657802336, 1.1265256050392054, 1.1435509558650665, 1.1597885100054555, 1.176818639447447, 1.1932394894538447, 1.2100511657772586]
1	inanimate/n47.jpg	inanimate	animate	left	2.145	[0.0, 0.0, 0.0, 0.0, 0.0, 0.0, 0.0, 0.0, 0.0, 0.0, 0.0, 0.0, 0.0, 8.0, 19.0, 25.0, 33.0, 43.0, 51.0, 59.0, 66.0, 71.0, 74.0, 76.0, 77.0, 78.0, 78.0, 78.0, 78.0, 78.0, 78.0, 78.0, 78.0, 78.0, 78.0, 78.0, 78.0, 78.0, 78.0, 78.0, 78.0, 78.0, 78.0, 78.0, 78.0, 78.0, 78.0, 78.0, 78.0, 78.0, 81.0, 103.0, 134.0, 167.0, 195.0, 230.0, 283.0, 342.0, 413.0, 481.0, 535.0, 597.0, 630.0, 657.0, 675.0, 681.0, 686.0, 688.0, 688.0, 687.0, 673.0, 635.0, 572.0, 451.0, 364.0, 298.0, 248.0, 223.0, 211.0, 208.0, 208.0, 208.0, 208.0, 208.0, 208.0, 208.0, 208.0, 220.0, 268.0, 349.0, 408.0, 447.0, 466.0, 469.0, 469.0, 464.0, 432.0, 283.0, 134.0, -30.0, -200.0, -368.0, -535.0, -692.0, -815.0, -887.0, -915.0, -921.0, -921.0, -921.0, -921.0, -921.0, -918.0, -914.0, -914.0, -912.0, -912.0, -911.0, -907.0, -900.0, -881.0, -862.0, -839.0, -836.0, -835.0, -835.0, -835.0, -835.0, -835.0]	[-490.0, -490.0, -490.0, -490.0, -490.0, -490.0, -490.0, -490.0, -490.0, -490.0, -490.0, -490.0, -482.0, -456.0, -412.0, -381.0, -319.0, -253.0, -191.0, -138.0, -94.0, -64.0, -41.0, -26.0, -17.0, -12.0, -11.0, -11.0, -11.0, -11.0, -11.0, -11.0, -11.0, -11.0, -11.0, -11.0, -11.0, -11.0, -11.0, -11.0, -11.0, -11.0, -11.0, -11.0, -11.0, -11.0, -11.0, -11.0, -11.0, -11.0, -10.0, -10.0, -10.0, -10.0, -10.0, -4.0, 15.0, 41.0, 77.0, 121.0, 161.0, 207.0, 230.0, 249.0, 261.0, 269.0, 278.0, 285.0, 287.0, 293.0, 300.0, 316.0, 337.0, 370.0, 383.0, 393.0, 404.0, 407.0, 411.0, 412.0, 412.0, 412.0, 412.0, 412.0, 412.0, 412.0, 412.0, 416.0, 431.0, 451.0, 464.0, 467.0, 468.0, 469.0, 469.0, 469.0, 469.0, 469.0, 469.0, 469.0, 469.0, 469.0, 469.0, 469.0, 480.0, 487.0, 489.0, 490.0, 490.0, 490.0, 490.0, 490.0, 490.0, 489.0, 488.0, 488.0, 488.0, 487.0, 485.0, 485.0, 485.0, 484.0, 480.0, 480.0, 480.0, 480.0, 480.0, 480.0, 480.0]	[0.015366164967417717, 0.02322911296505481, 0.028639241645578295, 0.04580522165633738, 0.062238018319476396, 0.07936713437084109, 0.09568729111924767, 0.11265871132491156, 0.1288075188640505, 0.1459178616059944, 0.16233086091233417, 0.17940058500971645, 0.19568660843651742, 0.21261194866383448, 0.2289532680879347, 0.24602504016365856, 0.26239810354309157, 0.27937669173115864, 0.295659301802516, 0.31255801807856187, 0.3289979826658964, 0.3459816908580251, 0.3623602155712433, 0.37936337973224, 0.3956958244671114, 0.41264505800791085, 0.42889387608738616, 0.4460748747806065, 0.46235850889934227, 0.47934255842119455, 0.49582792032742873, 0.5127157139359042, 0.529044745315332, 0.5459728161804378, 0.5623694315436296, 0.5793555290438235, 0.5956780751002952, 0.6126440339721739, 0.629172062559519, 0.6460223094909452, 0.6623492928920314, 0.6793306117178872, 0.6957521443837322, 0.7125860073720105, 0.7290379186742939, 0.7460014881798998, 0.7624598848051392, 0.7794012677040882, 0.7956743204849772, 0.8126290153013542, 0.8291648945305496, 0.8459246882703155, 0.8624312128522433, 0.8792449371539988, 0.8956705657765269, 0.912594199355226, 0.9290444040088914, 0.9458666616119444, 0.9623383702128194, 0.9793278810684569, 0.9957046990748495, 1.0126221886603162, 1.0289911560248584, 1.0459124002372846, 1.0623970795422792, 1.079331635730341, 1.0956763684516773, 1.112613314006012, 1.128983988019172, 1.145886117592454, 1.1623752341838554, 1.1792493744869716, 1.1955193552421406, 1.2125846420531161, 1.2287563189165667, 1.2459485815488733, 1.2623957141768187, 1.2792814598069526, 1.2956988964579068, 1.3126580286188982, 1.3290136840078048, 1.3459226402337663, 1.3623537302482873, 1.3793596250470728, 1.395615611167159, 1.41265563928755, 1.4292154118302278, 1.4458014669944532, 1.4623509995872155, 1.4793702063616365, 1.4956692004925571, 1.5126122899819165, 1.5290416733478196, 1.5459065975737758, 1.5623745515476912, 1.5793108144425787, 1.59570811240701, 1.6126276499708183, 1.6290959452744573, 1.6459820321761072, 1.6624339434783906, 1.67921182786813, 1.6953889660653658, 1.7125788393896073, 1.7290317746810615, 1.7459523362340406, 1.762349292926956, 1.779239134513773, 1.795681829797104, 1.812639596639201, 1.8290846812888049, 1.8460195788065903, 1.8623899115482345, 1.8792916997917928, 1.8956647631130181, 1.9125771326944232, 1.9290024200454354, 1.9459595042280853, 1.9623653355520219, 1.9793094490887597, 1.99566544580739, 2.012663489964325, 2.02908502263017, 2.045957114896737, 2.062381036870647, 2.0793490437208675, 2.0957244964083657, 2.1126631486113183, 2.1288754441193305]
2	animate/a17.jpg	animate	inanimate	left	1.6	[0.0, 0.0, 0.0, 0.0, 0.0, 0.0, 0.0, 0.0, 0.0, 0.0, 0.0, 0.0, 0.0, 0.0, 0.0, 0.0, 0.0, 0.0, 0.0, 0.0, 0.0, 0.0, 0.0, 0.0, -1.0, -2.0, -2.0, -2.0, -2.0, -2.0, -2.0, 2.0, 8.0, 15.0, 23.0, 36.0, 41.0, 52.0, 60.0, 64.0, 66.0, 66.0, 66.0, 66.0, 66.0, 66.0, 66.0, 66.0, 66.0, 66.0, 65.0, 64.0, 63.0, 63.0, 63.0, 67.0, 76.0, 92.0, 115.0, 142.0, 180.0, 259.0, 313.0, 372.0, 419.0, 463.0, 491.0, 506.0, 515.0, 521.0, 525.0, 526.0, 526.0, 518.0, 483.0, 382.0, 230.0, 59.0, -108.0, -278.0, -434.0, -568.0, -685.0, -780.0, -801.0, -804.0, -804.0, -805.0, -806.0, -807.0, -807.0, -807.0, -807.0, -807.0, -807.0, -807.0]	[-490.0, -490.0, -490.0, -490.0, -490.0, -490.0, -490.0, -490.0, -490.0, -490.0, -490.0, -490.0, -490.0, -490.0, -490.0, -490.0, -490.0, -490.0, -490.0, -490.0, -490.0, -490.0, -490.0, -488.0, -487.0, -486.0, -486.0, -486.0, -485.0, -482.0, -473.0, -463.0, -452.0, -442.0, -429.0, -403.0, -393.0, -367.0, -348.0, -334.0, -322.0, -315.0, -310.0, -304.0, -300.0, -296.0, -292.0, -285.0, -281.0, -277.0, -270.0, -259.0, -248.0, -227.0, -196.0, -150.0, -95.0, -48.0, -4.0, 37.0, 85.0, 154.0, 189.0, 222.0, 249.0, 279.0, 298.0, 313.0, 324.0, 337.0, 348.0, 365.0, 369.0, 382.0, 393.0, 417.0, 438.0, 444.0, 444.0, 444.0, 444.0, 435.0, 433.0, 433.0, 433.0, 431.0, 431.0, 431.0, 429.0, 428.0, 428.0, 428.0, 427.0, 427.0, 427.0, 427.0]	[0.015458666253834963, 0.021295802609529346, 0.02940348634729162, 0.046242810669355094, 0.06324563350062817, 0.07954565156251192, 0.09651604777900502, 0.11274233792209998, 0.12985916598699987, 0.14627557864878327, 0.16325689747463912, 0.17954326223116368, 0.19658943434478715, 0.21281982050277293, 0.2298284459975548, 0.246184442716185, 0.26328113209456205, 0.27957534755114466, 0.2965310664149001, 0.31264437531353906, 0.3297700780676678, 0.34623734932392836, 0.36322208150522783, 0.3795978755224496, 0.3966099143726751, 0.41287409246433526, 0.4298847659374587, 0.4459963681874797, 0.4631766842212528, 0.47956749686272815, 0.49654949840623885, 0.5129355324315839, 0.5298799872980453, 0.5461834187153727, 0.5631579108885489, 0.5793517744168639, 0.5965023944154382, 0.6129246097407304, 0.6300141311949119, 0.6462595359771512, 0.6631131962640211, 0.6793545050895773, 0.6964235465275124, 0.7128870630986057, 0.729782366019208, 0.746203898685053, 0.7632295908406377, 0.7795773955294862, 0.7965150237432681, 0.8128918418078683, 0.8298513152985834, 0.8462868425995111, 0.8630391269689426, 0.8796343981521204, 0.8964068212080747, 0.9128932071034797, 0.9297629100619815, 0.9462342773331329, 0.9632295908522792, 0.9795238062506542, 0.9966146930237301, 1.0128553191316314, 1.029836638015695, 1.046319610613864, 1.0632801080937497, 1.079566472908482, 1.096564517065417, 1.1128549778368324, 1.1298496086383238, 1.1462714826338924, 1.1631531322491355, 1.1795678382040933, 1.1965129757882096, 1.2128611218067817, 1.2298147926921956, 1.2461055947933346, 1.2631377722136676, 1.2795425795484334, 1.2966222023242153, 1.312860780453775, 1.3297943127108738, 1.346223013359122, 1.3630309349973686, 1.3795770542346872, 1.3965221917605959, 1.412879895127844, 1.429791582049802, 1.4462998132803477, 1.4632715748157352, 1.479581150226295, 1.49655837303726, 1.5129505510558374, 1.5297799766995013, 1.5462322293315083, 1.5632002361817285, 1.5795869528665207]
3	inanimate/n31.jpg	inanimate	animate	left	1.683	[0.0, 0.0, 0.0, 0.0, 0.0, 0.0, 0.0, 0.0, 0.0, 0.0, 0.0, 0.0, 0.0, 0.0, 0.0, 0.0, 0.0, 0.0, 0.0, 0.0, 0.0, 0.0, 0.0, 0.0, 0.0, 0.0, 0.0, 0.0, 0.0, 0.0, 2.0, 6.0, 12.0, 22.0, 34.0, 50.0, 70.0, 126.0, 164.0, 198.0, 217.0, 228.0, 230.0, 233.0, 233.0, 233.0, 236.0, 239.0, 245.0, 257.0, 276.0, 304.0, 330.0, 342.0, 348.0, 349.0, 349.0, 347.0, 337.0, 318.0, 264.0, 165.0, -39.0, -191.0, -361.0, -528.0, -685.0, -812.0, -896.0, -948.0, -960.0, -960.0, -960.0, -960.0, -960.0, -960.0, -960.0, -960.0, -960.0, -960.0, -954.0, -945.0, -937.0, -928.0, -920.0, -915.0, -908.0, -905.0, -904.0, -904.0, -904.0, -904.0, -904.0, -904.0, -904.0, -904.0, -904.0, -904.0, -904.0, -904.0, -904.0]	[-490.0, -490.0, -490.0, -490.0, -490.0, -490.0, -490.0, -490.0, -490.0, -490.0, -490.0, -490.0, -490.0, -490.0, -490.0, -490.0, -490.0, -490.0, -490.0, -490.0, -490.0, -490.0, -490.0, -490.0, -490.0, -490.0, -490.0, -490.0, -490.0, -490.0, -490.0, -484.0, -470.0, -446.0, -425.0, -397.0, -370.0, -297.0, -238.0, -175.0, -122.0, -86.0, -49.0, -12.0, 24.0, 52.0, 74.0, 95.0, 115.0, 145.0, 171.0, 203.0, 233.0, 250.0, 260.0, 263.0, 267.0, 271.0, 276.0, 279.0, 288.0, 309.0, 343.0, 364.0, 388.0, 412.0, 433.0, 454.0, 463.0, 471.0, 476.0, 479.0, 479.0, 479.0, 479.0, 479.0, 476.0, 472.0, 472.0, 470.0, 466.0, 464.0, 463.0, 463.0, 463.0, 463.0, 463.0, 463.0, 463.0, 463.0, 463.0, 463.0, 463.0, 463.0, 463.0, 463.0, 463.0, 463.0, 463.0, 463.0, 463.0]	[0.015637866163160652, 0.02322501700837165, 0.029323273163754493, 0.04647389316232875, 0.06287767650792375, 0.07983612606767565, 0.09626107203075662, 0.1131604709662497, 0.12960316624958068, 0.14654318377142772, 0.16293911647517234, 0.17998904327396303, 0.1962457120534964, 0.21328369219554588, 0.22964105423307046, 0.2466353437048383, 0.2629025938222185, 0.27991702198050916, 0.29625390405999497, 0.3132669668411836, 0.3296605101786554, 0.3465650291182101, 0.36286197521258146, 0.3799750485923141, 0.3962969119893387, 0.41323624685173854, 0.4293888090760447, 0.446458533173427, 0.4629886097391136, 0.47985455801244825, 0.4963092000107281, 0.5132304442231543, 0.5295570862945169, 0.5465274824528024, 0.5629664231091738, 0.5799252139986493, 0.5962870133225806, 0.6131539856432937, 0.6296591448481195, 0.6465121224755421, 0.6630165990791284, 0.6798129153903574, 0.6964071625843644, 0.7132690148428082, 0.7296055555925705, 0.7466049650683999, 0.7628909884952009, 0.7799067819723859, 0.7963423092733137, 0.8132734521641396, 0.8293468251358718, 0.8465425011236221, 0.8629322897759266, 0.8799637845950201, 0.8962665333529003, 0.9131959695951082, 0.9293724251328968, 0.946440783853177, 0.962951063120272, 0.9799170219921507, 0.9961347787757404, 1.0132789135095663, 1.0296400302322581, 1.046529189159628, 1.0629698364646174, 1.0798709419905208, 1.096254245378077, 1.1131778789567761, 1.129633544886019, 1.1465861917240545, 1.1626605886849575, 1.1798750380403362, 1.1962351307156496, 1.213184364256449, 1.22957381157903, 1.246487887809053, 1.2629647164721973, 1.279821107396856, 1.296252538682893, 1.3132580922101624, 1.3293744731345214, 1.3465155357844196, 1.362904300505761, 1.379819400724955, 1.3959996109479107, 1.413109953631647, 1.42969293682836, 1.4464704798301682, 1.4629254631581716, 1.4799064406543039, 1.49625117337564, 1.5132116709137335, 1.529426355729811, 1.5464622878353111, 1.562945943151135, 1.5799074646783993, 1.5960593441850506, 1.6131195109919645, 1.6293369264458306, 1.6464732105378062, 1.6629578897845931]
4	animate/a52.jpg	inanimate	animate	right	1.189	[0.0, 0.0, 0.0, 0.0, 0.0, 0.0, 0.0, 0.0, 0.0, 0.0, 0.0, 0.0, 0.0, 0.0, 0.0, 0.0, 0.0, 0.0, 0.0, 0.0, 0.0, 0.0, 0.0, 0.0, 0.0, 0.0, -2.0, -14.0, -34.0, -57.0, -87.0, -125.0, -176.0, -231.0, -303.0, -350.0, -407.0, -473.0, -532.0, -574.0, -599.0, -617.0, -638.0, -658.0, -678.0, -696.0, -705.0, -714.0, -717.0, -717.0, -702.0, -660.0, -579.0, -467.0, -300.0, -94.0, 127.0, 322.0, 489.0, 672.0, 770.0, 866.0, 923.0, 946.0, 948.0, 948.0, 948.0, 948.0, 948.0, 948.0, 948.0, 948.0]	[-490.0, -490.0, -490.0, -490.0, -490.0, -490.0, -490.0, -490.0, -490.0, -490.0, -490.0, -490.0, -490.0, -490.0, -490.0, -490.0, -490.0, -490.0, -490.0, -490.0, -490.0, -490.0, -490.0, -490.0, -490.0, -490.0, -483.0, -455.0, -410.0, -356.0, -298.0, -234.0, -160.0, -84.0, 22.0, 95.0, 164.0, 218.0, 254.0, 277.0, 292.0, 303.0, 320.0, 337.0, 353.0, 366.0, 374.0, 386.0, 395.0, 406.0, 422.0, 444.0, 464.0, 484.0, 506.0, 520.0, 520.0, 518.0, 497.0, 468.0, 453.0, 434.0, 418.0, 411.0, 411.0, 411.0, 411.0, 411.0, 411.0, 411.0, 411.0, 411.0]	[0.007890186330769211, 0.014131460979115218, 0.018770859693177044, 0.030597708304412663, 0.04769166704500094, 0.0638814345584251, 0.08096515329089016, 0.09731705399462953, 0.11440316209336743, 0.13067314290674403, 0.14761964575154707, 0.1639971464755945, 0.18097675865283236, 0.1973136406741105, 0.2142488795798272, 0.2306946468888782, 0.24757493112701923, 0.2639285384793766, 0.28093818796332926, 0.29735903796972707, 0.31435742345638573, 0.33068884420208633, 0.34764080838067457, 0.36413572763558477, 0.38099826261168346, 0.3973764459369704, 0.4143123675021343, 0.43067075352882966, 0.44755137915490195, 0.4639882717747241, 0.4809446732979268, 0.4973095447057858, 0.5144168154220097, 0.5306925988406874, 0.5476855230517685, 0.5640503944014199, 0.5810026999097317, 0.5973955605877563, 0.6143604954704642, 0.630696012172848, 0.6475411391584203, 0.6640565383713692, 0.6809617399703711, 0.6973658646456897, 0.714167642290704, 0.7305168123566546, 0.74757902714191, 0.764023429073859, 0.7810535585740581, 0.7973948779399507, 0.8143485488253646, 0.8307028388371691, 0.8476220350712538, 0.8640718983951956, 0.8809910946292803, 0.8973535766708665, 0.9143680047709495, 0.9306905508856289, 0.9477008830290288, 0.9640254770638421, 0.9810221559018828, 0.9973685953300446, 1.0143529861234128, 1.0306956708664075, 1.047591656446457, 1.063949359813705, 1.0810170359327458, 1.0972334273974411, 1.1142611675313674, 1.1306335482513532, 1.1477114643203095, 1.1640155784552917]
5	animate/a45.jpg	animate	inanimate	left	0.961	[0.0, 0.0, 0.0, 0.0, 0.0, 0.0, 0.0, 0.0, 0.0, 0.0, 0.0, 0.0, 0.0, -2.0, -2.0, -3.0, -3.0, -3.0, -3.0, 3.0, 13.0, 27.0, 40.0, 55.0, 69.0, 84.0, 95.0, 111.0, 115.0, 118.0, 118.0, 117.0, 106.0, 92.0, 67.0, 29.0, -22.0, -80.0, -142.0, -259.0, -333.0, -409.0, -482.0, -550.0, -605.0, -647.0, -667.0, -681.0, -688.0, -693.0, -703.0, -712.0, -721.0, -732.0, -740.0, -740.0, -740.0, -740.0]	[-490.0, -490.0, -490.0, -490.0, -490.0, -490.0, -490.0, -490.0, -487.0, -487.0, -486.0, -484.0, -483.0, -480.0, -476.0, -466.0, -453.0, -435.0, -414.0, -386.0, -353.0, -304.0, -248.0, -189.0, -135.0, -80.0, -40.0, 18.0, 49.0, 73.0, 96.0, 115.0, 139.0, 160.0, 183.0, 210.0, 239.0, 261.0, 287.0, 324.0, 347.0, 367.0, 390.0, 409.0, 425.0, 434.0, 439.0, 440.0, 440.0, 442.0, 443.0, 444.0, 444.0, 444.0, 447.0, 447.0, 447.0, 447.0]	[0.0004751696833409369, 0.008029893913771957, 0.01608296437188983, 0.033024347212631255, 0.04930525069357827, 0.06638521479908377, 0.08278933941619471, 0.09978158096782863, 0.116049513744656, 0.13300796324620023, 0.1493475759634748, 0.1663439134717919, 0.1827224381850101, 0.19971536233788356, 0.2159017164958641, 0.232986117945984, 0.249451341223903, 0.2663268468459137, 0.2825418729917146, 0.2997464236104861, 0.31583379121730104, 0.33296120062004775, 0.34942574123851955, 0.3663538121036254, 0.3827258514938876, 0.3998597462195903, 0.41583788726711646, 0.43310763250337914, 0.4493673733086325, 0.46647635067347437, 0.48283405404072255, 0.499688055657316, 0.5160846710205078, 0.5329966992721893, 0.5491967067937367, 0.5663688307977282, 0.5827971901162528, 0.5997563222772442, 0.6161085643689148, 0.6329093180247582, 0.649336994625628, 0.6663981854217127, 0.6828446353902109, 0.69973277032841, 0.7160553163848817, 0.732842416735366, 0.7493731759604998, 0.766268478881102, 0.7827101501752622, 0.7997494956362061, 0.8160757963778451, 0.8329383312957361, 0.8494455385371111, 0.8664142281049863, 0.8826258408953436, 0.8996290050563402, 0.9160317644127645, 0.9329243366373703]
6	animate/a51.jpg	inanimate	animate	right	1.133	[0.0, 0.0, 0.0, 0.0, 0.0, 0.0, 0.0, 0.0, 0.0, 0.0, 0.0, 0.0, 0.0, 0.0, 0.0, 0.0, 0.0, 0.0, 0.0, 0.0, 0.0, 0.0, 0.0, 0.0, 0.0, 0.0, 0.0, 0.0, 0.0, 0.0, 0.0, 0.0, 0.0, 0.0, 0.0, 6.0, 16.0, 37.0, 70.0, 122.0, 214.0, 387.0, 509.0, 617.0, 706.0, 765.0, 808.0, 825.0, 832.0, 833.0, 833.0, 833.0, 833.0, 833.0, 833.0, 832.0, 831.0, 830.0, 829.0, 827.0, 827.0, 827.0, 827.0, 827.0, 827.0, 827.0, 827.0, 827.0]	[-490.0, -490.0, -490.0, -490.0, -490.0, -490.0, -490.0, -490.0, -490.0, -490.0, -490.0, -490.0, -490.0, -490.0, -490.0, -490.0, -490.0, -490.0, -490.0, -490.0, -490.0, -490.0, -490.0, -490.0, -490.0, -490.0, -490.0, -490.0, -490.0, -490.0, -490.0, -490.0, -490.0, -489.0, -466.0, -436.0, -394.0, -323.0, -238.0, -137.0, -20.0, 149.0, 230.0, 286.0, 322.0, 348.0, 366.0, 378.0, 386.0, 391.0, 395.0, 399.0, 405.0, 406.0, 408.0, 412.0, 417.0, 420.0, 423.0, 426.0, 426.0, 426.0, 426.0, 426.0, 426.0, 426.0, 426.0, 426.0]	[0.0038217012770473957, 0.008547457226086408, 0.022764319786801934, 0.03942444419953972, 0.056397229724098, 0.07288941834121943, 0.08967788401059806, 0.10592226480366662, 0.12305615952936932, 0.13946472149109468, 0.15637845639139414, 0.1725119039765559, 0.18967549467924982, 0.20609224867075682, 0.22304899152368307, 0.23943434288958088, 0.2563866483978927, 0.27280647441511974, 0.28962804935872555, 0.30611033929744735, 0.32308892748551443, 0.3394520921865478, 0.3563159924815409, 0.3727498131338507, 0.3898369452217594, 0.4060710860067047, 0.42310701811220497, 0.4395517614320852, 0.45642931503243744, 0.47285938099958, 0.48986425186740234, 0.5061018060077913, 0.5231039461214095, 0.5394466308644041, 0.5563456884701736, 0.5727887250832282, 0.589686075982172, 0.606104536622297, 0.6231179407914169, 0.6391820977441967, 0.6562880031415261, 0.6726095252088271, 0.6896963159670122, 0.7061516406247392, 0.7231643620762043, 0.7394145455327816, 0.7563818697235547, 0.7725989439059049, 0.7897533185896464, 0.8061151179717854, 0.8230592315085232, 0.8394974895054474, 0.8563511497923173, 0.8725593492854387, 0.8897570732515305, 0.9062752031604759, 0.9230575248366222, 0.93946062552277, 0.9563839177135378, 0.9727771197794937, 0.9898031532065943, 1.0062123978859745, 1.023139103432186, 1.0394548228359781, 1.0564515016740188, 1.0727569811278954, 1.0897686785901897, 1.1061489099520259]
7	animate/a57.jpg	inanimate	animate	right	1.402	[0.0, 0.0, 0.0, 0.0, 0.0, 0.0, 0.0, 0.0, 0.0, 0.0, 0.0, 0.0, 2.0, 2.0, 2.0, 2.0, 2.0, 2.0, 2.0, 2.0, 2.0, 2.0, 2.0, 2.0, 2.0, 2.0, 2.0, 2.0, 2.0, 2.0, 2.0, 2.0, 2.0, -20.0, -58.0, -95.0, -130.0, -150.0, -168.0, -201.0, -259.0, -311.0, -377.0, -465.0, -549.0, -619.0, -673.0, -719.0, -757.0, -788.0, -806.0, -814.0, -814.0, -808.0, -796.0, -787.0, -781.0, -781.0, -781.0, -781.0, -776.0, -749.0, -678.0, -562.0, -345.0, -171.0, 5.0, 178.0, 329.0, 453.0, 548.0, 624.0, 668.0, 698.0, 719.0, 738.0, 740.0, 755.0, 771.0, 792.0, 814.0, 825.0, 827.0, 827.0]	[-490.0, -490.0, -490.0, -490.0, -490.0, -491.0, -491.0, -493.0, -493.0, -493.0, -493.0, -493.0, -494.0, -494.0, -494.0, -494.0, -494.0, -494.0, -494.0, -494.0, -494.0, -494.0, -494.0, -494.0, -494.0, -494.0, -494.0, -494.0, -494.0, -494.0, -494.0, -494.0, -494.0, -494.0, -494.0, -494.0, -477.0, -462.0, -440.0, -389.0, -260.0, -139.0, -12.0, 110.0, 210.0, 293.0, 362.0, 423.0, 470.0, 512.0, 531.0, 540.0, 540.0, 540.0, 540.0, 540.0, 540.0, 540.0, 540.0, 540.0, 540.0, 540.0, 540.0, 540.0, 539.0, 521.0, 517.0, 517.0, 517.0, 517.0, 517.0, 517.0, 517.0, 519.0, 521.0, 526.0, 527.0, 529.0, 530.0, 532.0, 532.0, 532.0, 532.0, 532.0]	[0.016140308405738324, 0.021716666291467845, 0.03066163999028504, 0.04729104449506849, 0.06444541917880997, 0.0805597520666197, 0.09774996672058478, 0.11402199551230296, 0.13113609293941408, 0.14747843629447743, 0.16443654452450573, 0.1808205305133015, 0.19780731067294255, 0.2138711262959987, 0.23092310113133863, 0.24750915629556403, 0.2645078831119463, 0.28077752253739163, 0.2977451880578883, 0.31414624076569453, 0.33106407162267715, 0.3472159511875361, 0.364339264575392, 0.38088470115326345, 0.3978322279872373, 0.41411654476542026, 0.43128047679783776, 0.4471678232657723, 0.46428260329412296, 0.48062631202628836, 0.49772573210066184, 0.5139564595883712, 0.5311770528787747, 0.5474637589650229, 0.5644682885031216, 0.5805577040882781, 0.5977404094301164, 0.614157504751347, 0.6310517836827785, 0.6475067669525743, 0.6644358618650585, 0.6808031225227751, 0.6977881960337982, 0.7140339422039688, 0.7311268769553863, 0.7472193645080552, 0.764360427216161, 0.7809195170993917, 0.7977892200578935, 0.8141950513818301, 0.8311217569280416, 0.8473535084049217, 0.864405483182054, 0.880864221137017, 0.8978206226602197, 0.9142175793531351, 0.9309405090752989, 0.9471831832197495, 0.9642334513482638, 0.9808328184881248, 0.9977417747722939, 1.0141373660881072, 1.0310019490425475, 1.047475705621764, 1.064334144582972, 1.0806048080557957, 1.0977960466989316, 1.1139349556178786, 1.1312132342136465, 1.1475275882403366, 1.1643655472435057, 1.18080073321471, 1.1977369961095974, 1.214125078113284, 1.2311111756134778, 1.2474828736158088, 1.2644413231755607, 1.280850567854941, 1.297795364051126, 1.3141397554427385, 1.3310234530363232, 1.3474449856439605, 1.3643952432321385, 1.3806652239873074]
8	inanimate/n71.jpg	animate	inanimate	right	1.679	[0.0, 1.0, 1.0, 1.0, 1.0, 1.0, 1.0, 1.0, 1.0, 1.0, 1.0, 1.0, 1.0, 1.0, -7.0, -7.0, -7.0, -7.0, -8.0, -8.0, -8.0, -8.0, -8.0, -8.0, -3.0, 8.0, 19.0, 23.0, 19.0, 3.0, -21.0, -45.0, -78.0, -122.0, -173.0, -219.0, -265.0, -302.0, -338.0, -373.0, -402.0, -449.0, -475.0, -502.0, -532.0, -569.0, -610.0, -654.0, -697.0, -732.0, -758.0, -777.0, -791.0, -799.0, -808.0, -816.0, -823.0, -828.0, -828.0, -828.0, -828.0, -828.0, -828.0, -719.0, -652.0, -375.0, -156.0, 67.0, 307.0, 550.0, 787.0, 959.0, 959.0, 959.0, 959.0, 959.0, 959.0, 959.0, 959.0, 959.0, 959.0, 959.0, 959.0, 959.0, 959.0, 959.0, 959.0, 959.0, 956.0, 949.0, 941.0, 931.0, 923.0, 918.0, 913.0, 910.0, 910.0, 910.0, 910.0, 910.0, 910.0]	[-490.0, -489.0, -489.0, -489.0, -489.0, -489.0, -489.0, -489.0, -489.0, -489.0, -489.0, -489.0, -489.0, -489.0, -489.0, -489.0, -489.0, -489.0, -489.0, -480.0, -475.0, -469.0, -469.0, -463.0, -452.0, -426.0, -373.0, -299.0, -202.0, -153.0, -104.0, -59.0, -17.0, 26.0, 67.0, 99.0, 125.0, 147.0, 166.0, 187.0, 204.0, 231.0, 246.0, 261.0, 275.0, 290.0, 309.0, 329.0, 347.0, 361.0, 373.0, 382.0, 389.0, 394.0, 402.0, 409.0, 415.0, 418.0, 418.0, 418.0, 418.0, 418.0, 420.0, 451.0, 472.0, 537.0, 540.0, 540.0, 540.0, 540.0, 540.0, 525.0, 502.0, 487.0, 483.0, 483.0, 483.0, 483.0, 483.0, 483.0, 483.0, 483.0, 483.0, 483.0, 483.0, 483.0, 483.0, 483.0, 478.0, 475.0, 472.0, 468.0, 464.0, 462.0, 460.0, 460.0, 460.0, 460.0, 460.0, 460.0, 460.0]	[0.011239789833780378, 0.01949527079705149, 0.024781836953479797, 0.03744085552170873, 0.05435629707062617, 0.07063412852585316, 0.08769327128538862, 0.103965982736554, 0.12104219215689227, 0.13735893554985523, 0.15450648358091712, 0.1706156965228729, 0.18769907392561436, 0.204124019946903, 0.221023760153912, 0.23750229546567425, 0.2544918062631041, 0.2708447310142219, 0.28769873263081536, 0.30415883590467274, 0.32099747750908136, 0.3374357355060056, 0.3544982916209847, 0.370535483234562, 0.3876837139832787, 0.4039151241304353, 0.4211049974546768, 0.43740774621255696, 0.4543682436924428, 0.4709409868810326, 0.48759360203985125, 0.5041892145527527, 0.5210753014544025, 0.5374371008365415, 0.5543470810516737, 0.5707747577107511, 0.5877571005839854, 0.6041380146052688, 0.6210493601392955, 0.63744222081732, 0.6544368516770191, 0.6708061603712849, 0.687707265955396, 0.7041830705711618, 0.7211596107226796, 0.7374374421779066, 0.7543334277579561, 0.7707959203398786, 0.7877369619091041, 0.8039984093629755, 0.821123770729173, 0.8372947649331763, 0.8544047663453966, 0.8706832804600708, 0.8876451433170587, 0.9039137587533332, 0.9210705228033476, 0.9374794261530042, 0.9544245636789128, 0.9708604323095642, 0.9877120446180925, 1.004185801197309, 1.0210210295044817, 1.037494786141906, 1.054423539666459, 1.0708082083729096, 1.087573463388253, 1.104198430548422, 1.121185210708063, 1.1374814741429873, 1.154415347671602, 1.170840293634683, 1.1876676713000052, 1.2042233478277922, 1.2211476640659384, 1.2372387863579206, 1.254476446309127, 1.2708655523019843, 1.2878625724697486, 1.3041752199060284, 1.3210425334982574, 1.3374729407951236, 1.3544378756778315, 1.3709150456124917, 1.3878134205006063, 1.404189214517828, 1.4210667681181803, 1.4374746474786662, 1.4544061316992156, 1.4708184483461082, 1.4877984018530697, 1.5039912413922139, 1.520936720247846, 1.5374295915244147, 1.5544030597084202, 1.5707512057269923, 1.5877294525853358, 1.6038748468272388, 1.6209985015448183, 1.6372572183026932, 1.654357321036514]
9	inanimate/n7.jpg	animate	inanimate	left	1.081	[0.0, 0.0, 0.0, 0.0, 0.0, 0.0, 0.0, 0.0, 0.0, 0.0, 0.0, 0.0, 0.0, 0.0, 0.0, 0.0, 1.0, 2.0, 2.0, 2.0, 2.0, 2.0, 2.0, 2.0, 2.0, 2.0, 2.0, 3.0, 9.0, 18.0, 30.0, 45.0, 57.0, 67.0, 71.0, 71.0, 57.0, 25.0, -44.0, -108.0, -181.0, -263.0, -344.0, -409.0, -459.0, -496.0, -520.0, -539.0, -552.0, -561.0, -586.0, -594.0, -624.0, -638.0, -649.0, -666.0, -691.0, -713.0, -744.0, -767.0, -784.0, -790.0, -790.0, -790.0, -790.0]	[-490.0, -490.0, -490.0, -490.0, -490.0, -490.0, -490.0, -490.0, -490.0, -490.0, -490.0, -490.0, -490.0, -490.0, -490.0, -490.0, -486.0, -484.0, -483.0, -483.0, -483.0, -483.0, -483.0, -483.0, -483.0, -483.0, -482.0, -481.0, -457.0, -429.0, -403.0, -368.0, -335.0, -303.0, -263.0, -203.0, -121.0, -35.0, 77.0, 141.0, 190.0, 229.0, 267.0, 295.0, 316.0, 328.0, 335.0, 340.0, 344.0, 346.0, 354.0, 356.0, 365.0, 368.0, 372.0, 377.0, 384.0, 392.0, 405.0, 416.0, 423.0, 427.0, 427.0, 427.0, 427.0]	[0.0031574671738781035, 0.008478166651912034, 0.02098392666084692, 0.03814000799320638, 0.05434479418909177, 0.07139164896216244, 0.08780294161988422, 0.10487573774298653, 0.12126245442777872, 0.13814034935785457, 0.15450795134529471, 0.1714425075915642, 0.18773023766698316, 0.20488734304672107, 0.22119179845321923, 0.23811372538330033, 0.2544768900843337, 0.2714442142751068, 0.2875947284628637, 0.3047009751899168, 0.3212808863609098, 0.33817653061123565, 0.35452979669207707, 0.3714882461936213, 0.3878002109704539, 0.404828975093551, 0.4209245346719399, 0.4380717413732782, 0.4546188845997676, 0.4714524062583223, 0.48769576306222007, 0.5047214551595971, 0.5211522038443945, 0.538172434666194, 0.5544724527280778, 0.5715230621863157, 0.5878254696144722, 0.6048402391024865, 0.6212576757534407, 0.6381987172644585, 0.6544639194034971, 0.6714394355658442, 0.687694056367036, 0.7047682178090326, 0.7211405985290185, 0.7381505893426947, 0.7546093272976577, 0.771411104942672, 0.7877848509815522, 0.8048525271005929, 0.8212044278043322, 0.8381485413410701, 0.8545212633325718, 0.8715070195030421, 0.8877868989948183, 0.9046777645708062, 0.9211562998243608, 0.9381068986840546, 0.9544970287242904, 0.9714431902393699, 0.9877578856539913, 1.0047275992110372, 1.0211590304970741, 1.0381301093730144, 1.0545287726563402]
10	inanimate/n30.jpg	animate	inanimate	left	2.148	[0.0, 0.0, 0.0, 0.0, 0.0, 0.0, 0.0, -2.0, -3.0, -3.0, -3.0, -3.0, -3.0, -3.0, -1.0, 0.0, 0.0, 0.0, 0.0, -1.0, -3.0, -7.0, -9.0, -10.0, -14.0, -16.0, -18.0, -18.0, -19.0, -20.0, -20.0, -21.0, -25.0, -32.0, -46.0, -69.0, -116.0, -223.0, -308.0, -386.0, -455.0, -521.0, -578.0, -622.0, -650.0, -662.0, -665.0, -665.0, -665.0, -665.0, -651.0, -630.0, -607.0, -585.0, -559.0, -531.0, -504.0, -472.0, -428.0, -368.0, -303.0, -249.0, -237.0, -235.0, -235.0, -235.0, -235.0, -235.0, -235.0, -235.0, -235.0, -235.0, -235.0, -235.0, -235.0, -236.0, -236.0, -236.0, -236.0, -236.0, -236.0, -237.0, -242.0, -250.0, -265.0, -280.0, -286.0, -293.0, -298.0, -302.0, -304.0, -307.0, -308.0, -310.0, -312.0, -316.0, -318.0, -325.0, -330.0, -345.0, -383.0, -443.0, -526.0, -608.0, -689.0, -749.0, -793.0, -816.0, -828.0, -830.0, -830.0, -830.0, -830.0, -830.0, -830.0, -830.0, -830.0, -830.0, -830.0, -830.0, -830.0, -830.0, -830.0, -830.0, -830.0, -830.0, -830.0, -830.0, -830.0]	[-490.0, -490.0, -490.0, -490.0, -490.0, -490.0, -488.0, -484.0, -481.0, -478.0, -477.0, -475.0, -471.0, -466.0, -453.0, -441.0, -428.0, -413.0, -403.0, -395.0, -385.0, -372.0, -362.0, -351.0, -339.0, -333.0, -325.0, -320.0, -314.0, -307.0, -293.0, -273.0, -249.0, -220.0, -182.0, -137.0, -62.0, 75.0, 160.0, 228.0, 280.0, 327.0, 367.0, 399.0, 418.0, 426.0, 429.0, 429.0, 429.0, 429.0, 437.0, 443.0, 447.0, 449.0, 453.0, 457.0, 461.0, 466.0, 480.0, 496.0, 513.0, 525.0, 526.0, 527.0, 527.0, 527.0, 527.0, 527.0, 527.0, 527.0, 527.0, 527.0, 527.0, 527.0, 527.0, 527.0, 527.0, 527.0, 527.0, 527.0, 527.0, 527.0, 527.0, 527.0, 527.0, 525.0, 524.0, 522.0, 520.0, 520.0, 519.0, 517.0, 517.0, 516.0, 516.0, 514.0, 513.0, 510.0, 509.0, 506.0, 499.0, 491.0, 473.0, 460.0, 449.0, 441.0, 434.0, 431.0, 429.0, 429.0, 429.0, 429.0, 429.0, 429.0, 429.0, 429.0, 429.0, 429.0, 429.0, 429.0, 429.0, 429.0, 429.0, 429.0, 429.0, 429.0, 429.0, 429.0, 429.0]	[0.016712723940145224, 0.025141260703094304, 0.031584263197146356, 0.04870416328776628, 0.06493113609030843, 0.08203601749846712, 0.09835958754410967, 0.11527878377819434, 0.13171055645216256, 0.14870177395641804, 0.1650499199749902, 0.18205103615764529, 0.19846949679777026, 0.21539893303997815, 0.23180305771529675, 0.248724301927723, 0.26488164282636717, 0.28209131344920024, 0.29838109156116843, 0.31522007449530065, 0.33166686579352245, 0.34868504863698035, 0.36506050132447854, 0.3821080387569964, 0.39811621711123735, 0.4152900477638468, 0.4317853084066883, 0.4486437473096885, 0.4649062188109383, 0.4820356761920266, 0.49838143290253356, 0.515287317102775, 0.5317388870753348, 0.5487615072051995, 0.5650366080226377, 0.5820950681227259, 0.5984036195441149, 0.6152084692148492, 0.6318918042816222, 0.6485587554052472, 0.6651775785721838, 0.6821315907291137, 0.6983926968532614, 0.7151948158862069, 0.7317167004221119, 0.7487010912736878, 0.7651772372191772, 0.7819670682074502, 0.79838621156523, 0.8153589970897883, 0.8318638149648905, 0.84876287257066, 0.8649860907462426, 0.8820250948192552, 0.898378019570373, 0.91519379185047, 0.9317074844730087, 0.9486840246245265, 0.9650263680377975, 0.9819677508785389, 0.998423075536266, 1.015217685198877, 1.0318132977117784, 1.0487410272471607, 1.065063914633356, 1.081984476186335, 1.098478030122351, 1.1152569385012612, 1.1314740126254037, 1.1486273633199744, 1.1650690346723422, 1.1820974574657157, 1.1983083875966258, 1.2153501224238425, 1.231576753896661, 1.248658083321061, 1.2652236585272476, 1.282055132149253, 1.2984155662124977, 1.3153641170356423, 1.3314596766722389, 1.3487222539260983, 1.365073130640667, 1.3819684335612692, 1.3983728995663114, 1.4152770771179348, 1.4317433244432323, 1.4487696992000565, 1.4649410347337835, 1.4819244015961885, 1.4983640249120072, 1.5152729811379686, 1.5317429830902256, 1.5487546805525199, 1.5651304745697416, 1.582051377510652, 1.598427854187321, 1.6152876584674232, 1.631850844307337, 1.6487154272617772, 1.6650949759641662, 1.6820906308130361, 1.6983715342357755, 1.7153170130914077, 1.731744007091038, 1.7486655926331878, 1.7648642348358408, 1.781946929579135, 1.798434680851642, 1.8153890343965031, 1.8319047749391757, 1.8487509259139188, 1.8650468480191194, 1.8820769774611108, 1.8984363875351846, 1.9153644584002905, 1.9315579805988818, 1.9487099659163505, 1.9650441173580475, 1.981977308227215, 1.9984316088375635, 2.015393130364828, 2.0317897457280196, 2.048774477909319, 2.0650676693185233, 2.0821510467212647, 2.0984766648034565, 2.1154037116793916, 2.13169656181708]
11	inanimate/n74.jpg	animate	inanimate	right	1.219	[0.0, 0.0, 0.0, 0.0, 0.0, 0.0, 0.0, 0.0, 0.0, 0.0, 0.0, 0.0, 0.0, 0.0, 0.0, 0.0, 0.0, 0.0, 0.0, 0.0, 0.0, 0.0, 0.0, 0.0, 0.0, 0.0, -4.0, -7.0, -9.0, -12.0, -13.0, -9.0, 6.0, 8.0, 3.0, -19.0, -37.0, -48.0, -52.0, -54.0, -56.0, -56.0, -29.0, 20.0, 107.0, 206.0, 334.0, 471.0, 614.0, 749.0, 863.0, 957.0, 959.0, 959.0, 959.0, 959.0, 959.0, 959.0, 959.0, 959.0, 959.0, 959.0, 959.0, 959.0, 953.0, 946.0, 941.0, 940.0, 938.0, 936.0, 936.0, 936.0, 936.0, 936.0]	[-490.0, -490.0, -490.0, -490.0, -490.0, -490.0, -490.0, -490.0, -490.0, -490.0, -490.0, -490.0, -490.0, -490.0, -490.0, -490.0, -490.0, -490.0, -490.0, -490.0, -490.0, -490.0, -490.0, -490.0, -490.0, -490.0, -490.0, -490.0, -490.0, -490.0, -490.0, -451.0, -343.0, -183.0, -15.0, 147.0, 266.0, 340.0, 370.0, 390.0, 406.0, 414.0, 438.0, 462.0, 484.0, 496.0, 514.0, 531.0, 540.0, 540.0, 540.0, 540.0, 540.0, 540.0, 540.0, 540.0, 540.0, 540.0, 540.0, 540.0, 540.0, 540.0, 540.0, 538.0, 527.0, 518.0, 513.0, 512.0, 510.0, 508.0, 508.0, 508.0, 508.0, 508.0]	[0.01611870201304555, 0.034234270511660725, 0.03963450057199225, 0.04735477134818211, 0.06401216512313113, 0.0810945185367018, 0.09736791264731437, 0.11442466609878466, 0.13067962822970003, 0.14775378967169672, 0.1641794182942249, 0.18117507314309478, 0.19748635520227253, 0.21454788732808083, 0.23103666258975863, 0.24787428020499647, 0.2641674716724083, 0.28122115309815854, 0.2974385686102323, 0.3144963460508734, 0.3309178787167184, 0.34784424293320626, 0.36415859701810405, 0.3812491424032487, 0.39731398201547563, 0.41454515664372593, 0.4308895480353385, 0.4478735975571908, 0.46401523711392656, 0.48100952664390206, 0.49752356053795666, 0.5143529861816205, 0.5308881827513687, 0.5478749629110098, 0.564239151601214, 0.581064481229987, 0.5973976086243056, 0.6144577754312195, 0.6308369827456772, 0.6477053203852847, 0.6639322931878269, 0.6810822305851616, 0.697487379249651, 0.7144400260876864, 0.7307458468712866, 0.7478114749537781, 0.7642057009506971, 0.7810538999037817, 0.7974921579007059, 0.8143946288037114, 0.8306096549495123, 0.8477595923468471, 0.863926149206236, 0.8810098679387011, 0.8975488191936165, 0.9144704047357664, 0.930874529411085, 0.9479166055098176, 0.9641623516799882, 0.981103393191006, 0.997413651261013, 1.0143765381653793, 1.030850977404043, 1.0478848615312018, 1.0641893169959076, 1.0811020278488286, 1.0974890858633444, 1.1144383194041438, 1.130861900106538, 1.1477664189878851, 1.1642033116077073, 1.181158006482292, 1.1975276565062813, 1.2145328687038273]
12	inanimate/n9.jpg	animate	inanimate	left	1.23	[0.0, 0.0, 0.0, 0.0, 0.0, 0.0, 0.0, 0.0, 0.0, 0.0, 0.0, 0.0, 0.0, 1.0, 1.0, 1.0, 1.0, 1.0, 1.0, 1.0, 1.0, 1.0, 1.0, 0.0, -1.0, -3.0, -5.0, -7.0, -10.0, -15.0, -22.0, -34.0, -52.0, -73.0, -91.0, -97.0, -102.0, -108.0, -123.0, -130.0, -140.0, -151.0, -169.0, -199.0, -245.0, -310.0, -401.0, -500.0, -577.0, -625.0, -657.0, -664.0, -664.0, -664.0, -664.0, -664.0, -664.0, -665.0, -665.0, -666.0, -668.0, -677.0, -705.0, -732.0, -752.0, -763.0, -774.0, -784.0, -788.0, -789.0, -789.0, -789.0, -789.0, -789.0]	[-490.0, -490.0, -490.0, -490.0, -490.0, -490.0, -490.0, -490.0, -490.0, -490.0, -490.0, -490.0, -490.0, -490.0, -489.0, -489.0, -489.0, -487.0, -482.0, -474.0, -468.0, -464.0, -461.0, -456.0, -452.0, -447.0, -436.0, -427.0, -418.0, -409.0, -395.0, -376.0, -349.0, -321.0, -298.0, -283.0, -269.0, -250.0, -211.0, -185.0, -161.0, -136.0, -107.0, -70.0, -26.0, 17.0, 68.0, 123.0, 166.0, 197.0, 219.0, 225.0, 227.0, 229.0, 234.0, 238.0, 240.0, 243.0, 245.0, 249.0, 260.0, 276.0, 315.0, 354.0, 376.0, 392.0, 408.0, 423.0, 432.0, 435.0, 438.0, 438.0, 438.0, 438.0]	[0.0056081360089592636, 0.018604732933454216, 0.026338657015003264, 0.04329301050165668, 0.05960599926766008, 0.07649584085447714, 0.09304878674447536, 0.1100017749122344, 0.1263495796592906, 0.14324385859072208, 0.15964081522542983, 0.17659312079194933, 0.1929945147712715, 0.20984544442035258, 0.22625571308890358, 0.24319914396619424, 0.25970088987378404, 0.27659312076866627, 0.29295526148052886, 0.3099072256591171, 0.3262912117061205, 0.3432052879361436, 0.35941246344009414, 0.37662315811030567, 0.3927658216562122, 0.4098853803589009, 0.42629223567200825, 0.4431312186643481, 0.4597534551285207, 0.4766344220843166, 0.4930085094529204, 0.5098730924073607, 0.5263113503460772, 0.5431476026424207, 0.5595633326447569, 0.5765634247800335, 0.5930225040647201, 0.6100273749325424, 0.626496352837421, 0.6431936825974844, 0.6596831405186094, 0.6767330673174001, 0.6929450214956887, 0.7099174656905234, 0.7261222518282011, 0.7431803705985658, 0.7596353539265692, 0.7766460273996927, 0.79299963475205, 0.8099683243199252, 0.8262809716979973, 0.8432817465509288, 0.8595906393020414, 0.87650027818745, 0.892934781499207, 0.9098662657197565, 0.9263031583395787, 0.9432773091830313, 0.9596278445678763, 0.9764579528709874, 0.9929743761313148, 1.0099434069707058, 1.0264700702391565, 1.043327485152986, 1.0596438872162253, 1.0766043847543187, 1.0927518269745633, 1.1099314603488892, 1.126366987649817, 1.143323047843296, 1.159581764601171, 1.1766122354310937, 1.193091112014372, 1.2099836842971854]
13	inanimate/n41.jpg	animate	inanimate	right	1.216	[0.0, 0.0, 0.0, 0.0, 0.0, 0.0, 0.0, 0.0, 0.0, 0.0, 0.0, 0.0, 0.0, 0.0, 0.0, 0.0, 0.0, 0.0, 0.0, 0.0, 0.0, 0.0, 0.0, 0.0, 0.0, 0.0, 0.0, 0.0, 0.0, 0.0, 0.0, 0.0, 1.0, 5.0, 8.0, 13.0, 23.0, 36.0, 53.0, 65.0, 65.0, 47.0, 18.0, -17.0, -61.0, -105.0, -146.0, -174.0, -195.0, -209.0, -216.0, -220.0, -220.0, -217.0, -185.0, -92.0, 46.0, 223.0, 424.0, 638.0, 808.0, 948.0, 959.0, 959.0, 959.0, 959.0, 959.0, 959.0, 959.0, 959.0, 959.0, 959.0, 959.0, 959.0]	[-490.0, -490.0, -490.0, -490.0, -490.0, -490.0, -490.0, -490.0, -490.0, -490.0, -490.0, -490.0, -490.0, -490.0, -490.0, -489.0, -486.0, -485.0, -483.0, -481.0, -480.0, -480.0, -478.0, -477.0, -474.0, -474.0, -473.0, -473.0, -473.0, -471.0, -469.0, -467.0, -461.0, -450.0, -445.0, -436.0, -417.0, -387.0, -342.0, -289.0, -226.0, -129.0, -59.0, 7.0, 65.0, 106.0, 142.0, 164.0, 182.0, 195.0, 202.0, 207.0, 208.0, 219.0, 238.0, 271.0, 309.0, 356.0, 399.0, 435.0, 461.0, 478.0, 480.0, 480.0, 480.0, 480.0, 480.0, 480.0, 480.0, 480.0, 480.0, 480.0, 480.0, 480.0]	[0.00951718440046534, 0.015043707680888474, 0.020842273370362818, 0.03381361166248098, 0.05099938897183165, 0.06739259097957984, 0.08433363254880533, 0.10064696264453232, 0.11757776414742693, 0.13404264609562233, 0.1509495543432422, 0.16728472977411002, 0.18430393654853106, 0.20065822661854327, 0.2176521747605875, 0.23401670483872294, 0.2510092876618728, 0.26736255368450657, 0.2842889179009944, 0.30074424255872145, 0.3177102013723925, 0.3340020275209099, 0.35105673293583095, 0.36732842039782554, 0.3841950513306074, 0.4006787065882236, 0.41768323606811464, 0.43380268901819363, 0.4509454583749175, 0.46735914034070447, 0.4843107632477768, 0.5007145465351641, 0.5176702654571272, 0.5340044168406166, 0.5509338530246168, 0.5673700630431995, 0.5843059845501557, 0.6007135225809179, 0.617653540102765, 0.6340139741660096, 0.6510365942958742, 0.6674338923185132, 0.6844199898187071, 0.7006995279225521, 0.7174794602324255, 0.7339620915008709, 0.7509464823524468, 0.767408974992577, 0.784344213840086, 0.8006343332817778, 0.8175804948550649, 0.8340040754992515, 0.8508956237346865, 0.8673867883626372, 0.884300181933213, 0.900702599901706, 0.9176658280775882, 0.9339893981814384, 0.9508707064087503, 0.9673195457435213, 0.984295403235592, 1.000683143909555, 1.0176644627936184, 1.033996224810835, 1.050884359749034, 1.067343097703997, 1.0842868699110113, 1.1007268345565535, 1.1176781160756946, 1.134033088805154, 1.1508683171123266, 1.1671174765797332, 1.1841906139743514, 1.2004128081607632]
14	inanimate/n42.jpg	inanimate	animate	left	2.15	[0.0, 0.0, 0.0, 0.0, 0.0, 0.0, 0.0, 0.0, 0.0, 0.0, 0.0, 0.0, 0.0, 0.0, 0.0, 0.0, 0.0, 0.0, 0.0, 0.0, 0.0, 0.0, 0.0, 0.0, 0.0, 0.0, 0.0, 0.0, 0.0, 0.0, -1.0, -1.0, -9.0, -13.0, -18.0, -26.0, -37.0, -48.0, -69.0, -91.0, -107.0, -123.0, -143.0, -160.0, -176.0, -188.0, -207.0, -219.0, -234.0, -250.0, -268.0, -288.0, -306.0, -323.0, -337.0, -351.0, -365.0, -378.0, -393.0, -410.0, -425.0, -440.0, -450.0, -464.0, -479.0, -497.0, -513.0, -524.0, -535.0, -552.0, -579.0, -599.0, -620.0, -642.0, -661.0, -681.0, -697.0, -708.0, -709.0, -708.0, -673.0, -596.0, -410.0, -226.0, -14.0, 216.0, 418.0, 584.0, 682.0, 712.0, 725.0, 728.0, 730.0, 732.0, 739.0, 748.0, 751.0, 751.0, 751.0, 751.0, 751.0, 751.0, 748.0, 728.0, 626.0, 574.0, 342.0, 121.0, -84.0, -270.0, -416.0, -538.0, -641.0, -701.0, -728.0, -737.0, -737.0, -737.0, -738.0, -740.0, -744.0, -749.0, -754.0, -756.0, -756.0, -756.0, -756.0, -756.0, -756.0]	[-490.0, -490.0, -490.0, -490.0, -490.0, -490.0, -490.0, -490.0, -490.0, -490.0, -490.0, -490.0, -490.0, -490.0, -490.0, -490.0, -490.0, -490.0, -490.0, -490.0, -490.0, -490.0, -490.0, -490.0, -490.0, -490.0, -490.0, -490.0, -490.0, -490.0, -489.0, -473.0, -417.0, -396.0, -320.0, -255.0, -194.0, -121.0, -48.0, 20.0, 78.0, 123.0, 159.0, 190.0, 219.0, 240.0, 270.0, 282.0, 293.0, 302.0, 313.0, 321.0, 329.0, 335.0, 341.0, 347.0, 355.0, 360.0, 363.0, 367.0, 371.0, 375.0, 377.0, 379.0, 379.0, 379.0, 379.0, 379.0, 379.0, 382.0, 386.0, 389.0, 391.0, 396.0, 398.0, 402.0, 406.0, 410.0, 411.0, 415.0, 428.0, 456.0, 508.0, 536.0, 540.0, 540.0, 536.0, 506.0, 477.0, 468.0, 466.0, 466.0, 466.0, 466.0, 467.0, 469.0, 469.0, 469.0, 469.0, 469.0, 469.0, 469.0, 465.0, 454.0, 426.0, 418.0, 405.0, 405.0, 405.0, 405.0, 406.0, 425.0, 440.0, 448.0, 452.0, 454.0, 454.0, 454.0, 454.0, 454.0, 454.0, 453.0, 453.0, 453.0, 453.0, 453.0, 453.0, 453.0, 453.0]	[0.014956906787119806, 0.02168492233613506, 0.028354228648822755, 0.04533520620316267, 0.06168232823256403, 0.07860971643822268, 0.09497970779193565, 0.11194908001925796, 0.12807092221919447, 0.1452082303003408, 0.161674136237707, 0.17866364709334448, 0.19495581451337785, 0.21198765066219494, 0.22806341294199228, 0.24517000099876896, 0.26166526158340275, 0.2786697910632938, 0.2948325932957232, 0.3120146159781143, 0.32834740198450163, 0.3453430568333715, 0.3616440989426337, 0.3786247351090424, 0.39496503048576415, 0.41191665339283645, 0.428312927368097, 0.44525226223049685, 0.46162464295048267, 0.47861347114667296, 0.49472439067903906, 0.5119350853492506, 0.528341940662358, 0.5453720701625571, 0.5614334964193404, 0.5785568098071963, 0.5951176063972525, 0.6119695599772967, 0.6281313382205553, 0.6452635262394324, 0.6616894962498918, 0.6786107404623181, 0.694958203821443, 0.7118739867582917, 0.7280593169271015, 0.7453078995458782, 0.7615277043660171, 0.7785516898147762, 0.7950134997954592, 0.8120371439144947, 0.8283357967156917, 0.8453396435361356, 0.8617553734802641, 0.8786131297820248, 0.8949889237992465, 0.9120002799900249, 0.9283590073464438, 0.9452317822724581, 0.9617260188679211, 0.978655455110129, 0.9950128171476535, 1.0119405466830358, 1.0283265807083808, 1.0452741075423546, 1.0616949575487524, 1.078606985800434, 1.0949073451920412, 1.1118835440720432, 1.1283047354081646, 1.1452642088988796, 1.161683693586383, 1.1784909325651824, 1.1950438784551807, 1.2120234906324185, 1.2282951780362055, 1.2451973076094873, 1.2616553629050031, 1.2785438391729258, 1.2949718571617268, 1.3119579546619207, 1.3283716366859153, 1.345370022172574, 1.3616437576129101, 1.3785295031848364, 1.3951711956760846, 1.4120490906061605, 1.4282890340546146, 1.4452628435683437, 1.4613785418332554, 1.4785455458331853, 1.494986875797622, 1.5117941147764213, 1.5283395513542928, 1.5452758142491803, 1.5616932509001344, 1.5786895884084515, 1.5949626411893405, 1.6120047172880732, 1.6281743461731821, 1.645263867569156, 1.6615113203879446, 1.6785240418394096, 1.6949950677808374, 1.7118756934069097, 1.7283258980023675, 1.7452771795797162, 1.7616905202157795, 1.7785329165053554, 1.7950599211035296, 1.811994818621315, 1.8281873168307357, 1.8451853609876707, 1.8616031389683485, 1.8784564579254948, 1.8949786837911233, 1.9119443013332784, 1.9282391994493082, 1.945320528873708, 1.961671064258553, 1.9785318925278261, 1.9950807424029335, 2.0120521626085974, 2.028300639358349, 2.0452290516113862, 2.0614502217504196, 2.078530185855925, 2.095017937128432, 2.1119521519867703, 2.128061364928726]
15	animate/a27.jpg	animate	inanimate	left	1.022	[0.0, 0.0, 0.0, 0.0, 0.0, 0.0, -1.0, -4.0, -8.0, -10.0, -10.0, -11.0, -12.0, -12.0, -12.0, -12.0, -12.0, -12.0, -12.0, -12.0, -12.0, -12.0, -12.0, -12.0, -10.0, -7.0, 1.0, 11.0, 28.0, 39.0, 55.0, 69.0, 87.0, 89.0, 73.0, 38.0, -14.0, -73.0, -129.0, -185.0, -240.0, -291.0, -341.0, -391.0, -450.0, -479.0, -504.0, -531.0, -559.0, -596.0, -632.0, -664.0, -690.0, -713.0, -731.0, -742.0, -742.0, -742.0, -742.0, -742.0, -742.0]	[-490.0, -490.0, -490.0, -490.0, -490.0, -490.0, -490.0, -486.0, -478.0, -476.0, -475.0, -472.0, -471.0, -471.0, -471.0, -471.0, -471.0, -471.0, -471.0, -471.0, -471.0, -471.0, -465.0, -450.0, -436.0, -414.0, -388.0, -353.0, -296.0, -206.0, -93.0, 21.0, 152.0, 210.0, 257.0, 300.0, 341.0, 373.0, 405.0, 427.0, 446.0, 459.0, 468.0, 477.0, 486.0, 492.0, 497.0, 501.0, 501.0, 501.0, 501.0, 502.0, 502.0, 502.0, 502.0, 501.0, 501.0, 499.0, 499.0, 499.0, 499.0]	[0.0038646069006063044, 0.00913513038540259, 0.022899726638570428, 0.03912157949525863, 0.05627288215328008, 0.07255651627201587, 0.08966071502072737, 0.10579313855851069, 0.12289733730722219, 0.1393960112472996, 0.1563507061218843, 0.17267154552973807, 0.18960405373945832, 0.2060900983051397, 0.22296662791632116, 0.23938030994031578, 0.256274247483816, 0.2725315989810042, 0.28954978176625445, 0.30578050925396383, 0.32299700658768415, 0.3394478938425891, 0.3563670900766738, 0.37274732143850997, 0.38967607502127066, 0.40600271709263325, 0.4229184999712743, 0.4394280965789221, 0.4563725514453836, 0.4726862228126265, 0.4897173763019964, 0.5059863330679946, 0.5229232786223292, 0.5394062512204982, 0.5563694794545881, 0.5726746175205335, 0.5895852803951129, 0.6060289997258224, 0.6229952999274246, 0.6394175152527168, 0.6563397834543139, 0.6727155774715357, 0.6896938243298791, 0.7060812236741185, 0.7230690278229304, 0.7394079578807577, 0.7562558155041188, 0.7727524414658546, 0.7896945069660433, 0.8060365090495907, 0.8228529640473425, 0.8393687045900151, 0.8563285194686614, 0.872698852152098, 0.889611221733503, 0.9060484556830488, 0.9229847185779363, 0.9394212698680349, 0.9564213620615192, 0.972633998899255, 0.989659690996632]
16	animate/a39.jpg	inanimate	animate	right	1.211	[0.0, 0.0, 0.0, 0.0, 0.0, 0.0, 0.0, 0.0, 0.0, 0.0, 0.0, 0.0, 0.0, 0.0, 0.0, 0.0, 0.0, 0.0, 0.0, 0.0, -3.0, -5.0, -7.0, -8.0, -10.0, -10.0, -11.0, -11.0, -11.0, -11.0, -11.0, -11.0, -11.0, -11.0, -11.0, -11.0, -11.0, -11.0, 9.0, 45.0, 66.0, 73.0, 73.0, 58.0, 18.0, -28.0, -77.0, -132.0, -190.0, -253.0, -307.0, -343.0, -354.0, -354.0, -315.0, -233.0, -106.0, 65.0, 243.0, 442.0, 615.0, 778.0, 899.0, 959.0, 959.0, 959.0, 959.0, 959.0, 959.0, 959.0, 959.0, 959.0, 959.0]	[-490.0, -490.0, -490.0, -490.0, -490.0, -490.0, -490.0, -490.0, -490.0, -490.0, -490.0, -490.0, -490.0, -490.0, -490.0, -490.0, -490.0, -490.0, -490.0, -490.0, -487.0, -481.0, -477.0, -474.0, -471.0, -470.0, -469.0, -469.0, -469.0, -469.0, -469.0, -469.0, -469.0, -469.0, -469.0, -469.0, -469.0, -464.0, -425.0, -342.0, -263.0, -172.0, -21.0, 85.0, 187.0, 272.0, 338.0, 389.0, 433.0, 478.0, 514.0, 540.0, 540.0, 540.0, 540.0, 540.0, 540.0, 540.0, 540.0, 540.0, 539.0, 508.0, 477.0, 458.0, 451.0, 449.0, 449.0, 449.0, 449.0, 449.0, 449.0, 449.0, 449.0]	[0.0003639975329861045, 0.0077791165094822645, 0.015745147073175758, 0.032798828498926014, 0.04881178552750498, 0.06608084810432047, 0.08250920742284507, 0.09944239829201251, 0.1157390030566603, 0.132721004600171, 0.14906368928495795, 0.166037498798687, 0.1824194368091412, 0.1994130436796695, 0.21585096028866246, 0.2325732073513791, 0.24910806259140372, 0.2660637814551592, 0.28241670614806935, 0.29954548086971045, 0.31573832040885463, 0.3328193085035309, 0.34905276662902907, 0.36602043214952573, 0.3824027114897035, 0.399385737022385, 0.4155256699305028, 0.43254078074824065, 0.44909509195713326, 0.4660497867735103, 0.48229655693285167, 0.49950554489623755, 0.5157359310542233, 0.5327093992382288, 0.5490415026433766, 0.5661047414178029, 0.582407490175683, 0.5993461423786357, 0.6154713979340158, 0.6326762899407186, 0.6490981639362872, 0.666093818785157, 0.6822897302918136, 0.6993751556728967, 0.7157697230577469, 0.7326824339106679, 0.7490599346347153, 0.7660262348363176, 0.7822736875968985, 0.7993720836821012, 0.8157608484034427, 0.8327520659076981, 0.8491179612465203, 0.8660770934657194, 0.8824764394667, 0.899387443671003, 0.9156775631126948, 0.9327623058925383, 0.9490746119408868, 0.9659593335236423, 0.9824109034962021, 0.9993717423640192, 1.015574821853079, 1.0326561512774788, 1.049086217302829, 1.0659743521828204, 1.0825255914242007, 1.0994488836149685, 1.115805562993046, 1.1327595752081834, 1.1489705053973012, 1.1659798135515302, 1.1824068074929528]
17	inanimate/n28.jpg	animate	inanimate	left	1.162	[0.0, 0.0, 0.0, 0.0, 0.0, 0.0, 0.0, 0.0, 0.0, 0.0, 2.0, 3.0, 6.0, 6.0, 6.0, 7.0, 7.0, 7.0, 7.0, 7.0, 7.0, 7.0, 7.0, 5.0, 1.0, -3.0, -8.0, -11.0, -16.0, -22.0, -31.0, -40.0, -54.0, -70.0, -90.0, -128.0, -161.0, -185.0, -216.0, -252.0, -301.0, -358.0, -424.0, -486.0, -539.0, -581.0, -618.0, -655.0, -670.0, -676.0, -680.0, -680.0, -681.0, -682.0, -682.0, -682.0, -684.0, -687.0, -691.0, -692.0, -694.0, -695.0, -695.0, -695.0, -695.0, -695.0, -695.0, -695.0, -695.0, -695.0, -695.0]	[-490.0, -490.0, -490.0, -490.0, -490.0, -490.0, -490.0, -490.0, -490.0, -490.0, -490.0, -488.0, -483.0, -481.0, -481.0, -480.0, -480.0, -480.0, -480.0, -480.0, -480.0, -480.0, -478.0, -456.0, -432.0, -401.0, -366.0, -331.0, -299.0, -271.0, -241.0, -215.0, -182.0, -147.0, -103.0, -30.0, 29.0, 73.0, 115.0, 156.0, 197.0, 239.0, 285.0, 328.0, 358.0, 380.0, 400.0, 416.0, 422.0, 426.0, 429.0, 432.0, 432.0, 433.0, 433.0, 433.0, 434.0, 434.0, 435.0, 435.0, 435.0, 435.0, 435.0, 435.0, 435.0, 435.0, 435.0, 435.0, 435.0, 435.0, 435.0]	[0.010255829140078276, 0.015507237985730171, 0.021392160968389362, 0.03544415964279324, 0.052414897130802274, 0.0687493899022229, 0.08573685272131115, 0.10210786806419492, 0.11912093090359122, 0.1354851195937954, 0.15234867855906487, 0.16852513409685344, 0.1856760954251513, 0.20213039603549987, 0.21913799754111096, 0.23546122625702992, 0.25244698248570785, 0.26867156592197716, 0.28565425012493506, 0.30209592141909525, 0.31908645626390353, 0.3355585061945021, 0.3523739372030832, 0.368825507175643, 0.3857501646853052, 0.40218705736333504, 0.4191656455514021, 0.4354107090039179, 0.4522657346096821, 0.46881731518078595, 0.485737876733765, 0.5020720281172544, 0.5190482269390486, 0.5354615676333196, 0.5524094357970171, 0.5685555126983672, 0.585681215452496, 0.6022051480249502, 0.6191482375143096, 0.6354038823628798, 0.6523493612185121, 0.6687787445262074, 0.6856501541333273, 0.7021310787531547, 0.7190707549452782, 0.7353311784099787, 0.7524189931573346, 0.7688947977731004, 0.7858225273084827, 0.8021815959946252, 0.8190827015787363, 0.8354407462757081, 0.8522469613235444, 0.8687439285567962, 0.8857368527096696, 0.9019989828229882, 0.9189127177232876, 0.9354516689782031, 0.9522380866110325, 0.9687702112132683, 0.9858078499673866, 1.0019235482322983, 1.019036621612031, 1.035443476983346, 1.0523271745769307, 1.0688456458155997, 1.0857924899901263, 1.102035164134577, 1.119104205572512, 1.135412756993901, 1.152362331864424]
18	animate/a66.jpg	animate	inanimate	left	1.563	[0.0, 0.0, 0.0, 0.0, 0.0, 0.0, 0.0, 0.0, 0.0, 0.0, 0.0, 0.0, 0.0, 0.0, 0.0, 0.0, 0.0, 0.0, 0.0, 0.0, 0.0, 0.0, 0.0, 0.0, 0.0, 0.0, 0.0, 0.0, 0.0, 0.0, 0.0, 0.0, 0.0, 0.0, 0.0, 0.0, 1.0, 4.0, 9.0, 16.0, 29.0, 48.0, 77.0, 109.0, 144.0, 193.0, 298.0, 395.0, 501.0, 594.0, 686.0, 774.0, 855.0, 918.0, 959.0, 959.0, 959.0, 959.0, 959.0, 959.0, 959.0, 956.0, 930.0, 849.0, 735.0, 583.0, 416.0, 243.0, 73.0, -92.0, -293.0, -403.0, -492.0, -553.0, -588.0, -607.0, -614.0, -618.0, -618.0, -621.0, -628.0, -645.0, -667.0, -677.0, -682.0, -686.0, -686.0, -686.0, -687.0, -688.0, -688.0, -688.0, -688.0, -688.0]	[-490.0, -490.0, -490.0, -490.0, -490.0, -490.0, -490.0, -490.0, -490.0, -490.0, -490.0, -490.0, -490.0, -490.0, -490.0, -490.0, -490.0, -490.0, -490.0, -490.0, -490.0, -490.0, -490.0, -488.0, -488.0, -488.0, -488.0, -488.0, -488.0, -488.0, -488.0, -488.0, -488.0, -488.0, -487.0, -486.0, -485.0, -482.0, -474.0, -463.0, -442.0, -403.0, -343.0, -260.0, -181.0, -91.0, 43.0, 130.0, 205.0, 261.0, 304.0, 332.0, 356.0, 377.0, 402.0, 414.0, 423.0, 428.0, 430.0, 431.0, 433.0, 437.0, 440.0, 451.0, 455.0, 455.0, 454.0, 430.0, 406.0, 384.0, 355.0, 333.0, 308.0, 297.0, 293.0, 293.0, 293.0, 294.0, 294.0, 295.0, 297.0, 304.0, 323.0, 339.0, 359.0, 382.0, 410.0, 435.0, 452.0, 459.0, 460.0, 460.0, 460.0, 460.0]	[0.0038455945323221385, 0.014233383000828326, 0.022561909223441035, 0.03961866267491132, 0.05600333138136193, 0.072952906251885, 0.08928842295426875, 0.10633698443416506, 0.12269639445003122, 0.13956200139364228, 0.15574699029093608, 0.17284675169503316, 0.18912185245426372, 0.2062403871677816, 0.22273735445924103, 0.23972823057556525, 0.25604190200101584, 0.27306588750798255, 0.2890884018270299, 0.3062837364850566, 0.32267454912653193, 0.33966849732678384, 0.3560251767048612, 0.3729808955686167, 0.38921879103872925, 0.40636429109144956, 0.4227107304614037, 0.4395998893887736, 0.4558599715237506, 0.47303380217636004, 0.4893679535598494, 0.5062687178142369, 0.5226817171205766, 0.5396142253885046, 0.5560262007056735, 0.5730730554787442, 0.5894485081662424, 0.6064014963922091, 0.6226612371392548, 0.6396046680165455, 0.6558558755205013, 0.6728754236246459, 0.6893089029472321, 0.7063567817676812, 0.7226998077821918, 0.7396903426270001, 0.7560753526631743, 0.7730890981038101, 0.7893573722685687, 0.8062950004823506, 0.8226271038874984, 0.839599889353849, 0.8560135713778436, 0.8729399355943315, 0.8892583856941201, 0.9062171765253879, 0.9226363198249601, 0.9396555266575888, 0.955995480704587, 0.9729904528940096, 0.9893512282287702, 1.0062987551209517, 1.0226274451706558, 1.039522748091258, 1.0560156193678267, 1.072941642254591, 1.0893048069556244, 1.1062980724382214, 1.1226346131879836, 1.1395964760449715, 1.155953838082496, 1.1730082022259012, 1.189414716209285, 1.2064359710202552, 1.2226523624849506, 1.2395937453838997, 1.255932675441727, 1.2729662182391621, 1.2893283589510247, 1.3063021684647538, 1.3226578238536604, 1.3397022892604582, 1.3559644194319844, 1.3730873914901167, 1.3893720495980233, 1.4063322057481855, 1.4226260798750445, 1.4395715587306768, 1.4558862541452982, 1.4728979516075924, 1.4893351856153458, 1.5063369843992405, 1.5226697704638354, 1.5395893080276437]
19	inanimate/n44.jpg	inanimate	animate	left	1.948	[0.0, 0.0, 0.0, 0.0, 0.0, 0.0, 0.0, 0.0, 0.0, 0.0, 0.0, 0.0, 0.0, 0.0, 0.0, 0.0, 0.0, 0.0, 0.0, 0.0, 0.0, 0.0, 0.0, 0.0, 0.0, 0.0, 0.0, 0.0, 0.0, 0.0, 0.0, 0.0, 0.0, 0.0, -3.0, -7.0, -15.0, -26.0, -43.0, -70.0, -105.0, -144.0, -185.0, -229.0, -267.0, -305.0, -348.0, -414.0, -457.0, -493.0, -522.0, -547.0, -572.0, -593.0, -611.0, -621.0, -635.0, -646.0, -652.0, -653.0, -653.0, -653.0, -653.0, -653.0, -653.0, -653.0, -654.0, -652.0, -638.0, -599.0, -472.0, -405.0, -164.0, 31.0, 226.0, 412.0, 579.0, 725.0, 838.0, 909.0, 938.0, 944.0, 944.0, 944.0, 944.0, 944.0, 944.0, 936.0, 914.0, 874.0, 806.0, 709.0, 585.0, 436.0, 263.0, 90.0, -159.0, -320.0, -454.0, -567.0, -646.0, -701.0, -744.0, -775.0, -795.0, -811.0, -821.0, -824.0, -824.0, -824.0, -824.0, -824.0, -824.0, -824.0, -824.0, -824.0, -824.0]	[-490.0, -490.0, -490.0, -490.0, -490.0, -490.0, -490.0, -490.0, -490.0, -490.0, -490.0, -490.0, -490.0, -490.0, -490.0, -490.0, -490.0, -490.0, -490.0, -490.0, -490.0, -490.0, -487.0, -479.0, -472.0, -469.0, -465.0, -458.0, -447.0, -432.0, -415.0, -398.0, -380.0, -363.0, -343.0, -317.0, -259.0, -209.0, -159.0, -109.0, -59.0, -14.0, 30.0, 71.0, 108.0, 139.0, 176.0, 223.0, 249.0, 267.0, 280.0, 288.0, 297.0, 307.0, 315.0, 320.0, 324.0, 325.0, 328.0, 329.0, 329.0, 329.0, 329.0, 329.0, 329.0, 329.0, 336.0, 347.0, 363.0, 384.0, 417.0, 427.0, 460.0, 471.0, 471.0, 471.0, 471.0, 455.0, 439.0, 429.0, 424.0, 424.0, 424.0, 424.0, 424.0, 424.0, 424.0, 424.0, 424.0, 424.0, 424.0, 424.0, 424.0, 425.0, 447.0, 451.0, 459.0, 470.0, 483.0, 492.0, 494.0, 494.0, 494.0, 494.0, 494.0, 494.0, 494.0, 494.0, 494.0, 494.0, 494.0, 494.0, 494.0, 494.0, 494.0, 494.0, 494.0]	[0.0161669323570095, 0.02405650424771011, 0.03029948560288176, 0.047459321620408446, 0.06385935033904389, 0.08098914904985577, 0.09724411118077114, 0.1142066566972062, 0.13055753341177478, 0.14766616944689304, 0.16404674213845283, 0.1809410210698843, 0.19748850562609732, 0.21432987792650238, 0.23071386391529813, 0.2477296573924832, 0.26379176636692137, 0.28091746906284243, 0.2973837163881399, 0.31435138190863654, 0.3304810748086311, 0.34761872416129336, 0.3640136328176595, 0.38091064244508743, 0.3974495936417952, 0.41435342986369506, 0.4307845198782161, 0.44776379072573036, 0.46376480103936046, 0.480914055777248, 0.4974448150023818, 0.5143237339216284, 0.5306578853051178, 0.5476630974444561, 0.5638931422727183, 0.5809222477255389, 0.5971789165632799, 0.6142503473092802, 0.6307077199453488, 0.6478023613453843, 0.6639931528479792, 0.6809737890143879, 0.6974349163356237, 0.7143145179143175, 0.730755165219307, 0.7476849427912384, 0.7640709768165834, 0.781006556993816, 0.7974041963461787, 0.8143725445261225, 0.8307681359001435, 0.8477818813407794, 0.8640088542015292, 0.8809652557247318, 0.8973413910716772, 0.9143124699476175, 0.9307080612634309, 0.9474886762909591, 0.9640631261281669, 0.9809748130501248, 0.9973983936943114, 1.0143865391728468, 1.0304892667918466, 1.047627598803956, 1.0640641501522623, 1.080989831709303, 1.097493966924958, 1.1144141871482134, 1.1306981625966728, 1.1477627666899934, 1.164013291534502, 1.1809741303441115, 1.197202127194032, 1.2143995098304003, 1.230772914539557, 1.2476985960965976, 1.2640173875261098, 1.2809700343641452, 1.2971249858965166, 1.314267072652001, 1.3318457243149169, 1.3475910762208514, 1.3640798514825292, 1.3810673143016174, 1.397389177698642, 1.4143756165285595, 1.4308319651754573, 1.4477470653946511, 1.4639938355539925, 1.4810297676594928, 1.4973413910483941, 1.5143930244958028, 1.5306954319239594, 1.5476197481621057, 1.5640446941251867, 1.5810229409835301, 1.5973352470900863, 1.6143018886214122, 1.6305797200184315, 1.6477276094374247, 1.6639904222101904, 1.6810045090387575, 1.6973785963491537, 1.7143083739210851, 1.7306606159545481, 1.747599609545432, 1.7640184115152806, 1.7809051810763776, 1.797376548347529, 1.8143343152478337, 1.8306667599827051, 1.8477081534219906, 1.864034112833906, 1.8809649143950082, 1.8973284204257652, 1.9142541019828059, 1.9306800719350576]
20	inanimate/n9.jpg	inanimate	animate	right	1.217	[0.0, 0.0, 0.0, 0.0, 0.0, 0.0, 0.0, 0.0, 0.0, 0.0, 0.0, 0.0, 0.0, 0.0, 0.0, 0.0, 0.0, 0.0, 0.0, 0.0, 0.0, 0.0, -1.0, -2.0, -2.0, 1.0, 48.0, 107.0, 165.0, 196.0, 222.0, 243.0, 265.0, 301.0, 329.0, 348.0, 354.0, 354.0, 318.0, 275.0, 248.0, 241.0, 243.0, 277.0, 338.0, 405.0, 462.0, 508.0, 578.0, 600.0, 657.0, 676.0, 681.0, 681.0, 681.0, 681.0, 681.0, 681.0, 681.0, 684.0, 689.0, 693.0, 700.0, 702.0, 702.0, 702.0, 703.0, 703.0, 703.0, 703.0, 703.0, 703.0, 703.0]	[-490.0, -490.0, -490.0, -490.0, -490.0, -490.0, -490.0, -490.0, -490.0, -490.0, -490.0, -490.0, -490.0, -490.0, -490.0, -490.0, -490.0, -490.0, -490.0, -491.0, -501.0, -512.0, -524.0, -539.0, -539.0, -539.0, -539.0, -539.0, -539.0, -539.0, -539.0, -532.0, -515.0, -468.0, -380.0, -253.0, -114.0, 23.0, 177.0, 242.0, 280.0, 301.0, 316.0, 346.0, 379.0, 407.0, 432.0, 452.0, 478.0, 484.0, 499.0, 506.0, 508.0, 508.0, 508.0, 508.0, 508.0, 508.0, 508.0, 509.0, 512.0, 513.0, 516.0, 518.0, 519.0, 519.0, 519.0, 519.0, 519.0, 519.0, 519.0, 519.0, 519.0]	[0.0006899706204421818, 0.00901849684305489, 0.016094330814667046, 0.03315654559992254, 0.0494432516861707, 0.06648157315794379, 0.08296079107094556, 0.09989637130638584, 0.11611958942376077, 0.1331428922712803, 0.14932071312796324, 0.16648396250093356, 0.18294986843829975, 0.19996975787216797, 0.21616259741131216, 0.23314391623716801, 0.24972212075954303, 0.2665276530897245, 0.2830027750460431, 0.29977929405868053, 0.31629503465956077, 0.333205014874693, 0.3495661315973848, 0.36648771713953465, 0.3829502097796649, 0.3998451713123359, 0.4162994719808921, 0.43320842820685357, 0.44965760881314054, 0.4663972638663836, 0.4829549884307198, 0.49994449922814965, 0.5162247200496495, 0.5332213988294825, 0.5495927555602975, 0.5665310664335266, 0.5829720550682396, 0.5999595178873278, 0.6160178721765988, 0.6330957883037627, 0.6495845635654405, 0.666478842496872, 0.6829106151126325, 0.6998567766859196, 0.7162868426530622, 0.7331985295168124, 0.7495872942381538, 0.7665897757397033, 0.7829471377772279, 0.7998881792882457, 0.8161329014110379, 0.8332248121732846, 0.8496398595161736, 0.8665542770759203, 0.8828764818026684, 0.8999656619271263, 0.9161195894703269, 0.9332360762055032, 0.9494599769823253, 0.9664802078041248, 0.982952599064447, 0.9999206059146672, 1.0162888906197622, 1.0332493881578557, 1.0494278916739859, 1.0665310664335266, 1.0829478204250336, 1.0998844246496446, 1.1161694240872748, 1.1332398308441043, 1.1496033368748613, 1.1665358450845815, 1.1829334844369441]
21	inanimate/n7.jpg	inanimate	animate	right	1.226	[0.0, 0.0, 0.0, 0.0, 0.0, 0.0, 0.0, 0.0, 0.0, 0.0, -1.0, -1.0, -1.0, -1.0, -2.0, -3.0, -3.0, -3.0, -3.0, -3.0, -3.0, -3.0, -3.0, -3.0, -3.0, -1.0, -1.0, -23.0, -84.0, -176.0, -271.0, -371.0, -463.0, -542.0, -610.0, -677.0, -693.0, -697.0, -697.0, -697.0, -697.0, -697.0, -693.0, -690.0, -682.0, -659.0, -617.0, -473.0, -362.0, -227.0, -89.0, 59.0, 206.0, 347.0, 477.0, 596.0, 680.0, 727.0, 731.0, 732.0, 732.0, 732.0, 732.0, 732.0, 732.0, 732.0, 731.0, 726.0, 724.0, 722.0, 722.0, 722.0, 722.0, 722.0]	[-490.0, -490.0, -490.0, -490.0, -490.0, -490.0, -490.0, -490.0, -490.0, -490.0, -490.0, -490.0, -490.0, -487.0, -485.0, -484.0, -482.0, -479.0, -473.0, -465.0, -455.0, -435.0, -397.0, -369.0, -338.0, -295.0, -233.0, -136.0, -35.0, 78.0, 185.0, 284.0, 366.0, 422.0, 470.0, 514.0, 524.0, 526.0, 526.0, 526.0, 526.0, 527.0, 528.0, 529.0, 529.0, 529.0, 525.0, 496.0, 464.0, 443.0, 425.0, 412.0, 401.0, 399.0, 397.0, 397.0, 397.0, 397.0, 397.0, 397.0, 397.0, 397.0, 397.0, 397.0, 397.0, 397.0, 397.0, 395.0, 395.0, 394.0, 394.0, 394.0, 394.0, 394.0]	[0.0025973396841436625, 0.00907413411187008, 0.020341879164334387, 0.03676170518156141, 0.053888431866653264, 0.0703249832149595, 0.08730049937730655, 0.10361519479192793, 0.12054121767869219, 0.13699688366614282, 0.15397103450959548, 0.1700853673974052, 0.18715748086106032, 0.20372885867254809, 0.220721100224182, 0.23695728898746893, 0.25397956778761, 0.2702618365874514, 0.2872745580971241, 0.3036387467873283, 0.3205961722997017, 0.33695694769266993, 0.35390413319692016, 0.37033249251544476, 0.38728445675224066, 0.40337626164546236, 0.4207193935289979, 0.43675760918995366, 0.4538587359129451, 0.4701116500655189, 0.487297086045146, 0.5035865228273906, 0.5206374736153521, 0.5368873157422058, 0.5539283678517677, 0.5702410152880475, 0.587269438081421, 0.6033766029868275, 0.6205320017179474, 0.6370149743161164, 0.6539979997905903, 0.6702847058768384, 0.6873329260270111, 0.7036407947889529, 0.7206053882837296, 0.7369525103713386, 0.7539485064917244, 0.7703710631467402, 0.7872404247755185, 0.8037800586316735, 0.8206053883186541, 0.8369333957089111, 0.8539160798536614, 0.8703021138790064, 0.8873148353886791, 0.903629872133024, 0.9206879909033887, 0.9370016623288393, 0.9539444104884751, 0.9703324925503694, 0.9873257580329664, 1.0036213388084434, 1.02057125500869, 1.0369842543150298, 1.0539945864584297, 1.0703546791919507, 1.087326099339407, 1.103650693432428, 1.1218567152391188, 1.1369787930161692, 1.1540331571013667, 1.1701358847203664, 1.1873295126715675, 1.2033742136554793]
22	animate/a21.jpg	animate	inanimate	left	0.946	[0.0, 0.0, 0.0, 0.0, 0.0, 0.0, -2.0, -2.0, -3.0, -3.0, -3.0, -3.0, -3.0, -3.0, -3.0, -3.0, -3.0, -3.0, -3.0, -3.0, -2.0, -1.0, -1.0, 1.0, 5.0, 8.0, 12.0, 13.0, 15.0, 15.0, 15.0, 15.0, 9.0, -15.0, -58.0, -117.0, -224.0, -302.0, -374.0, -437.0, -498.0, -555.0, -608.0, -646.0, -683.0, -704.0, -722.0, -730.0, -733.0, -733.0, -733.0, -733.0, -733.0, -733.0, -733.0, -733.0, -733.0]	[-490.0, -490.0, -490.0, -490.0, -490.0, -490.0, -490.0, -490.0, -490.0, -490.0, -489.0, -488.0, -486.0, -486.0, -485.0, -483.0, -481.0, -479.0, -476.0, -472.0, -467.0, -461.0, -448.0, -440.0, -414.0, -399.0, -385.0, -369.0, -351.0, -333.0, -315.0, -294.0, -265.0, -208.0, -129.0, -44.0, 78.0, 146.0, 209.0, 264.0, 315.0, 364.0, 409.0, 444.0, 472.0, 487.0, 498.0, 502.0, 504.0, 504.0, 504.0, 504.0, 504.0, 504.0, 504.0, 504.0, 504.0]	[0.0030120592564344406, 0.008370646683033556, 0.020669558900408447, 0.037820178898982704, 0.054149210336618125, 0.07120493974070996, 0.08757288311608136, 0.10456000460544601, 0.1209221453173086, 0.13793247746070847, 0.15429461817257106, 0.17136400094022974, 0.18761589110363275, 0.20461086323484778, 0.22067877487279475, 0.23798913875361905, 0.25424137024674565, 0.2712513610604219, 0.28758721909252927, 0.3046286125900224, 0.32088391605066136, 0.33795876015210524, 0.3542864262126386, 0.37129334500059485, 0.3876469524111599, 0.40460130595602095, 0.4209562786272727, 0.438042045396287, 0.4542345435474999, 0.4712602357030846, 0.4875756137771532, 0.5045460099936463, 0.5209125879919156, 0.5378648935584351, 0.5542765275458805, 0.5712394143920392, 0.587566739122849, 0.6045149486744776, 0.6210617505712435, 0.6380055227782577, 0.6542219142429531, 0.6711663691094145, 0.6877244350034744, 0.7046866391901858, 0.7208948386833072, 0.7379133628564887, 0.7541239516576752, 0.7712493130820803, 0.7875387498061173, 0.8045794605859555, 0.8206600015400909, 0.8379174588480964, 0.8542826715274714, 0.8712045983993448, 0.887591315084137, 0.9045245060115121, 0.9208436387125403]
23	inanimate/n39.jpg	inanimate	animate	left	1.311	[0.0, 0.0, 0.0, 0.0, 0.0, 0.0, 0.0, 0.0, 0.0, 0.0, 0.0, 1.0, 1.0, 1.0, 2.0, 2.0, 3.0, 3.0, 3.0, 4.0, 4.0, 4.0, 4.0, 4.0, 4.0, 6.0, 7.0, 13.0, 17.0, 21.0, 22.0, 24.0, 28.0, 32.0, 34.0, 34.0, 34.0, 34.0, 25.0, 23.0, 20.0, 21.0, 49.0, 101.0, 192.0, 308.0, 475.0, 703.0, 933.0, 959.0, 959.0, 959.0, 959.0, 959.0, 959.0, 943.0, 902.0, 818.0, 707.0, 570.0, 403.0, 204.0, -5.0, -310.0, -508.0, -668.0, -780.0, -841.0, -862.0, -872.0, -872.0, -872.0, -872.0, -872.0, -872.0, -872.0, -872.0, -872.0, -872.0]	[-490.0, -490.0, -490.0, -490.0, -490.0, -490.0, -490.0, -490.0, -490.0, -490.0, -490.0, -490.0, -488.0, -487.0, -485.0, -484.0, -482.0, -481.0, -479.0, -478.0, -476.0, -474.0, -473.0, -472.0, -469.0, -465.0, -456.0, -433.0, -416.0, -398.0, -378.0, -358.0, -338.0, -312.0, -283.0, -250.0, -221.0, -187.0, -137.0, -110.0, -86.0, -58.0, -18.0, 28.0, 81.0, 131.0, 177.0, 230.0, 274.0, 307.0, 323.0, 342.0, 346.0, 347.0, 350.0, 362.0, 389.0, 425.0, 457.0, 491.0, 513.0, 535.0, 540.0, 540.0, 526.0, 500.0, 474.0, 456.0, 449.0, 447.0, 447.0, 447.0, 447.0, 447.0, 447.0, 447.0, 447.0, 447.0, 447.0]	[0.01631063350941986, 0.02256760949967429, 0.031043932947795838, 0.04776959330774844, 0.06475125352153555, 0.0810140662943013, 0.09818004630506039, 0.11445309908594936, 0.131477425864432, 0.1477965586236678, 0.16474203747930005, 0.18110349553171545, 0.19810768368188292, 0.2144824537099339, 0.23153067386010662, 0.24785321991657838, 0.26471848553046584, 0.281173127470538, 0.2981281636748463, 0.3144309124327265, 0.33140506327617913, 0.3476344254449941, 0.3646809388883412, 0.3811011062352918, 0.39800255314912647, 0.4144305710797198, 0.4314221299136989, 0.4478368359268643, 0.4647362348623574, 0.48116732481867075, 0.4981554702972062, 0.5144660697551444, 0.5314269086229615, 0.5478218172793277, 0.5647154135513119, 0.5808631971012801, 0.5979803664959036, 0.6144769923994318, 0.6314234952442348, 0.6478334225830622, 0.6648420480778441, 0.6813738312921487, 0.698176974314265, 0.7144868910545483, 0.731381852645427, 0.7477030333830044, 0.7647553494898602, 0.7811331915436313, 0.7980523877195083, 0.8144944004015997, 0.8314043806167319, 0.8476801640354097, 0.8646406615735032, 0.8811611808487214, 0.8980162064544857, 0.9144271577824838, 0.9313825353165157, 0.9478153319214471, 0.9646659202408046, 0.9811379701714031, 0.998166051635053, 1.0144274990889244, 1.0314456819323823, 1.0478003132739104, 1.0647492054849863, 1.081166983465664, 1.0981687823077664, 1.1144281817832962, 1.1313388446578756, 1.1475426068645902, 1.1646655789227225, 1.1811297782114707, 1.1980329317739233, 1.2144486617762595, 1.2313330420292914, 1.247844003897626, 1.2647662721574306, 1.281122951535508, 1.298047609103378]
24	animate/a57.jpg	animate	inanimate	left	1.277	[0.0, 0.0, 0.0, 0.0, 0.0, 0.0, 0.0, 0.0, 0.0, 0.0, 0.0, 0.0, 0.0, 0.0, 0.0, 0.0, 0.0, 0.0, 0.0, 0.0, 0.0, 0.0, 0.0, 0.0, 0.0, 0.0, 0.0, 0.0, 0.0, 0.0, 0.0, 0.0, 0.0, 0.0, 0.0, 0.0, 0.0, 0.0, 0.0, 13.0, 38.0, 71.0, 126.0, 186.0, 233.0, 259.0, 279.0, 299.0, 307.0, 275.0, 203.0, 106.0, -2.0, -130.0, -243.0, -345.0, -421.0, -469.0, -504.0, -526.0, -552.0, -563.0, -568.0, -570.0, -577.0, -589.0, -604.0, -612.0, -621.0, -629.0, -644.0, -666.0, -683.0, -695.0, -700.0, -701.0, -701.0]	[-490.0, -490.0, -490.0, -490.0, -490.0, -490.0, -490.0, -490.0, -490.0, -490.0, -490.0, -490.0, -490.0, -490.0, -490.0, -490.0, -490.0, -490.0, -490.0, -490.0, -490.0, -490.0, -490.0, -490.0, -490.0, -490.0, -490.0, -490.0, -490.0, -490.0, -490.0, -490.0, -490.0, -490.0, -490.0, -490.0, -490.0, -490.0, -490.0, -485.0, -483.0, -477.0, -468.0, -451.0, -436.0, -419.0, -385.0, -334.0, -247.0, -171.0, -88.0, -4.0, 74.0, 164.0, 244.0, 301.0, 336.0, 359.0, 373.0, 382.0, 394.0, 398.0, 398.0, 399.0, 400.0, 402.0, 402.0, 402.0, 403.0, 404.0, 406.0, 409.0, 412.0, 413.0, 414.0, 414.0, 414.0]	[0.009853977710008621, 0.015024831984192133, 0.020315835427027196, 0.03488597768591717, 0.051168929145205766, 0.06832159718032926, 0.08443217538297176, 0.10156402213033289, 0.11781488824635744, 0.13491908699506894, 0.15131877432577312, 0.16827005584491417, 0.18468646850669757, 0.20163672603666782, 0.21809034404577687, 0.2349894015933387, 0.2513733876403421, 0.268346514494624, 0.2844130607554689, 0.30143124354071915, 0.317947325471323, 0.33486447372706607, 0.35131809167796746, 0.3682768825092353, 0.3844151087687351, 0.40141929691890255, 0.41796268546022475, 0.4348825643537566, 0.4513518836465664, 0.46826322918059304, 0.48468032450182363, 0.5016298993723467, 0.5177442323183641, 0.5349682389642112, 0.5513846516259946, 0.5682963384897448, 0.5846431192476302, 0.6015879154438153, 0.618044605362229, 0.6349996415665373, 0.6513017076649703, 0.6682222692179494, 0.6846717912121676, 0.701592011435423, 0.717957224114798, 0.7349337643245235, 0.7513634889619425, 0.768265959864948, 0.7843888261122629, 0.8015780167770572, 0.8180241254158318, 0.8349805269390345, 0.8510825718403794, 0.8682215865701437, 0.8845110233523883, 0.9014742515282705, 0.9180005734087899, 0.934937177633401, 0.9513252596370876, 0.9681765306158923, 0.9847035351558588, 1.0015944007900544, 1.018034365377389, 1.0351040894747712, 1.0513194570085034, 1.0682441145763732, 1.0846622338867746, 1.1015612914343365, 1.1179596134461462, 1.1349221589625813, 1.1512781556812115, 1.1681516133248806, 1.1846728152013384, 1.2015319368219934, 1.2179739494458772, 1.235002030909527, 1.251403424947057]
25	animate/a73.jpg	inanimate	animate	right	1.192	[0.0, 0.0, 0.0, 0.0, 0.0, 0.0, 0.0, 0.0, 0.0, 0.0, 0.0, 0.0, 0.0, 0.0, 0.0, 0.0, 0.0, 0.0, 0.0, 0.0, 0.0, 0.0, 0.0, 0.0, 0.0, 0.0, 0.0, 0.0, 0.0, 0.0, 0.0, 0.0, 0.0, 0.0, 0.0, 0.0, 0.0, -1.0, -13.0, -62.0, -115.0, -187.0, -277.0, -373.0, -452.0, -504.0, -540.0, -555.0, -559.0, -561.0, -561.0, -561.0, -561.0, -540.0, -475.0, -352.0, -182.0, 41.0, 257.0, 454.0, 616.0, 746.0, 835.0, 883.0, 887.0, 887.0, 887.0, 887.0, 887.0, 887.0, 887.0, 887.0]	[-490.0, -490.0, -490.0, -490.0, -490.0, -490.0, -490.0, -490.0, -490.0, -490.0, -490.0, -490.0, -490.0, -490.0, -490.0, -490.0, -490.0, -490.0, -490.0, -490.0, -490.0, -490.0, -490.0, -490.0, -490.0, -490.0, -490.0, -490.0, -490.0, -490.0, -490.0, -490.0, -490.0, -490.0, -490.0, -490.0, -490.0, -469.0, -390.0, -225.0, -119.0, 4.0, 109.0, 187.0, 238.0, 266.0, 284.0, 293.0, 295.0, 296.0, 296.0, 296.0, 297.0, 308.0, 327.0, 348.0, 372.0, 397.0, 401.0, 401.0, 401.0, 401.0, 401.0, 404.0, 406.0, 406.0, 406.0, 406.0, 406.0, 406.0, 406.0, 406.0]	[0.010431513248477131, 0.01573105010902509, 0.028688735037576407, 0.035929091507568955, 0.05310599418589845, 0.06923739373451099, 0.08634295780211687, 0.10280169575707987, 0.11969938804395497, 0.13616392866242677, 0.15313193551264703, 0.16945891891373321, 0.18647641903953627, 0.20283105043927208, 0.2197959852637723, 0.23619021131889895, 0.2531759674893692, 0.26926538307452574, 0.28644945373525843, 0.302632394596003, 0.31972191599197686, 0.3361956726294011, 0.35315787681611255, 0.36958043347112834, 0.386472323036287, 0.40257163729984313, 0.41968744137557223, 0.43616392865078524, 0.4531022395240143, 0.4695985240978189, 0.48648085637250915, 0.5027573225088418, 0.5197894999291748, 0.5361854326329194, 0.5532302394276485, 0.569381094945129, 0.5863600244629197, 0.6028604050516151, 0.6198564012302086, 0.6360335394274443, 0.653075615526177, 0.669556881475728, 0.6865143069881015, 0.7028375357622281, 0.7197529773111455, 0.7359007608611137, 0.7530305595719256, 0.7694664282025769, 0.7864477470866404, 0.8028259304119274, 0.8197618519770913, 0.8360123767633922, 0.8530189542798325, 0.8694770095753483, 0.8864340937579982, 0.9027481065131724, 0.9197280600201339, 0.936050264746882, 0.9531097488361411, 0.9694858841830865, 0.9864351177238859, 1.0025549120036885, 1.019740006653592, 1.036172803316731, 1.0530889275250956, 1.069339110981673, 1.0864402377628721, 1.1028375357273035, 1.1198284119018354, 1.1361874806461856, 1.1532066874206066, 1.1693019057274796]
26	animate/a3.jpg	animate	inanimate	left	1.218	[0.0, 2.0, 2.0, 2.0, 2.0, 2.0, 2.0, 2.0, 2.0, 2.0, 2.0, 2.0, 2.0, 2.0, 2.0, 2.0, 2.0, 2.0, 2.0, 2.0, 2.0, 2.0, 2.0, 2.0, 2.0, 2.0, 2.0, 2.0, 2.0, 2.0, 2.0, 2.0, 2.0, 2.0, 2.0, 2.0, 2.0, 2.0, -1.0, -52.0, -124.0, -159.0, -196.0, -237.0, -299.0, -379.0, -448.0, -508.0, -541.0, -554.0, -559.0, -560.0, -560.0, -560.0, -562.0, -567.0, -578.0, -591.0, -597.0, -597.0, -597.0, -599.0, -607.0, -633.0, -649.0, -655.0, -657.0, -658.0, -660.0, -661.0, -662.0, -662.0, -662.0]	[-490.0, -490.0, -490.0, -490.0, -490.0, -490.0, -490.0, -490.0, -490.0, -490.0, -490.0, -490.0, -490.0, -490.0, -490.0, -490.0, -490.0, -490.0, -490.0, -490.0, -490.0, -490.0, -490.0, -490.0, -490.0, -490.0, -490.0, -490.0, -490.0, -490.0, -490.0, -490.0, -490.0, -490.0, -490.0, -490.0, -490.0, -490.0, -490.0, -486.0, -403.0, -344.0, -263.0, -171.0, -62.0, 47.0, 145.0, 224.0, 262.0, 278.0, 284.0, 287.0, 289.0, 290.0, 293.0, 299.0, 315.0, 328.0, 338.0, 344.0, 345.0, 349.0, 354.0, 370.0, 383.0, 389.0, 392.0, 395.0, 397.0, 397.0, 398.0, 398.0, 398.0]	[0.014760981546714902, 0.02230683108791709, 0.027507381339091808, 0.04469998530112207, 0.060867907537613064, 0.07793558365665376, 0.09441889758454636, 0.11139577906578779, 0.127745290461462, 0.14473855594405904, 0.16108226467622444, 0.17817315144930035, 0.19422092440072447, 0.21136471774661914, 0.22749782400205731, 0.24466790002770722, 0.26111264334758744, 0.2781373114557937, 0.29430967097869143, 0.31145312305307016, 0.3276804371853359, 0.3448102358961478, 0.361130733974278, 0.3781059088069014, 0.3944281135336496, 0.4115347016486339, 0.4278278930578381, 0.44485153717687353, 0.4608586915419437, 0.47793148760683835, 0.4944567855563946, 0.5114217203808948, 0.5275114773539826, 0.5446074840729125, 0.5611587232560851, 0.5781550607644022, 0.59445473755477, 0.611488280352205, 0.6278118503978476, 0.6447989718872122, 0.6611143499612808, 0.6781827087397687, 0.6944680495071225, 0.7114934003329836, 0.727812874421943, 0.7446617560344748, 0.7611218593083322, 0.7781007888261229, 0.7944509828812443, 0.8114166003651917, 0.8277818131027743, 0.8447662039543502, 0.8608907768502831, 0.878051295527257, 0.8945137881673872, 0.9114848669851199, 0.9278524690307677, 0.9447877079364844, 0.9611351712956093, 0.977962207631208, 0.9944492761860602, 1.0114930589916185, 1.0277927357237786, 1.044715345313307, 1.0612420085235499, 1.0781321914400905, 1.0944407428614795, 1.1113937310874462, 1.1277510931249708, 1.1447293399833143, 1.1625400981283747, 1.177985418238677, 1.19444415619364]
27	inanimate/n75.jpg	inanimate	animate	left	1.523	[0.0, -2.0, -2.0, -2.0, -2.0, -2.0, -2.0, -2.0, -2.0, -2.0, -2.0, -2.0, -3.0, -3.0, -4.0, -4.0, -4.0, -5.0, -5.0, -5.0, -5.0, -5.0, -5.0, -6.0, -6.0, -7.0, -7.0, -9.0, -10.0, -12.0, -14.0, -15.0, -18.0, -22.0, -30.0, -34.0, -41.0, -46.0, -55.0, -67.0, -72.0, -74.0, -50.0, 2.0, 78.0, 175.0, 364.0, 506.0, 644.0, 782.0, 914.0, 959.0, 959.0, 959.0, 959.0, 959.0, 959.0, 959.0, 940.0, 919.0, 890.0, 851.0, 810.0, 763.0, 709.0, 644.0, 572.0, 510.0, 455.0, 407.0, 307.0, 208.0, 81.0, -62.0, -209.0, -344.0, -477.0, -585.0, -666.0, -716.0, -748.0, -770.0, -798.0, -810.0, -816.0, -819.0, -820.0, -822.0, -824.0, -824.0, -824.0, -824.0]	[-490.0, -491.0, -491.0, -491.0, -491.0, -491.0, -491.0, -491.0, -491.0, -491.0, -491.0, -490.0, -485.0, -481.0, -477.0, -475.0, -473.0, -472.0, -471.0, -471.0, -471.0, -471.0, -471.0, -470.0, -469.0, -469.0, -468.0, -465.0, -463.0, -458.0, -456.0, -455.0, -451.0, -444.0, -435.0, -431.0, -416.0, -397.0, -365.0, -329.0, -288.0, -246.0, -182.0, -113.0, -45.0, 22.0, 102.0, 129.0, 150.0, 169.0, 202.0, 224.0, 241.0, 259.0, 270.0, 282.0, 289.0, 296.0, 312.0, 327.0, 349.0, 378.0, 405.0, 439.0, 476.0, 503.0, 533.0, 540.0, 540.0, 540.0, 540.0, 535.0, 516.0, 497.0, 487.0, 487.0, 487.0, 487.0, 487.0, 485.0, 479.0, 477.0, 469.0, 465.0, 462.0, 461.0, 460.0, 459.0, 459.0, 459.0, 459.0, 459.0]	[0.0050306005286984146, 0.01918192714219913, 0.0250992767396383, 0.042196307505946606, 0.05837822437752038, 0.07549163908697665, 0.09176981187192723, 0.1088651359314099, 0.1251050794380717, 0.14214203553274274, 0.15831644309218973, 0.1753745618625544, 0.19182442512828857, 0.2088289546663873, 0.22517573536606506, 0.2420669422717765, 0.2584659469430335, 0.27543531911214814, 0.29177629720652476, 0.30870709876762703, 0.325085282092914, 0.34203997696749866, 0.3585502562345937, 0.3754540924564935, 0.39188040379667655, 0.4089006345602684, 0.4252119166776538, 0.4419945796835236, 0.4584782349411398, 0.4754892497439869, 0.4918203291599639, 0.5087125600548461, 0.5251402367139235, 0.542147496889811, 0.5584990562638268, 0.5754104017978534, 0.5915575026883744, 0.6087070987559855, 0.6252105513121933, 0.6420597743126564, 0.6584891576203518, 0.675399137835484, 0.6917742491932586, 0.7088559199473821, 0.725127266079653, 0.7421362329041585, 0.7584574136417359, 0.7753475965582766, 0.7918281797901727, 0.8086320054717362, 0.8252050899900496, 0.8420741102891043, 0.8584529762738384, 0.8754796924185939, 0.8917803931981325, 0.9087364533916116, 0.9251456980709918, 0.9420628462685272, 0.9583007417386398, 0.9754851537873037, 0.9918141851667315, 1.008698906749487, 1.0251910953666084, 1.0420618222560734, 1.058412698970642, 1.0753660285263322, 1.0917875611921772, 1.1088579679490067, 1.125085623410996, 1.1420648942585103, 1.1582423737854697, 1.1754745724610984, 1.1919609583565034, 1.2088828852865845, 1.2251668606768362, 1.2420048196800053, 1.258442053629551, 1.2754083538311534, 1.2917776625254191, 1.308666821452789, 1.3251197567442432, 1.3420471449499018, 1.358462874952238, 1.375414156471379, 1.3915298547362909, 1.4086972000659443, 1.425280524592381, 1.442110632895492, 1.4582874297630042, 1.4754104018211365, 1.4918090651626699, 1.5088176906574517]
28	inanimate/n45.jpg	animate	inanimate	right	1.9	[0.0, 0.0, 0.0, 0.0, 0.0, 0.0, 0.0, 0.0, 0.0, 0.0, 0.0, 0.0, 0.0, 0.0, 0.0, 0.0, 0.0, 0.0, 0.0, 0.0, 0.0, 0.0, 0.0, 0.0, 0.0, -2.0, -6.0, -9.0, -13.0, -17.0, -21.0, -22.0, -23.0, -23.0, -23.0, -23.0, -23.0, -23.0, -20.0, -16.0, -8.0, 4.0, 35.0, 80.0, 136.0, 207.0, 281.0, 387.0, 431.0, 448.0, 449.0, 447.0, 433.0, 408.0, 351.0, 261.0, 156.0, 55.0, -29.0, -106.0, -216.0, -294.0, -368.0, -444.0, -506.0, -553.0, -602.0, -654.0, -714.0, -768.0, -807.0, -836.0, -863.0, -878.0, -884.0, -886.0, -886.0, -886.0, -886.0, -886.0, -885.0, -880.0, -871.0, -864.0, -846.0, -823.0, -778.0, -705.0, -599.0, -459.0, -291.0, -120.0, 43.0, 182.0, 301.0, 407.0, 540.0, 610.0, 660.0, 693.0, 712.0, 723.0, 729.0, 731.0, 733.0, 734.0, 738.0, 743.0, 748.0, 750.0, 752.0, 752.0, 752.0, 752.0]	[-490.0, -490.0, -490.0, -490.0, -490.0, -490.0, -490.0, -490.0, -490.0, -490.0, -490.0, -490.0, -490.0, -490.0, -490.0, -491.0, -491.0, -491.0, -491.0, -491.0, -491.0, -489.0, -477.0, -469.0, -455.0, -443.0, -432.0, -420.0, -409.0, -395.0, -382.0, -371.0, -360.0, -347.0, -331.0, -313.0, -289.0, -267.0, -237.0, -210.0, -183.0, -153.0, -100.0, -23.0, 71.0, 166.0, 241.0, 313.0, 345.0, 365.0, 381.0, 397.0, 415.0, 432.0, 457.0, 487.0, 517.0, 532.0, 540.0, 540.0, 540.0, 540.0, 540.0, 540.0, 540.0, 535.0, 527.0, 527.0, 527.0, 527.0, 527.0, 526.0, 518.0, 511.0, 505.0, 502.0, 496.0, 489.0, 479.0, 471.0, 460.0, 447.0, 434.0, 424.0, 411.0, 408.0, 405.0, 405.0, 405.0, 405.0, 405.0, 394.0, 384.0, 377.0, 377.0, 377.0, 376.0, 376.0, 376.0, 376.0, 376.0, 378.0, 382.0, 383.0, 385.0, 385.0, 387.0, 390.0, 393.0, 395.0, 396.0, 396.0, 396.0, 396.0]	[0.014369131240528077, 0.02133573859464377, 0.026615819428116083, 0.0437118262052536, 0.06038696930045262, 0.07746454403968528, 0.09371506882598624, 0.11067966237897053, 0.12682812858838588, 0.1438463114318438, 0.160394478647504, 0.17734029883285984, 0.19375671149464324, 0.21072915568947792, 0.22695783514063805, 0.24402482860023156, 0.26043714524712414, 0.2773546348325908, 0.29353484499733895, 0.31065815838519484, 0.32711006968747824, 0.3441040178295225, 0.3604146172874607, 0.3773157228715718, 0.39374647149816155, 0.41063426510663703, 0.4271281603141688, 0.44415487645892426, 0.4605009745573625, 0.4773962774197571, 0.4938103007734753, 0.5106724943616427, 0.5270970990532078, 0.544029607262928, 0.5604671825421974, 0.5774392854073085, 0.5935249463655055, 0.6106742010451853, 0.6271575149730779, 0.6441142578260042, 0.6604985852027312, 0.6773665814544074, 0.6937881141202524, 0.7107028730097227, 0.7271274777012877, 0.744088999228552, 0.7604125692741945, 0.777293877559714, 0.7938031327794306, 0.8107953742728569, 0.8268626032513566, 0.8442453297320753, 0.8605122385197319, 0.8773560001282021, 0.8937167755211703, 0.910676249070093, 0.9270714990561828, 0.9440166365820915, 0.9602033321280032, 0.9773904747562483, 0.9935300663346425, 1.010811758285854, 1.0271401070058346, 1.0441176712047309, 1.060543299827259, 1.0773399574682117, 1.0937273568706587, 1.110690585046541, 1.126902197895106, 1.1439534899545833, 1.1604135932866484, 1.1774549867259338, 1.1937509088311344, 1.210826094262302, 1.2271343043539673, 1.2441128925420344, 1.2602463400689885, 1.2774174400838092, 1.2938191754510626, 1.3107383716851473, 1.327083445736207, 1.3439804553054273, 1.3604743505711667, 1.377395594783593, 1.393592871609144, 1.4107789903064258, 1.4271687789587304, 1.4440821725293063, 1.4604972198721953, 1.4773307414725423, 1.4937891380977817, 1.5106960463454016, 1.5270612590829842, 1.543940860661678, 1.5604388519423082, 1.5774717120220885, 1.5935170956654474, 1.6107127716531977, 1.6271448856568895, 1.6440108339302242, 1.6601736361626536, 1.6773501975112595, 1.6938116661040112, 1.710687854385469, 1.7270677444175817, 1.7439609993016347, 1.7601500841556117, 1.7772795415367, 1.7937799221253954, 1.810800835606642, 1.8270711577497423, 1.8441367858322337, 1.8604357799049467, 1.8772996801999398]
29	animate/a35.jpg	animate	inanimate	left	2.848	[0.0, 0.0, 0.0, 0.0, 0.0, 0.0, 0.0, 0.0, 0.0, 0.0, 0.0, 0.0, 0.0, 0.0, 0.0, 0.0, 0.0, 0.0, 0.0, 0.0, 0.0, 0.0, 0.0, 0.0, 0.0, 0.0, 0.0, 0.0, 0.0, 0.0, 0.0, 0.0, 0.0, 0.0, 0.0, 0.0, 0.0, 0.0, 0.0, 0.0, 0.0, 0.0, 0.0, 0.0, 0.0, 0.0, 0.0, 0.0, 0.0, 0.0, 0.0, 0.0, 0.0, 0.0, 0.0, 0.0, 0.0, 0.0, 0.0, 0.0, 0.0, 0.0, 0.0, 0.0, 0.0, 0.0, 0.0, 0.0, 2.0, 3.0, 7.0, 12.0, 20.0, 33.0, 50.0, 74.0, 96.0, 120.0, 170.0, 221.0, 275.0, 325.0, 371.0, 422.0, 465.0, 516.0, 566.0, 610.0, 646.0, 676.0, 703.0, 713.0, 715.0, 715.0, 715.0, 715.0, 715.0, 715.0, 715.0, 715.0, 715.0, 715.0, 715.0, 715.0, 715.0, 715.0, 715.0, 717.0, 717.0, 717.0, 717.0, 717.0, 717.0, 717.0, 717.0, 717.0, 717.0, 717.0, 717.0, 717.0, 716.0, 713.0, 712.0, 709.0, 709.0, 705.0, 703.0, 702.0, 700.0, 698.0, 697.0, 697.0, 696.0, 696.0, 696.0, 696.0, 696.0, 696.0, 696.0, 696.0, 696.0, 696.0, 696.0, 696.0, 696.0, 696.0, 696.0, 696.0, 694.0, 636.0, 417.0, 223.0, 22.0, -148.0, -294.0, -417.0, -512.0, -599.0, -656.0, -695.0, -710.0, -713.0, -714.0, -714.0, -714.0, -714.0, -714.0, -715.0, -715.0, -715.0, -715.0]	[-490.0, -490.0, -490.0, -490.0, -490.0, -490.0, -490.0, -490.0, -490.0, -490.0, -490.0, -490.0, -490.0, -490.0, -490.0, -490.0, -490.0, -490.0, -490.0, -490.0, -490.0, -490.0, -490.0, -490.0, -490.0, -490.0, -490.0, -490.0, -490.0, -490.0, -490.0, -490.0, -490.0, -490.0, -490.0, -490.0, -490.0, -490.0, -490.0, -490.0, -490.0, -490.0, -490.0, -490.0, -490.0, -490.0, -490.0, -490.0, -490.0, -490.0, -490.0, -490.0, -490.0, -490.0, -490.0, -490.0, -490.0, -490.0, -490.0, -490.0, -490.0, -490.0, -490.0, -490.0, -484.0, -475.0, -462.0, -452.0, -437.0, -422.0, -403.0, -381.0, -353.0, -309.0, -244.0, -166.0, -87.0, -11.0, 91.0, 170.0, 246.0, 317.0, 373.0, 419.0, 454.0, 489.0, 517.0, 538.0, 540.0, 540.0, 540.0, 540.0, 540.0, 540.0, 540.0, 540.0, 540.0, 540.0, 540.0, 540.0, 540.0, 540.0, 540.0, 540.0, 540.0, 539.0, 535.0, 533.0, 532.0, 531.0, 529.0, 529.0, 529.0, 529.0, 529.0, 528.0, 526.0, 523.0, 519.0, 514.0, 509.0, 503.0, 497.0, 490.0, 485.0, 478.0, 469.0, 463.0, 458.0, 454.0, 451.0, 450.0, 447.0, 446.0, 446.0, 446.0, 446.0, 446.0, 446.0, 446.0, 446.0, 446.0, 446.0, 446.0, 446.0, 446.0, 446.0, 446.0, 446.0, 446.0, 446.0, 446.0, 435.0, 413.0, 387.0, 381.0, 381.0, 381.0, 381.0, 387.0, 388.0, 388.0, 388.0, 388.0, 388.0, 388.0, 388.0, 388.0, 388.0, 388.0, 388.0]	[0.0074579220963642, 0.013857575308065861, 0.029566404526121914, 0.0466415899572894, 0.06317439721897244, 0.08012328943004832, 0.09645914746215567, 0.11345241294475272, 0.12985107628628612, 0.14678324316628277, 0.16313138924306259, 0.18015366804320365, 0.19652843807125464, 0.2135520821902901, 0.22981352970236912, 0.24673648056341335, 0.2631368505535647, 0.2801110013970174, 0.2964905500994064, 0.3134725516429171, 0.329568111221306, 0.34662281663622707, 0.3631262692506425, 0.3801123667508364, 0.39621509436983615, 0.4134373943088576, 0.42985210032202303, 0.4468979311059229, 0.4632310585002415, 0.4800942760775797, 0.49644037417601794, 0.5134745996329002, 0.5296008791774511, 0.5468003098503686, 0.5629941733786836, 0.5800345428287983, 0.5964823581161909, 0.6134534369921312, 0.6295694765285589, 0.6465709340409376, 0.663192487845663, 0.680000068154186, 0.6965014727902599, 0.7134565089945681, 0.7298159190104343, 0.7468641391023993, 0.7631703012157232, 0.7799816362094134, 0.7964854300953448, 0.8135169249144383, 0.829584153892938, 0.8466589979943819, 0.8631743972073309, 0.8799983615172096, 0.8965103474329226, 0.9134541196399368, 0.9298142123152502, 0.9467948485398665, 0.9631805411772802, 0.9801311400951818, 0.9964738247799687, 1.0135391115909442, 1.0297787137096748, 1.0468511684448458, 1.0629395600990392, 1.0800819881260395, 1.0965243420796469, 1.1134274956420995, 1.1298688256065361, 1.146864480455406, 1.1632962531293742, 1.1800840361393057, 1.1964902087929659, 1.213467431603931, 1.2298063616617583, 1.2468016751809046, 1.2631897571845911, 1.2801195347565226, 1.296479627431836, 1.3134978102752939, 1.3298718976438977, 1.3467555952374823, 1.3632559758261777, 1.3800570708117448, 1.3962843849440105, 1.4134230583440512, 1.4297882710234262, 1.4467747098533437, 1.4631549412151799, 1.4801768786855973, 1.4964902087813243, 1.5146071426570415, 1.5298401536419988, 1.5468556057894602, 1.5631088612717576, 1.5801150974002667, 1.5964304754743353, 1.613422375638038, 1.6298039723769762, 1.6467767578433268, 1.6631774692214094, 1.6801396734081209, 1.6964656328200363, 1.713514876901172, 1.729892036295496, 1.7469382084091194, 1.7633030797587708, 1.780056388117373, 1.7965257074101828, 1.813453436945565, 1.8297991937142797, 1.8467634458793327, 1.8631894158897921, 1.8801383080426604, 1.896424331527669, 1.9134319329750724, 1.9298561962787062, 1.9467682245303877, 1.962965160026215, 1.980104516085703, 1.9963133982382715, 2.0134872289490886, 2.029830937681254, 2.0468190831597894, 2.063117735902779, 2.080118852085434, 2.096528096764814, 2.1134653836488724, 2.12995108688483, 2.1468323951703496, 2.163132754561957, 2.180073454801459, 2.196502155449707, 2.2135015649255365, 2.2298483456252143, 2.246732043218799, 2.2629402427119203, 2.280066628125496, 2.2964581234846264, 2.3134288609726354, 2.3297995350440033, 2.3467289712280035, 2.3631563065573573, 2.3801857533399016, 2.396496011468116, 2.41349678626284, 2.4296967937843874, 2.4468395631411113, 2.4630948666017503, 2.4800638974411413, 2.4965222940663807, 2.5134404663112946, 2.529778372379951, 2.5467535472125746, 2.562904402788263, 2.5801031507435255, 2.5965659847133793, 2.6135138529352844, 2.6297520897351205, 2.6468115738243796, 2.6629426320432685, 2.6801406973972917, 2.6964697287767194, 2.7134363703080453, 2.7296459351782687, 2.7467477445607074, 2.7631539172143675, 2.780099737457931, 2.79631954227807, 2.813479036965873, 2.8298896469641477]
30	animate/a20.jpg	inanimate	animate	right	1.646	[0.0, 0.0, 0.0, 0.0, 0.0, 0.0, 0.0, 0.0, 0.0, 0.0, 0.0, 0.0, 0.0, 0.0, 0.0, 0.0, 0.0, 0.0, 0.0, 0.0, 0.0, 0.0, 0.0, 0.0, 0.0, 0.0, 0.0, 0.0, 0.0, 0.0, 0.0, 0.0, 1.0, 2.0, 2.0, 2.0, -7.0, -21.0, -38.0, -63.0, -94.0, -130.0, -177.0, -240.0, -304.0, -384.0, -493.0, -536.0, -577.0, -604.0, -629.0, -648.0, -663.0, -670.0, -675.0, -679.0, -686.0, -699.0, -714.0, -720.0, -724.0, -725.0, -725.0, -720.0, -714.0, -711.0, -709.0, -709.0, -709.0, -709.0, -709.0, -709.0, -709.0, -709.0, -709.0, -709.0, -709.0, -705.0, -690.0, -639.0, -509.0, -339.0, -80.0, 90.0, 255.0, 428.0, 576.0, 701.0, 779.0, 816.0, 832.0, 838.0, 838.0, 838.0, 838.0, 838.0, 838.0, 838.0, 838.0]	[-490.0, -490.0, -490.0, -490.0, -490.0, -490.0, -490.0, -490.0, -490.0, -490.0, -490.0, -490.0, -490.0, -490.0, -490.0, -490.0, -490.0, -490.0, -490.0, -490.0, -490.0, -490.0, -490.0, -490.0, -490.0, -490.0, -490.0, -490.0, -490.0, -490.0, -490.0, -490.0, -483.0, -473.0, -457.0, -442.0, -418.0, -382.0, -327.0, -258.0, -190.0, -122.0, -44.0, 41.0, 133.0, 225.0, 336.0, 376.0, 410.0, 434.0, 452.0, 466.0, 477.0, 483.0, 487.0, 491.0, 495.0, 499.0, 502.0, 502.0, 495.0, 487.0, 481.0, 470.0, 465.0, 462.0, 462.0, 461.0, 461.0, 461.0, 461.0, 461.0, 461.0, 461.0, 461.0, 461.0, 461.0, 461.0, 461.0, 461.0, 461.0, 461.0, 461.0, 461.0, 461.0, 461.0, 462.0, 462.0, 462.0, 463.0, 467.0, 469.0, 469.0, 469.0, 469.0, 469.0, 469.0, 469.0, 469.0]	[0.00323768041562289, 0.009092566033359617, 0.02117268374422565, 0.03839259437518194, 0.054814468370750546, 0.07163501932518557, 0.08817294659093022, 0.10513480944791809, 0.12147032615030184, 0.1384393569896929, 0.15476872975705191, 0.17169680062215775, 0.18811799195827916, 0.2050706387963146, 0.2214331208379008, 0.23840624769218266, 0.2545414019259624, 0.27174663526238874, 0.2881186745944433, 0.3051020414568484, 0.3214686195133254, 0.33854551159311086, 0.3547718017362058, 0.3717930565471761, 0.3881476879469119, 0.40514948673080653, 0.42148022481705993, 0.4384161463822238, 0.454765657777898, 0.47181456052931026, 0.4878865681239404, 0.5050365055212751, 0.5214290248695761, 0.5384219490224496, 0.5548311937018298, 0.5717336646048352, 0.5878759868210182, 0.6051313960924745, 0.6211976010818034, 0.6383157944655977, 0.6548540630028583, 0.6718405018327758, 0.6881282319664024, 0.7051064787665382, 0.721446432871744, 0.7384461836772971, 0.7548185643972829, 0.7717063579475507, 0.7879541520960629, 0.805184644064866, 0.8211849717190489, 0.8384547170135193, 0.854806276387535, 0.8718056858633645, 0.8881678265752271, 0.9050965801579878, 0.9215792114264332, 0.9383963490254246, 0.9548397270264104, 0.9716527686687186, 0.9878971494617872, 1.00511671876302, 1.0211682463996112, 1.0383366157766432, 1.054822319012601, 1.07173127529677, 1.0882398478570394, 1.1050279721966945, 1.1212344650411978, 1.1383338851155713, 1.154536964604631, 1.1717142086126842, 1.1878821308491752, 1.205055620172061, 1.2211941877030768, 1.238350951753091, 1.2547799937310629, 1.2718254831852391, 1.2881340346066281, 1.3051450494094752, 1.3214194675092585, 1.3384577889810316, 1.354811055061873, 1.371741515235044, 1.3881770425941795, 1.4051887400564738, 1.421409910195507, 1.4383922530687414, 1.4547369857900776, 1.471804320521187, 1.4881022906629369, 1.505148804106284, 1.521199649083428, 1.5383304717834108, 1.5547482497640885, 1.5717316166264936, 1.5879790693870746, 1.6050791721208952, 1.6211764384061098]
31	animate/a7.jpg	animate	inanimate	left	1.059	[0.0, 0.0, 0.0, 0.0, 0.0, 0.0, 0.0, 0.0, 0.0, 0.0, 0.0, 0.0, 0.0, 0.0, 0.0, -3.0, -3.0, -3.0, -3.0, -4.0, -5.0, -6.0, -6.0, -6.0, -6.0, -6.0, -7.0, -8.0, -9.0, -10.0, -10.0, -10.0, -12.0, -12.0, -12.0, -12.0, -12.0, -12.0, -12.0, -18.0, -27.0, -52.0, -94.0, -167.0, -243.0, -328.0, -404.0, -476.0, -538.0, -591.0, -638.0, -694.0, -719.0, -738.0, -759.0, -776.0, -798.0, -817.0, -833.0, -842.0, -845.0, -845.0, -845.0, -845.0]	[-490.0, -490.0, -490.0, -490.0, -490.0, -490.0, -490.0, -490.0, -490.0, -490.0, -490.0, -487.0, -484.0, -483.0, -481.0, -477.0, -476.0, -476.0, -476.0, -474.0, -472.0, -470.0, -468.0, -466.0, -465.0, -465.0, -463.0, -460.0, -457.0, -454.0, -450.0, -444.0, -440.0, -437.0, -434.0, -430.0, -423.0, -408.0, -387.0, -343.0, -298.0, -227.0, -127.0, 1.0, 117.0, 219.0, 296.0, 352.0, 391.0, 421.0, 446.0, 472.0, 483.0, 490.0, 499.0, 504.0, 511.0, 515.0, 517.0, 520.0, 520.0, 520.0, 520.0, 520.0]	[0.008159941877238452, 0.014698176295496523, 0.019032764597795904, 0.03135010873666033, 0.048407203517854214, 0.06483317352831364, 0.08167181513272226, 0.09800903854193166, 0.11494496004888788, 0.13138492469443008, 0.14839935285272077, 0.16483249084558338, 0.1816168605000712, 0.1980155238416046, 0.21491560543654487, 0.23137468472123146, 0.24834235024172813, 0.2645194884389639, 0.28162095649167895, 0.2977670333930291, 0.314895125455223, 0.33107431163080037, 0.3482972942874767, 0.3647123416303657, 0.3817090204101987, 0.3980032358667813, 0.41493813338456675, 0.4312722848262638, 0.44832118757767603, 0.46465738699771464, 0.4816837618127465, 0.49774348142091185, 0.5148681601276621, 0.5313852660474367, 0.5483682915219106, 0.5644655578071252, 0.5817281350609846, 0.5980755984783173, 0.6150733013055287, 0.6311842208961025, 0.6483112889109179, 0.6647546669119038, 0.6817847963538952, 0.698057166475337, 0.7150391680188477, 0.7311285836040042, 0.7482645263080485, 0.7647034669644199, 0.7817250631051138, 0.7980411238386296, 0.8150497493334115, 0.8314190580276772, 0.8483976462157443, 0.8647546669235453, 0.8816479218075983, 0.8977919507306069, 0.9148992214468308, 0.9313289460842498, 0.9483123129466549, 0.964747498917859, 0.9816837618127465, 0.9980636517866515, 1.0149504214059561, 1.0313767326879315]
