trialIndex	stimulus	isAnimate	left_option	right_option	response	response_time	xTrajectory	yTrajectory	tTrajectory
0	电视	False	animate	inanimate	right	1.952	[0.0, 0.0, 0.0, 0.0, 0.0, 0.0, 0.0, 0.0, 0.0, 0.0, 0.0, 0.0, 0.0, 0.0, 0.0, 0.0, 0.0, 0.0, 0.0, 0.0, 0.0, 0.0, 0.0, 0.0, 0.0, 0.0, 0.0, 0.0, 0.0, 0.0, 0.0, 0.0, 0.0, 0.0, 0.0, -4.0, -13.0, -18.0, -23.0, -33.0, -51.0, -95.0, -110.0, -159.0, -197.0, -243.0, -300.0, -367.0, -451.0, -590.0, -629.0, -707.0, -768.0, -838.0, -853.0, -883.0, -892.0, -892.0, -864.0, -825.0, -799.0, -782.0, -773.0, -763.0, -742.0, -696.0, -611.0, -419.0, -260.0, -168.0, 142.0, 315.0, 470.0, 576.0, 628.0, 644.0, 646.0, 646.0, 646.0, 646.0, 646.0, 646.0, 646.0, 646.0, 646.0, 646.0, 646.0, 646.0, 646.0, 646.0, 646.0, 647.0, 647.0, 649.0, 672.0, 707.0, 746.0, 775.0, 798.0, 811.0, 815.0, 815.0, 815.0, 815.0, 815.0, 815.0, 815.0, 815.0, 815.0, 815.0, 815.0, 815.0, 815.0, 815.0, 815.0]	[-490.0, -490.0, -490.0, -490.0, -490.0, -490.0, -490.0, -490.0, -490.0, -490.0, -490.0, -490.0, -490.0, -490.0, -490.0, -490.0, -490.0, -490.0, -490.0, -490.0, -490.0, -490.0, -490.0, -490.0, -490.0, -490.0, -490.0, -490.0, -490.0, -490.0, -490.0, -490.0, -490.0, -490.0, -490.0, -478.0, -462.0, -451.0, -442.0, -432.0, -422.0, -401.0, -393.0, -374.0, -357.0, -337.0, -312.0, -284.0, -248.0, -168.0, -148.0, -102.0, -69.0, -2.0, 22.0, 110.0, 185.0, 215.0, 281.0, 324.0, 356.0, 385.0, 408.0, 420.0, 428.0, 435.0, 438.0, 438.0, 438.0, 438.0, 410.0, 386.0, 375.0, 373.0, 373.0, 373.0, 373.0, 373.0, 373.0, 373.0, 373.0, 373.0, 373.0, 373.0, 373.0, 373.0, 373.0, 373.0, 373.0, 373.0, 373.0, 373.0, 373.0, 373.0, 373.0, 378.0, 380.0, 380.0, 380.0, 380.0, 380.0, 380.0, 380.0, 380.0, 380.0, 380.0, 380.0, 380.0, 380.0, 380.0, 380.0, 380.0, 380.0, 380.0, 380.0]	[0.00581078741379315, 0.011045131403079722, 0.027162541817233432, 0.04466986085026292, 0.06159827885130653, 0.07684392437658971, 0.0949345817862195, 0.11131242939882213, 0.12666218153754016, 0.14464395366667304, 0.16132968378951773, 0.17677091321820626, 0.1947591706775711, 0.21171796732232906, 0.22633658383711008, 0.24509045157174114, 0.2615614831374842, 0.27676173135841964, 0.2946274502101005, 0.31172004945983645, 0.3263837219492416, 0.3449491737774224, 0.36128742674191017, 0.3767819041459006, 0.39467458831495605, 0.4116579609544715, 0.4264366627248819, 0.44504717052768683, 0.4613605061749695, 0.4773424073282513, 0.49472616375715006, 0.5115750511322403, 0.5266391074183048, 0.5449605060348404, 0.5612646256922744, 0.576638953818474, 0.594772960532282, 0.6115959065864445, 0.6264251256579882, 0.6449025135370903, 0.6613718384323874, 0.6766956492574536, 0.6948241946374765, 0.7115618074021768, 0.7265101517477888, 0.7448486170251272, 0.763617162083392, 0.776605912767991, 0.8000138581192004, 0.8115287322216318, 0.8279564144759206, 0.844797109857609, 0.8671588690704084, 0.8766779681973276, 0.8989455194605398, 0.9114652783900965, 0.926714678578719, 0.9448548292930354, 0.9612821702176007, 0.9764448717833147, 0.9975037623371463, 1.0112035099882632, 1.0293037247174652, 1.0446954608414671, 1.0627277502717334, 1.0763469433004502, 1.095567754789954, 1.1111277681629872, 1.1268055414693663, 1.1445548657138715, 1.1620116674384917, 1.1764780493685976, 1.1955507222664892, 1.211166714274441, 1.2272892446853803, 1.2444999452054617, 1.2615198404891999, 1.276466478171642, 1.2948493167641573, 1.3111240817597718, 1.3267803510825615, 1.3444928113458445, 1.3616717678814894, 1.3764951842895243, 1.394966428168118, 1.4114234650769504, 1.4266892492596526, 1.444441645500774, 1.4616588313510874, 1.4766593996755546, 1.4950685209187213, 1.5111838833327056, 1.5266998647202854, 1.5448413807680481, 1.5616759321492282, 1.5763532579658204, 1.5948518084915122, 1.6111467121518217, 1.6273115678704926, 1.6447635909353266, 1.6616203289740952, 1.6764283853917732, 1.6950450371950865, 1.7111088583042147, 1.7267709302832372, 1.744466665222717, 1.7614824645133922, 1.7763860942141037, 1.7948856687435182, 1.817162436003855, 1.8264815138973063, 1.8445902619569097, 1.8615425732787116, 1.8766318882189807, 1.8950208708047285]
1	袜子	False	animate	inanimate	right	1.08	[0.0, -2.0, -2.0, -2.0, -3.0, -3.0, -3.0, -3.0, -3.0, -3.0, -3.0, -3.0, -3.0, -3.0, -3.0, -3.0, -3.0, -3.0, -3.0, -3.0, -3.0, -3.0, -3.0, -3.0, -3.0, -3.0, -3.0, -3.0, -3.0, -3.0, -3.0, -4.0, -14.0, -45.0, -94.0, -112.0, -126.0, -131.0, -125.0, -72.0, 11.0, 129.0, 265.0, 408.0, 603.0, 662.0, 805.0, 867.0, 929.0, 957.0, 959.0, 959.0, 959.0, 957.0, 956.0, 956.0, 954.0, 953.0, 951.0, 948.0, 943.0, 939.0, 936.0, 935.0, 935.0, 935.0]	[-490.0, -490.0, -490.0, -490.0, -490.0, -490.0, -490.0, -490.0, -490.0, -490.0, -490.0, -490.0, -490.0, -490.0, -490.0, -490.0, -490.0, -490.0, -490.0, -490.0, -490.0, -490.0, -490.0, -490.0, -490.0, -490.0, -490.0, -490.0, -490.0, -490.0, -490.0, -489.0, -475.0, -427.0, -356.0, -342.0, -321.0, -293.0, -233.0, -128.0, -6.0, 95.0, 162.0, 204.0, 269.0, 296.0, 370.0, 398.0, 425.0, 446.0, 467.0, 492.0, 512.0, 521.0, 522.0, 522.0, 523.0, 524.0, 525.0, 526.0, 528.0, 529.0, 529.0, 529.0, 529.0, 529.0]	[0.014869086786347907, 0.019721820295671932, 0.027938733423070516, 0.045940644209622405, 0.06270317429152783, 0.07749143338878639, 0.09613368517602794, 0.11263543672976084, 0.12827088472113246, 0.14587377704447135, 0.16274416840315098, 0.17746757419809, 0.19602551669959212, 0.21244466562347952, 0.2280777242849581, 0.24594958713714732, 0.26302238905918784, 0.27747068033204414, 0.2959938068452175, 0.31260512634617044, 0.3277391559240641, 0.34575915736786555, 0.3627104446859448, 0.3774283891543746, 0.39597609165502945, 0.4125938964789384, 0.4277429447247414, 0.44570321286300896, 0.46274700146750547, 0.47754379389516544, 0.4963946002390003, 0.512409610710165, 0.5278272881478188, 0.5459479828714393, 0.5627337236073799, 0.5775397320321645, 0.5959403199449298, 0.612470060812484, 0.6277785116399173, 0.6457210304506589, 0.6644428128711297, 0.6774469235460856, 0.6958229354713694, 0.7123830549899139, 0.7277939057676122, 0.7458005952139501, 0.7631229116741451, 0.7776428829092765, 0.7959564308694098, 0.8143235681272927, 0.8278420678761904, 0.8476277857407695, 0.862623234068451, 0.8803315983313951, 0.8961175742515479, 0.9130125415977091, 0.9277912433681195, 0.9458528874529293, 0.9627270334822242, 0.9777648071176372, 0.9960896190677886, 1.012437770696124, 1.0277305201962008, 1.0457276523156906, 1.0626475369863329, 1.0774525214073947]
2	皇帝	True	animate	inanimate	left	0.781	[0.0, 0.0, 0.0, 0.0, 0.0, 0.0, 0.0, 0.0, 0.0, 0.0, 0.0, 0.0, 0.0, 0.0, 0.0, 0.0, 0.0, 0.0, 0.0, 0.0, 0.0, 0.0, 0.0, 0.0, 0.0, 0.0, -2.0, -39.0, -115.0, -162.0, -223.0, -296.0, -372.0, -445.0, -508.0, -580.0, -655.0, -697.0, -760.0, -804.0, -825.0, -829.0, -830.0, -831.0, -834.0, -841.0, -843.0, -843.0]	[-490.0, -490.0, -490.0, -490.0, -490.0, -490.0, -490.0, -490.0, -490.0, -490.0, -490.0, -490.0, -490.0, -490.0, -490.0, -490.0, -490.0, -490.0, -490.0, -490.0, -490.0, -490.0, -490.0, -490.0, -490.0, -490.0, -487.0, -442.0, -336.0, -251.0, -129.0, -13.0, 85.0, 151.0, 198.0, 238.0, 283.0, 308.0, 340.0, 361.0, 371.0, 374.0, 375.0, 381.0, 386.0, 391.0, 393.0, 393.0]	[0.016220424753555562, 0.021317552811524365, 0.030728790661669336, 0.048107768430782016, 0.06596188195544528, 0.07983093085204018, 0.09929852622008184, 0.11468616634374484, 0.130214777054789, 0.1481074612311204, 0.16486760198313277, 0.17985246898024343, 0.19881352593802148, 0.21470872846111888, 0.23021651785529684, 0.2478552501561353, 0.26483145479869563, 0.2796760338678723, 0.29820359771110816, 0.3147459679094027, 0.3299905894382391, 0.34786108695698204, 0.36487893424055073, 0.3796422760206042, 0.398123077226046, 0.4146780767478049, 0.4298008423356805, 0.44783108377305325, 0.4648875017082901, 0.47958599017874803, 0.49822414597292664, 0.5146043829154223, 0.5299722257186659, 0.5477468086173758, 0.5648059572122293, 0.5795733949853457, 0.5981446494770353, 0.614471638451505, 0.6299312998671667, 0.6476976907724747, 0.6648462686571293, 0.6795710397855146, 0.6980832436456694, 0.7144160352836479, 0.7298323473878554, 0.7476693942517159, 0.7647203508604434, 0.7795833619165933]
3	教室	False	animate	inanimate	right	0.896	[0.0, 0.0, 0.0, 0.0, 0.0, 0.0, 0.0, 0.0, 0.0, 0.0, 0.0, 0.0, 0.0, 0.0, 0.0, 0.0, 3.0, 4.0, 7.0, 12.0, 14.0, 15.0, 15.0, 15.0, 15.0, 15.0, 15.0, -29.0, -176.0, -262.0, -333.0, -391.0, -432.0, -456.0, -491.0, -496.0, -496.0, -487.0, -471.0, -459.0, -437.0, -429.0, -425.0, -407.0, -360.0, -272.0, -142.0, 20.0, 219.0, 438.0, 719.0, 854.0, 914.0, 931.0, 931.0]	[-490.0, -490.0, -490.0, -490.0, -490.0, -490.0, -490.0, -490.0, -490.0, -490.0, -490.0, -490.0, -490.0, -490.0, -490.0, -490.0, -489.0, -489.0, -488.0, -487.0, -486.0, -486.0, -486.0, -486.0, -486.0, -486.0, -482.0, -435.0, -307.0, -195.0, -100.0, -11.0, 81.0, 168.0, 310.0, 347.0, 385.0, 415.0, 434.0, 446.0, 473.0, 482.0, 484.0, 484.0, 479.0, 474.0, 474.0, 474.0, 474.0, 472.0, 469.0, 467.0, 467.0, 467.0, 467.0]	[0.014650974895630497, 0.023062447922711726, 0.030343425525643397, 0.045797625614795834, 0.06258951035124483, 0.07773412126698531, 0.09588792530121282, 0.11231663155922433, 0.12772338633658364, 0.14568160647468176, 0.16269979509525, 0.17733445426711114, 0.19593608740979107, 0.21232349235651782, 0.22768758048914606, 0.24576151256769663, 0.2626868585648481, 0.27732185907370877, 0.29597469219152117, 0.31229109983542, 0.32782005188346375, 0.3455932694560033, 0.3626404713941156, 0.37736592518922407, 0.3958439957277733, 0.4122576833178755, 0.4277149554036441, 0.44558408758894075, 0.4625275242506177, 0.47741545262397267, 0.4957610858982662, 0.5124277013674146, 0.5277385415320168, 0.545527460417361, 0.5624657770822523, 0.5773243508083397, 0.595740298711462, 0.6124161301704589, 0.6274716531333979, 0.6480079626198858, 0.6624518165554036, 0.6775674141463242, 0.6958034794806736, 0.7143525473147747, 0.7277942470973358, 0.7469983332703123, 0.7625129493244458, 0.779042690192, 0.7956949696672382, 0.8136231524913455, 0.8277048519448726, 0.8498935552488547, 0.8625003541310434, 0.8785587139063864, 0.8957875050837174]
4	坦克	False	inanimate	animate	left	1.557	[0.0, 0.0, 0.0, 0.0, 0.0, 0.0, 0.0, 0.0, 0.0, 0.0, 0.0, 0.0, 0.0, 0.0, 0.0, 0.0, 0.0, 0.0, 0.0, 0.0, 0.0, 0.0, 0.0, 0.0, 0.0, 0.0, 0.0, 0.0, 0.0, 0.0, 0.0, -18.0, -26.0, -29.0, -35.0, -35.0, -21.0, 19.0, 102.0, 219.0, 369.0, 554.0, 595.0, 637.0, 637.0, 616.0, 535.0, 397.0, 203.0, -11.0, -210.0, -378.0, -521.0, -648.0, -759.0, -839.0, -888.0, -914.0, -949.0, -959.0, -960.0, -960.0, -960.0, -960.0, -960.0, -960.0, -960.0, -958.0, -952.0, -931.0, -886.0, -835.0, -767.0, -686.0, -591.0, -498.0, -419.0, -371.0, -341.0, -327.0, -322.0, -325.0, -401.0, -507.0, -617.0, -679.0, -727.0, -758.0, -793.0, -815.0, -822.0, -825.0, -826.0, -826.0]	[-490.0, -490.0, -490.0, -490.0, -490.0, -490.0, -490.0, -490.0, -490.0, -490.0, -490.0, -490.0, -490.0, -490.0, -490.0, -490.0, -490.0, -490.0, -490.0, -490.0, -490.0, -490.0, -490.0, -490.0, -490.0, -490.0, -490.0, -490.0, -490.0, -490.0, -490.0, -455.0, -424.0, -412.0, -359.0, -307.0, -217.0, -98.0, 54.0, 189.0, 275.0, 340.0, 353.0, 365.0, 365.0, 365.0, 365.0, 365.0, 365.0, 377.0, 397.0, 421.0, 439.0, 458.0, 472.0, 477.0, 477.0, 477.0, 470.0, 470.0, 471.0, 471.0, 471.0, 471.0, 471.0, 471.0, 471.0, 472.0, 472.0, 467.0, 451.0, 432.0, 399.0, 362.0, 293.0, 204.0, 101.0, 30.0, -4.0, -11.0, -11.0, 5.0, 104.0, 208.0, 272.0, 300.0, 321.0, 338.0, 359.0, 374.0, 380.0, 383.0, 383.0, 383.0]	[0.015112423192476854, 0.019702671510458458, 0.028424757714674342, 0.04673864700453123, 0.06332846250734292, 0.07861882267752662, 0.09665759744530078, 0.11351228748389985, 0.12845005049894098, 0.14676257445535157, 0.16335853395867161, 0.1785045102078584, 0.19648355166282272, 0.21338159101287602, 0.22818247943359893, 0.24686842186929425, 0.2631428455351852, 0.27864619759930065, 0.3063962420565076, 0.3134372624554089, 0.3282763801908004, 0.34691624264087295, 0.36308041570009664, 0.37859878642484546, 0.3964470972859999, 0.41346255523967557, 0.42807332109077834, 0.44662102359870914, 0.4630295911920257, 0.4784752579507767, 0.4964065127715003, 0.5133475600960082, 0.5284730563507765, 0.547864193089481, 0.5631146172818262, 0.578394396128715, 0.5965205521788448, 0.6133312102392665, 0.6283058372428059, 0.646709838481911, 0.665360623599554, 0.6784579182276502, 0.6988143451380893, 0.7133131537193549, 0.7310556512966286, 0.7466238566630636, 0.7680810830061091, 0.778461365691328, 0.7970025828690268, 0.8132701798676862, 0.8289250838570297, 0.8466286694601877, 0.8635939514351776, 0.8785914477630286, 0.8969736036815448, 0.913309808653139, 0.9281922756999847, 0.9463194557465613, 0.9647722676381818, 0.9785993325567688, 0.9978075147228083, 1.0130831975693582, 1.029568906458735, 1.0465594470952055, 1.0633458704978693, 1.078230726874608, 1.0976088929528487, 1.1129941437466186, 1.1293518527018023, 1.1465608465587138, 1.1640671415952966, 1.1783362329588272, 1.1972259512840537, 1.213047084522259, 1.229525284084957, 1.2464714514062507, 1.263255826808745, 1.2781973444944015, 1.2966330897252192, 1.3132543078827439, 1.3285415960490354, 1.346546920169203, 1.3633336849015905, 1.3782458479399793, 1.3969362276984612, 1.4132611686727614, 1.4286723607874592, 1.4465725542904693, 1.4635648015901097, 1.4782769433877547, 1.496685723293922, 1.5132898747979198, 1.528658741590334, 1.5463367272095638]
5	米饭	False	inanimate	animate	left	1.053	[0.0, 0.0, 0.0, 0.0, 0.0, 0.0, 0.0, 0.0, 0.0, 0.0, 0.0, 1.0, 5.0, 11.0, 17.0, 18.0, 20.0, 20.0, 20.0, 20.0, 20.0, 20.0, 20.0, 20.0, 20.0, 20.0, 20.0, 20.0, 20.0, 20.0, 20.0, 20.0, 27.0, 50.0, 66.0, 73.0, 77.0, 86.0, 99.0, 108.0, 170.0, 229.0, 301.0, 393.0, 489.0, 563.0, 595.0, 604.0, 604.0, 552.0, 422.0, 336.0, 50.0, -166.0, -390.0, -697.0, -779.0, -926.0, -960.0, -960.0, -960.0, -960.0, -951.0, -944.0]	[-490.0, -491.0, -491.0, -491.0, -491.0, -491.0, -491.0, -491.0, -491.0, -491.0, -493.0, -493.0, -494.0, -494.0, -494.0, -494.0, -493.0, -493.0, -493.0, -493.0, -493.0, -493.0, -493.0, -493.0, -493.0, -493.0, -493.0, -493.0, -493.0, -493.0, -490.0, -479.0, -455.0, -420.0, -391.0, -377.0, -358.0, -299.0, -238.0, -215.0, -116.0, -42.0, 32.0, 114.0, 170.0, 195.0, 204.0, 205.0, 205.0, 205.0, 204.0, 199.0, 199.0, 199.0, 237.0, 319.0, 345.0, 382.0, 411.0, 431.0, 435.0, 443.0, 447.0, 448.0]	[0.014269023093220312, 0.019050759314268362, 0.02719769914256176, 0.04688169973087497, 0.06209662526816828, 0.08003061075578444, 0.09539879488875158, 0.11346692430379335, 0.1273366558671114, 0.1473817869409686, 0.16211475006275577, 0.18011256484896876, 0.19540155968570616, 0.21390454754873645, 0.22718104207888246, 0.2463366589436191, 0.26208269887865754, 0.2785810370987747, 0.2954268524699728, 0.31343354192358674, 0.32698105498275254, 0.3472958392521832, 0.3618902211092063, 0.37844590329768835, 0.3954149399432936, 0.4128498963546008, 0.426967777122627, 0.44559501025651116, 0.46194589255173923, 0.4775195592446835, 0.49540985408384586, 0.5122123201435897, 0.5271968458037009, 0.5454079938135692, 0.5618971160438377, 0.5772062495379942, 0.5953733655696851, 0.612224983604392, 0.6269535093961167, 0.6455295425548684, 0.6620196887743077, 0.677270112966653, 0.6954215276782634, 0.7121676737660891, 0.7269463755364995, 0.7454691607199493, 0.7618231150117936, 0.7773288564058021, 0.7950819353136467, 0.8119769026670838, 0.8269498230001773, 0.8455500908094109, 0.8617794585006777, 0.8772609652442043, 0.8951782254007412, 0.9120209687753231, 0.9269638517944259, 0.9453784343641018, 0.9617112260020804, 0.9772988873519353, 0.9950772249212605, 1.012067765550455, 1.0268143819994293, 1.0454556097902241]
6	公鸡	True	animate	inanimate	left	1.122	[0.0, 0.0, 0.0, 0.0, -1.0, -1.0, -2.0, -2.0, -2.0, -2.0, -2.0, -2.0, -2.0, -2.0, -2.0, -2.0, -2.0, -2.0, -2.0, -2.0, -2.0, -2.0, -2.0, -2.0, -2.0, -2.0, -2.0, -3.0, -12.0, -12.0, -12.0, -15.0, -21.0, -27.0, -34.0, -42.0, -43.0, -18.0, 7.0, 81.0, 167.0, 237.0, 304.0, 372.0, 451.0, 474.0, 534.0, 553.0, 564.0, 568.0, 569.0, 569.0, 551.0, 502.0, 388.0, 132.0, 29.0, -304.0, -507.0, -677.0, -796.0, -867.0, -893.0, -897.0, -894.0, -883.0, -879.0, -877.0]	[-490.0, -490.0, -490.0, -489.0, -489.0, -489.0, -489.0, -489.0, -489.0, -489.0, -489.0, -489.0, -489.0, -489.0, -489.0, -489.0, -489.0, -489.0, -489.0, -489.0, -489.0, -489.0, -489.0, -489.0, -489.0, -489.0, -489.0, -489.0, -489.0, -489.0, -489.0, -489.0, -474.0, -452.0, -429.0, -394.0, -333.0, -180.0, -120.0, -1.0, 73.0, 105.0, 134.0, 162.0, 207.0, 218.0, 233.0, 238.0, 246.0, 251.0, 258.0, 269.0, 277.0, 278.0, 278.0, 280.0, 282.0, 328.0, 362.0, 388.0, 402.0, 425.0, 435.0, 440.0, 443.0, 446.0, 447.0, 447.0]	[0.014791911358770449, 0.01984500743856188, 0.0274219208949944, 0.046171692629286554, 0.062442702961561736, 0.07784604440530529, 0.09580016855034046, 0.11273029321455397, 0.12751855231181253, 0.14604679882177152, 0.16255059837567387, 0.17786041453655344, 0.1959312746184878, 0.21278084465302527, 0.22758924240770284, 0.2460724329430377, 0.2651812871627044, 0.2777321074026986, 0.2984814087758423, 0.3127624467961141, 0.32769304182147607, 0.3460424297591089, 0.3644105910207145, 0.37791441343870247, 0.39752024873450864, 0.41273756360897096, 0.430579730476893, 0.44606567455048207, 0.46379861480090767, 0.47793390356673626, 0.4974776162271155, 0.512753640403389, 0.5304101220317534, 0.5460240660322597, 0.5671324498907779, 0.5776182045228779, 0.6002936489167041, 0.6126942825649166, 0.6282297199431923, 0.6459059988919762, 0.6626613609842025, 0.6779145158434403, 0.6956887574051507, 0.7127410793400486, 0.727767247648444, 0.7456353558372939, 0.7623019712991663, 0.7776599154385622, 0.7967141563494806, 0.8123250283533707, 0.8293493609744473, 0.845845651194395, 0.8637704206848866, 0.8777050055505242, 0.8970186596561689, 0.9123830891257967, 0.9288363713712897, 0.9456453227612656, 0.9637728441448417, 0.9776429170451593, 0.9967039846233092, 1.012237715331139, 1.0283684377427562, 1.0456388715683715, 1.063112398616795, 1.0777709511166904, 1.096134333711234, 1.112265056122851]
7	椅子	False	inanimate	animate	left	1.276	[0.0, 0.0, 0.0, 0.0, 0.0, 0.0, 0.0, 0.0, 0.0, 0.0, 0.0, 0.0, 0.0, 0.0, 0.0, 0.0, 0.0, 0.0, 0.0, 0.0, 0.0, 0.0, 0.0, 0.0, 0.0, 0.0, 0.0, 0.0, 0.0, 0.0, 0.0, 0.0, 0.0, 0.0, 0.0, -3.0, -4.0, -7.0, -10.0, -13.0, -13.0, -13.0, -5.0, 19.0, 56.0, 117.0, 202.0, 360.0, 413.0, 569.0, 667.0, 727.0, 758.0, 762.0, 757.0, 737.0, 710.0, 680.0, 663.0, 659.0, 661.0, 682.0, 693.0, 696.0, 691.0, 646.0, 527.0, 348.0, 124.0, -109.0, -435.0, -593.0, -638.0, -713.0, -721.0, -721.0, -721.0]	[-490.0, -490.0, -490.0, -490.0, -490.0, -490.0, -490.0, -490.0, -490.0, -490.0, -490.0, -490.0, -490.0, -490.0, -490.0, -490.0, -490.0, -490.0, -490.0, -490.0, -490.0, -490.0, -490.0, -490.0, -490.0, -490.0, -490.0, -490.0, -490.0, -490.0, -490.0, -490.0, -490.0, -490.0, -490.0, -487.0, -485.0, -479.0, -473.0, -466.0, -460.0, -452.0, -440.0, -421.0, -399.0, -353.0, -281.0, -147.0, -114.0, -43.0, 7.0, 51.0, 100.0, 126.0, 138.0, 150.0, 164.0, 184.0, 202.0, 222.0, 231.0, 255.0, 267.0, 271.0, 273.0, 273.0, 273.0, 284.0, 319.0, 358.0, 422.0, 450.0, 459.0, 483.0, 489.0, 489.0, 489.0]	[0.009760353394085541, 0.0165999872260727, 0.02990174041769933, 0.05268845941463951, 0.064879514509812, 0.08093104762519943, 0.09821445211127866, 0.11529476335999789, 0.13008165712381015, 0.1484064690739615, 0.16500311124400469, 0.17994531159638427, 0.19800559034774778, 0.2146558218228165, 0.22988747269118903, 0.24903865221858723, 0.26477138016343815, 0.280909611901734, 0.29821042437833967, 0.3158727086702129, 0.3301185893724323, 0.34824986542662373, 0.3647004169979482, 0.3800907877885038, 0.39802955193590606, 0.4149600179371191, 0.4299261116029811, 0.4482673075472121, 0.464632867166074, 0.48001265662605874, 0.49824189529317664, 0.5151341319797211, 0.530043905680941, 0.5482256990362657, 0.5648226825360325, 0.5801485413612681, 0.5982412467637914, 0.6151283634462743, 0.6297148946468951, 0.6482103731759707, 0.6647111007259809, 0.680027743554092, 0.6979071157329599, 0.7148662537147175, 0.7296913767931983, 0.7481875379889971, 0.76457801493234, 0.7799550737254322, 0.7979033951996826, 0.8147826612257631, 0.8297170109144645, 0.8481124788304442, 0.8645609824015992, 0.8799295078715659, 0.897872368019307, 0.9149202526241424, 0.9297184103779728, 0.9480787209759001, 0.9645944671865436, 0.979961627323064, 0.997907900797145, 1.0148376841316349, 1.0297703271498904, 1.0481309790848172, 1.067335747917241, 1.0799333308023051, 1.1001167018039268, 1.114798123613582, 1.1299277158686891, 1.1480968799005495, 1.1701504152733833, 1.179812532995129, 1.2033580356073799, 1.2148063497443218, 1.2327147352407337, 1.248190097983752, 1.2657383770056185]
8	香蕉	False	animate	inanimate	right	0.999	[0.0, 0.0, 0.0, 0.0, 0.0, 0.0, 0.0, 0.0, 0.0, 0.0, 0.0, 0.0, 0.0, 0.0, 0.0, 0.0, 0.0, 0.0, 0.0, 17.0, 27.0, 28.0, 28.0, 19.0, -11.0, -38.0, -67.0, -93.0, -118.0, -148.0, -183.0, -218.0, -241.0, -246.0, -196.0, -128.0, -82.0, 91.0, 218.0, 337.0, 434.0, 520.0, 588.0, 638.0, 668.0, 685.0, 712.0, 728.0, 741.0, 749.0, 751.0, 752.0, 752.0, 752.0, 754.0, 756.0, 756.0, 756.0, 756.0, 756.0]	[-490.0, -490.0, -490.0, -489.0, -486.0, -486.0, -486.0, -486.0, -486.0, -486.0, -485.0, -471.0, -469.0, -469.0, -469.0, -469.0, -469.0, -469.0, -465.0, -443.0, -430.0, -428.0, -421.0, -414.0, -403.0, -396.0, -389.0, -373.0, -350.0, -296.0, -180.0, -61.0, 31.0, 87.0, 148.0, 171.0, 185.0, 213.0, 233.0, 249.0, 257.0, 257.0, 257.0, 259.0, 268.0, 279.0, 299.0, 309.0, 317.0, 323.0, 327.0, 332.0, 344.0, 357.0, 365.0, 371.0, 372.0, 372.0, 372.0, 372.0]	[0.004978958510037046, 0.013869663293007761, 0.023090437236533035, 0.04253448061353993, 0.05829929387982702, 0.07592164218658581, 0.09163866880408023, 0.11284194328618469, 0.12320106331753777, 0.1413746646794607, 0.1580863361232332, 0.17365146948577603, 0.19165167360188207, 0.2119691885309294, 0.2232748254100443, 0.24160919468704378, 0.25824543150520185, 0.2730661172463442, 0.2915882197630708, 0.3081701846094802, 0.3234069554746384, 0.34130987964454107, 0.3581410176921054, 0.37332419925223803, 0.3915889365671319, 0.408187285400345, 0.4233929949477897, 0.44128977511718404, 0.45808746251714183, 0.47308632417116314, 0.49123500821588095, 0.5080555649328744, 0.523396783748467, 0.5411928706380422, 0.5580386860092403, 0.5733478195033967, 0.5912483543434064, 0.6078299778528162, 0.6232852019384154, 0.6411563821238815, 0.6580817281210329, 0.6733874482888496, 0.6912057218287373, 0.708092155851773, 0.7230411828641081, 0.7414629334307392, 0.7578633090306539, 0.7733212637831457, 0.7912030252991826, 0.8082065365888411, 0.8230688649782678, 0.8418172713791137, 0.8580104577558814, 0.8733369992478401, 0.8913324246968841, 0.9082089600560721, 0.9230900617694715, 0.9416637055910542, 0.957917990606802, 0.9733503453680896]
9	桥梁	False	animate	inanimate	right	0.862	[0.0, 0.0, 0.0, 0.0, 0.0, 0.0, 0.0, 0.0, 0.0, 0.0, 0.0, 0.0, 0.0, 0.0, 0.0, 0.0, 4.0, 20.0, 30.0, 50.0, 56.0, 65.0, 71.0, 71.0, 71.0, 71.0, 71.0, 71.0, 60.0, 40.0, 34.0, 32.0, 68.0, 122.0, 209.0, 310.0, 373.0, 400.0, 403.0, 406.0, 406.0, 406.0, 406.0, 423.0, 452.0, 510.0, 584.0, 654.0, 698.0, 719.0, 723.0, 723.0, 723.0]	[-490.0, -490.0, -490.0, -490.0, -490.0, -490.0, -490.0, -490.0, -490.0, -490.0, -490.0, -490.0, -490.0, -490.0, -490.0, -490.0, -490.0, -490.0, -490.0, -490.0, -489.0, -488.0, -488.0, -488.0, -488.0, -488.0, -488.0, -488.0, -460.0, -394.0, -357.0, -191.0, -100.0, -35.0, 21.0, 78.0, 123.0, 168.0, 199.0, 211.0, 218.0, 240.0, 251.0, 290.0, 325.0, 365.0, 406.0, 436.0, 452.0, 457.0, 457.0, 457.0, 457.0]	[0.009792780059797224, 0.014570761610229965, 0.02256137085350929, 0.03636829711467726, 0.0558928951213602, 0.06824335279816296, 0.08868101699772524, 0.10309415095252916, 0.11826504451892106, 0.13635877392516704, 0.1547433191735763, 0.16812460299115628, 0.18737169713858748, 0.20310681441333145, 0.21968434192967834, 0.23636426938901423, 0.2575361412091297, 0.2680273571750149, 0.2863965424330672, 0.3030819312261883, 0.31786165699304547, 0.33612775964138564, 0.35491712602379266, 0.3680703992868075, 0.38741033605037956, 0.40292153877817327, 0.41962331155809807, 0.4361018524505198, 0.45423551783460425, 0.46787723885063315, 0.4874922901435639, 0.5029778928801534, 0.5187232501484687, 0.5363558384560747, 0.5536242242815206, 0.5678192463456071, 0.587006948524504, 0.6028400284194504, 0.6188526495534461, 0.6359739207837265, 0.6531078213447472, 0.6680991736720898, 0.6863311430061003, 0.7028052465684596, 0.7181140387328924, 0.735898520288174, 0.7531061488116393, 0.7678940665791743, 0.7863847664411878, 0.8028353180197882, 0.8184349260336603, 0.835974330388126, 0.8530703429642017]
10	乌鸦	True	inanimate	animate	right	0.879	[0.0, 0.0, 0.0, 0.0, 0.0, 0.0, 0.0, 0.0, 0.0, 0.0, 0.0, 0.0, 0.0, 0.0, 0.0, 0.0, 0.0, 0.0, 0.0, 0.0, 0.0, 0.0, 0.0, 0.0, 0.0, 0.0, -33.0, -69.0, -215.0, -268.0, -358.0, -487.0, -542.0, -553.0, -525.0, -439.0, -340.0, -238.0, -129.0, -9.0, 149.0, 192.0, 279.0, 384.0, 450.0, 523.0, 623.0, 650.0, 693.0, 723.0, 753.0, 758.0, 760.0]	[-490.0, -490.0, -490.0, -490.0, -490.0, -490.0, -490.0, -490.0, -490.0, -490.0, -490.0, -490.0, -490.0, -490.0, -490.0, -490.0, -490.0, -490.0, -490.0, -490.0, -490.0, -490.0, -490.0, -490.0, -490.0, -490.0, -489.0, -479.0, -434.0, -411.0, -341.0, -204.0, -103.0, -11.0, 53.0, 104.0, 148.0, 204.0, 247.0, 267.0, 285.0, 287.0, 296.0, 315.0, 338.0, 371.0, 419.0, 427.0, 438.0, 444.0, 450.0, 452.0, 452.0]	[0.011842144333058968, 0.018134962439944502, 0.03918566099309828, 0.04260377124592196, 0.057061278508626856, 0.07244960129901301, 0.09048223206627881, 0.10713724220840959, 0.12202243991487194, 0.14027011057623895, 0.15703025132825132, 0.1724465634324588, 0.1904293595580384, 0.2072185136275948, 0.22203612737939693, 0.24027799536997918, 0.2573115439809044, 0.27227217632025713, 0.29052564964513294, 0.3069997532074922, 0.3223727160075214, 0.34029100016050506, 0.35716890085313935, 0.37204658924019895, 0.3905198811116861, 0.4069154780518147, 0.4222918541781837, 0.4403186822819407, 0.45721603896527085, 0.4720575460305554, 0.4904891952610342, 0.5069493041664828, 0.522500442872115, 0.5416652757267002, 0.5571099184890045, 0.5722081080893986, 0.5905363333731657, 0.609217497141799, 0.622478631681588, 0.6427988772775279, 0.657061141981103, 0.6722176995535847, 0.6904312368933461, 0.7083740970410872, 0.7224476045012125, 0.7455050006974488, 0.7571130587530206, 0.7737813808853389, 0.7905316229735035, 0.8123131158208707, 0.8221974414263968, 0.845336416248756, 0.8570769115685835]
11	电话	False	animate	inanimate	right	0.828	[0.0, 0.0, 0.0, 0.0, 0.0, 0.0, 0.0, 0.0, 0.0, 0.0, 0.0, 0.0, 0.0, 0.0, 0.0, 0.0, 0.0, 0.0, 0.0, 0.0, 0.0, 0.0, 0.0, 0.0, 0.0, 0.0, -5.0, -35.0, -83.0, -142.0, -204.0, -287.0, -310.0, -338.0, -321.0, -266.0, -173.0, -56.0, 61.0, 170.0, 283.0, 404.0, 531.0, 692.0, 732.0, 787.0, 824.0, 830.0, 831.0, 831.0]	[-490.0, -490.0, -490.0, -490.0, -490.0, -490.0, -490.0, -490.0, -490.0, -490.0, -490.0, -490.0, -490.0, -490.0, -490.0, -490.0, -490.0, -490.0, -490.0, -490.0, -490.0, -490.0, -490.0, -490.0, -490.0, -490.0, -490.0, -487.0, -475.0, -449.0, -410.0, -332.0, -297.0, -174.0, -99.0, -37.0, 35.0, 116.0, 205.0, 289.0, 356.0, 389.0, 405.0, 429.0, 436.0, 456.0, 480.0, 494.0, 496.0, 498.0]	[0.009669558778114151, 0.014354356382682454, 0.020121180095884483, 0.03610615324578248, 0.0524549875408411, 0.06781224900623783, 0.0859571783876163, 0.10278797510545701, 0.11756804220203776, 0.13605942473077448, 0.152706584209227, 0.16805599501822144, 0.18589167655591154, 0.20275865458097542, 0.2175097083672881, 0.23606799219851382, 0.25253970643098, 0.2680457891547121, 0.28604155594075564, 0.30287781399238156, 0.3175066705007339, 0.3360202396870591, 0.3524329032807145, 0.3677932367500034, 0.3857634035521187, 0.40271025354013545, 0.41748622464365326, 0.43604484980460256, 0.4525165640443447, 0.4679543801394175, 0.48590918694389984, 0.5026921970202238, 0.5177531813096721, 0.5360186012912891, 0.5538638401485514, 0.5679752355936216, 0.5877923561129137, 0.6025966578672524, 0.6202401688351529, 0.6359810887734056, 0.6539051755971741, 0.6678848164374358, 0.6902315569968778, 0.7025874760074657, 0.7184949665243039, 0.7358667762964615, 0.7526132637285627, 0.7677913252846338, 0.7858560413733358, 0.8024380062124692]
12	麻将	False	animate	inanimate	right	0.74	[0.0, 0.0, 0.0, 0.0, 0.0, 0.0, 0.0, 0.0, 0.0, 0.0, 0.0, 0.0, 0.0, 0.0, 0.0, 0.0, 0.0, 0.0, 0.0, 0.0, 0.0, 0.0, 0.0, 0.0, 0.0, 0.0, 0.0, 0.0, 0.0, 0.0, 0.0, 23.0, 61.0, 129.0, 203.0, 288.0, 390.0, 494.0, 598.0, 682.0, 743.0, 755.0, 757.0, 758.0, 758.0, 758.0]	[-490.0, -490.0, -490.0, -490.0, -490.0, -490.0, -490.0, -490.0, -490.0, -490.0, -490.0, -490.0, -490.0, -490.0, -490.0, -490.0, -490.0, -490.0, -490.0, -490.0, -490.0, -490.0, -490.0, -490.0, -490.0, -490.0, -490.0, -490.0, -490.0, -490.0, -489.0, -391.0, -267.0, -139.0, -21.0, 81.0, 166.0, 250.0, 324.0, 383.0, 425.0, 436.0, 440.0, 442.0, 442.0, 442.0]	[0.01273780254268786, 0.020842758392973337, 0.026835885990294628, 0.03708919273776701, 0.054932383602135815, 0.06895025376434205, 0.09241315374674741, 0.10381709457578836, 0.12054344334319467, 0.1371042455357383, 0.15466003387700766, 0.16894175456400262, 0.18777481158758746, 0.20378163005807437, 0.22150637832237408, 0.23710189033590723, 0.2543934868153883, 0.26897387401550077, 0.2872229100030381, 0.30388269881223096, 0.31865218457824085, 0.3368629912583856, 0.355201456535724, 0.368868094868958, 0.3884599355078535, 0.40357997042883653, 0.4217887291088118, 0.43705963328829966, 0.4537917847192148, 0.4689561929553747, 0.4884224229899701, 0.5037960684567224, 0.5202623213554034, 0.5367941102231271, 0.5555462712873123, 0.568904344450857, 0.587909774723812, 0.6034103961210349, 0.6191939827040187, 0.6370054295839509, 0.6540615061821882, 0.6687494133293512, 0.6871568279093481, 0.7033865369303385, 0.7189434782994795, 0.7368887277771137]
13	火焰	False	inanimate	animate	left	1.218	[0.0, 0.0, 0.0, 0.0, 0.0, 0.0, 0.0, 0.0, 0.0, 0.0, 0.0, 0.0, 0.0, 0.0, 0.0, 0.0, 0.0, 0.0, 0.0, 0.0, 0.0, 0.0, 0.0, 0.0, 0.0, 0.0, 0.0, 0.0, 0.0, 0.0, 0.0, 0.0, 0.0, 0.0, 0.0, 1.0, 33.0, 107.0, 211.0, 321.0, 477.0, 556.0, 581.0, 602.0, 598.0, 556.0, 454.0, 313.0, 127.0, -90.0, -317.0, -535.0, -779.0, -860.0, -880.0, -881.0, -880.0, -873.0, -869.0, -868.0, -868.0, -868.0, -868.0, -868.0, -864.0, -846.0, -835.0, -797.0, -769.0, -749.0, -733.0, -730.0, -728.0, -728.0]	[-490.0, -490.0, -490.0, -490.0, -490.0, -490.0, -490.0, -490.0, -490.0, -490.0, -490.0, -490.0, -490.0, -490.0, -490.0, -490.0, -490.0, -490.0, -490.0, -490.0, -490.0, -490.0, -490.0, -490.0, -490.0, -490.0, -490.0, -490.0, -490.0, -490.0, -490.0, -490.0, -490.0, -490.0, -490.0, -483.0, -426.0, -290.0, -142.0, -51.0, 48.0, 90.0, 108.0, 157.0, 171.0, 179.0, 191.0, 212.0, 234.0, 248.0, 257.0, 277.0, 307.0, 307.0, 309.0, 309.0, 310.0, 310.0, 310.0, 310.0, 310.0, 310.0, 310.0, 310.0, 310.0, 312.0, 314.0, 331.0, 350.0, 379.0, 418.0, 424.0, 427.0, 427.0]	[0.01111647003563121, 0.01547461180598475, 0.02256000551278703, 0.03794184297294123, 0.058599325726390816, 0.07116311662684893, 0.08788400406774599, 0.10433421430934686, 0.11936618528125109, 0.1376302399294218, 0.15582193194859428, 0.16941415965993656, 0.189255173499987, 0.20441173107246868, 0.22228325258765835, 0.23789139393193182, 0.25459111871168716, 0.26937698847905267, 0.28896609844377963, 0.30449061316176085, 0.32083501012675697, 0.33761528953618836, 0.35480039007234154, 0.36946747589536244, 0.3880192743963562, 0.4045312659436604, 0.4196318448812235, 0.4378283155601821, 0.4545905043123639, 0.4694671686957008, 0.4879165672464296, 0.5043415188411018, 0.5197875269295764, 0.5378003603764228, 0.5545816637823009, 0.5695429787883768, 0.5879596093582222, 0.604331654314592, 0.6197093957744073, 0.6377427092083963, 0.6546141245707986, 0.6693907783337636, 0.6879633981588995, 0.7043019924603868, 0.719596789960633, 0.73771714335453, 0.7545489640688174, 0.7694522524398053, 0.7878231443610275, 0.8044228585349629, 0.8197022960448521, 0.837713081484253, 0.8544793662367738, 0.86958062784106, 0.8879266024450772, 0.9044133353381767, 0.919773327470466, 0.9375765823569964, 0.9545623443264049, 0.9694328647165094, 0.9879102525883354, 1.0041314282789244, 1.0198119322521961, 1.0374489578898647, 1.0544111678682384, 1.0693499548870022, 1.0877498601330444, 1.1041120064255665, 1.119641982470057, 1.1374831253415323, 1.1543852606846485, 1.1693489650206175, 1.1878314728965051, 1.2041878165182425]
14	医生	True	animate	inanimate	left	0.853	[0.0, 0.0, 0.0, 0.0, 0.0, 0.0, 0.0, 0.0, 0.0, 0.0, 0.0, 0.0, 0.0, 0.0, 0.0, 0.0, 0.0, 0.0, 0.0, 0.0, 0.0, 0.0, 0.0, 0.0, 0.0, -31.0, -60.0, -91.0, -104.0, -100.0, -55.0, 42.0, 180.0, 323.0, 471.0, 636.0, 670.0, 690.0, 676.0, 578.0, 418.0, 84.0, -40.0, -289.0, -530.0, -721.0, -848.0, -893.0, -893.0, -891.0, -884.0, -881.0]	[-490.0, -490.0, -490.0, -490.0, -490.0, -490.0, -490.0, -490.0, -490.0, -490.0, -490.0, -490.0, -490.0, -490.0, -490.0, -490.0, -490.0, -490.0, -490.0, -490.0, -490.0, -490.0, -490.0, -490.0, -490.0, -448.0, -383.0, -290.0, -206.0, -131.0, -58.0, 50.0, 148.0, 216.0, 274.0, 344.0, 358.0, 370.0, 374.0, 376.0, 376.0, 378.0, 378.0, 394.0, 399.0, 421.0, 439.0, 449.0, 449.0, 450.0, 451.0, 451.0]	[0.011451283731730655, 0.01652793180255685, 0.022773987271648366, 0.03950818670273293, 0.05601983691303758, 0.07141771703027189, 0.08929674787941622, 0.10624393919715658, 0.12100489164004102, 0.13965704209113028, 0.15592293243389577, 0.17124298858834663, 0.1893070220030495, 0.20626138132502092, 0.22113872837508097, 0.23958710292936303, 0.25592569723085035, 0.27119864941050764, 0.2894545120652765, 0.30623001280764583, 0.32103977588849375, 0.3395274037611671, 0.35600526198686566, 0.3715557180257747, 0.3918817662852234, 0.40631094289710745, 0.4211855592802749, 0.43947930991998874, 0.4578358658545767, 0.4713304722754401, 0.49117831278272206, 0.5062072117507341, 0.5212091454086476, 0.5394486240693368, 0.55728669493692, 0.5714854716643458, 0.590694677826832, 0.6062471818659105, 0.6222901816508966, 0.639402578221052, 0.6605041354196146, 0.6712595432472881, 0.6901397042456665, 0.706155738713278, 0.7220461625765893, 0.7394043190215598, 0.7567242461518617, 0.7715032892519957, 0.7898721331803245, 0.8061342688597506, 0.8210553065509885, 0.8394279051426565]
15	海豚	True	inanimate	animate	right	0.813	[0.0, 0.0, 0.0, 0.0, 0.0, 0.0, 0.0, 0.0, 0.0, 0.0, 0.0, 0.0, 0.0, 0.0, 0.0, 0.0, 0.0, 0.0, 0.0, 0.0, 0.0, 0.0, 0.0, 0.0, 0.0, 0.0, -5.0, -21.0, -40.0, -53.0, -54.0, -50.0, -25.0, 22.0, 97.0, 183.0, 266.0, 387.0, 443.0, 462.0, 492.0, 508.0, 528.0, 549.0, 573.0, 613.0, 652.0, 671.0, 674.0]	[-490.0, -490.0, -490.0, -490.0, -490.0, -490.0, -490.0, -490.0, -490.0, -490.0, -490.0, -490.0, -490.0, -490.0, -490.0, -490.0, -490.0, -490.0, -490.0, -490.0, -490.0, -490.0, -490.0, -490.0, -489.0, -489.0, -487.0, -482.0, -472.0, -458.0, -437.0, -406.0, -347.0, -259.0, -128.0, 24.0, 144.0, 253.0, 298.0, 313.0, 331.0, 339.0, 353.0, 369.0, 387.0, 408.0, 422.0, 424.0, 424.0]	[0.008281015492684674, 0.012772618531016633, 0.01728401888249209, 0.03351748257409781, 0.049823650224425364, 0.06519729568390176, 0.08317906781303464, 0.10010748581407825, 0.11495172354625538, 0.13343047675152775, 0.14986703366594156, 0.16518128716415958, 0.18319889927079203, 0.20009727995056892, 0.21496814167039702, 0.23357421214313945, 0.24995342508918839, 0.26519565728813177, 0.2833965653044288, 0.3001580713898875, 0.31535149294359144, 0.33358516894077184, 0.35190759156103013, 0.36523426206986187, 0.3851814305235166, 0.4000963242215221, 0.4178756857800181, 0.43347631779761286, 0.45128230334375985, 0.4652520455274498, 0.4837929213681491, 0.5000765610311646, 0.5152815879118862, 0.5331735894142184, 0.5500357887794962, 0.5654678022183361, 0.5831229185059783, 0.5998625792708481, 0.6149358515540371, 0.6330343596200692, 0.6509611771107302, 0.6649401352842688, 0.6840390908400877, 0.6996793174985214, 0.7155939760195906, 0.7333876735719969, 0.7502369022768107, 0.7652248412705376, 0.7835103999095736]
16	鸡蛋	False	animate	inanimate	left	1.32	[0.0, 0.0, 0.0, 0.0, 0.0, 0.0, 0.0, 0.0, 0.0, 0.0, 0.0, 0.0, 0.0, 0.0, 0.0, 0.0, 0.0, 0.0, 0.0, 0.0, 0.0, 0.0, 0.0, 0.0, 0.0, 0.0, 0.0, 0.0, 0.0, 0.0, 0.0, -14.0, -20.0, -23.0, 5.0, 24.0, 36.0, 55.0, 80.0, 118.0, 164.0, 213.0, 218.0, 220.0, 214.0, 181.0, 30.0, -130.0, -313.0, -516.0, -676.0, -807.0, -886.0, -924.0, -935.0, -935.0, -926.0, -910.0, -879.0, -849.0, -831.0, -750.0, -657.0, -528.0, -393.0, -271.0, -198.0, -179.0, -179.0, -210.0, -392.0, -565.0, -662.0, -929.0, -960.0, -960.0, -960.0, -960.0, -954.0, -948.0]	[-490.0, -490.0, -490.0, -490.0, -490.0, -490.0, -490.0, -490.0, -490.0, -490.0, -490.0, -490.0, -490.0, -490.0, -490.0, -490.0, -490.0, -490.0, -490.0, -490.0, -490.0, -490.0, -490.0, -490.0, -490.0, -490.0, -490.0, -490.0, -490.0, -490.0, -490.0, -476.0, -462.0, -396.0, -255.0, -169.0, -85.0, -4.0, 45.0, 87.0, 126.0, 173.0, 184.0, 200.0, 201.0, 203.0, 203.0, 227.0, 251.0, 283.0, 318.0, 345.0, 367.0, 385.0, 394.0, 401.0, 409.0, 411.0, 416.0, 420.0, 422.0, 428.0, 428.0, 428.0, 428.0, 428.0, 428.0, 428.0, 428.0, 428.0, 426.0, 426.0, 426.0, 429.0, 450.0, 461.0, 463.0, 463.0, 464.0, 465.0]	[0.013994557106343564, 0.019274981066701002, 0.025928246999683324, 0.044457858843088616, 0.06085447977966396, 0.07625270122662187, 0.09427372666687006, 0.11127826196025126, 0.12600747041869909, 0.14455278359673684, 0.16100606583495392, 0.17638414863176877, 0.19428604879794875, 0.21126054677006323, 0.22602696054673288, 0.24455520705669187, 0.26088834003166994, 0.276342881450546, 0.2942123549655662, 0.3112383942498127, 0.3259331280569313, 0.34444260125019355, 0.36082522752985824, 0.37620023832278093, 0.3942069277691189, 0.41118006041506305, 0.42601337548694573, 0.44449554202583386, 0.4609310749438009, 0.476158288474835, 0.49432915917714126, 0.5110927132554934, 0.5259434363251785, 0.5444232135268976, 0.5637494969632826, 0.5764006691533723, 0.5961867283549509, 0.6110773874024744, 0.6286990530425101, 0.6444007196696475, 0.6657678340634448, 0.6760969167735311, 0.698677470551047, 0.710960002928914, 0.726331600388221, 0.7441887859167764, 0.760776212089695, 0.7763123321346939, 0.7940869150334038, 0.8109235144147533, 0.8259319333956228, 0.8441406920683221, 0.8625163626638823, 0.8761386276892154, 0.8948938607500168, 0.9109498311954667, 0.9269081803577137, 0.9442158195015509, 0.9610769948631059, 0.975936592592916, 0.9944378737855004, 1.0109143666850287, 1.0262467108332203, 1.0442933362573967, 1.0611190129784518, 1.0759984080286813, 1.0943392626359127, 1.1109331741390633, 1.1263996622219565, 1.144036005192902, 1.1610893511242466, 1.1759458768574405, 1.1945393179994426, 1.2109427656032494, 1.2264918563087122, 1.2443725938210264, 1.261134099906485, 1.276119649563043, 1.2943625415573479, 1.3107014771958347]
17	太阳	False	animate	inanimate	right	0.831	[0.0, 0.0, 0.0, 0.0, 0.0, 0.0, 0.0, 0.0, 0.0, 0.0, 0.0, 0.0, 0.0, 0.0, 0.0, 0.0, 0.0, 0.0, 0.0, 0.0, 0.0, 0.0, 0.0, 0.0, 0.0, 0.0, 0.0, 0.0, -3.0, -21.0, -53.0, -88.0, -91.0, -91.0, -73.0, -9.0, 74.0, 172.0, 329.0, 383.0, 553.0, 655.0, 702.0, 787.0, 803.0, 809.0, 809.0, 811.0, 812.0, 812.0, 812.0]	[-490.0, -490.0, -490.0, -490.0, -490.0, -490.0, -490.0, -490.0, -490.0, -490.0, -490.0, -490.0, -490.0, -490.0, -490.0, -490.0, -490.0, -490.0, -490.0, -490.0, -490.0, -490.0, -490.0, -490.0, -490.0, -490.0, -490.0, -490.0, -490.0, -494.0, -502.0, -511.0, -512.0, -512.0, -487.0, -412.0, -310.0, -177.0, 45.0, 103.0, 269.0, 326.0, 349.0, 395.0, 412.0, 425.0, 437.0, 450.0, 450.0, 450.0, 450.0]	[0.014474505653197411, 0.020121521432884037, 0.028785580994735938, 0.04577066029742127, 0.06358347251079977, 0.07752147071005311, 0.09678392484784126, 0.11246784214745276, 0.12777834097505547, 0.1455672598676756, 0.16356234398699598, 0.17737336624850286, 0.19666346837766469, 0.21244842029409483, 0.22863375600718427, 0.24581510187272215, 0.26273635187681066, 0.2776922055563773, 0.2960627561478759, 0.312474054415361, 0.32787637186265783, 0.3457670080315438, 0.3625343167805113, 0.37739015983970603, 0.3960259263039916, 0.4124727232119767, 0.4278316913478193, 0.4458376981274341, 0.4626906815028633, 0.4775134152441751, 0.4958238912076922, 0.5123570454088622, 0.52775697351899, 0.5457308949844446, 0.5624848917432246, 0.577328105471679, 0.5957887680197018, 0.6121543276458397, 0.6276334450521972, 0.645550022542011, 0.6624036885841633, 0.6773455475995434, 0.6957823168268078, 0.7121823510969989, 0.7278570524067618, 0.7458732991799479, 0.762422496038198, 0.7773592350567924, 0.7958284309352166, 0.8146232586441329, 0.8278256838893867]
18	核桃	False	animate	inanimate	left	1.205	[0.0, 0.0, 0.0, 0.0, 0.0, 0.0, 0.0, 0.0, 0.0, 0.0, 0.0, 0.0, 0.0, 0.0, 0.0, 0.0, 0.0, 0.0, 0.0, 0.0, 0.0, 0.0, 0.0, 0.0, 0.0, -1.0, -14.0, -30.0, -50.0, -85.0, -99.0, -124.0, -138.0, -140.0, -139.0, -118.0, -83.0, -48.0, -32.0, -28.0, -45.0, -98.0, -196.0, -398.0, -544.0, -602.0, -746.0, -800.0, -827.0, -835.0, -836.0, -836.0, -836.0, -836.0, -836.0, -838.0, -838.0, -838.0, -832.0, -824.0, -819.0, -813.0, -807.0, -802.0, -798.0, -793.0, -789.0, -784.0, -781.0, -777.0, -777.0, -775.0, -775.0]	[-490.0, -490.0, -490.0, -490.0, -490.0, -490.0, -490.0, -490.0, -490.0, -490.0, -490.0, -490.0, -490.0, -490.0, -490.0, -490.0, -490.0, -490.0, -490.0, -490.0, -490.0, -490.0, -490.0, -490.0, -490.0, -487.0, -483.0, -477.0, -468.0, -443.0, -431.0, -394.0, -361.0, -333.0, -301.0, -253.0, -191.0, -137.0, -107.0, -89.0, -70.0, -40.0, -11.0, 46.0, 87.0, 114.0, 177.0, 211.0, 231.0, 243.0, 248.0, 255.0, 258.0, 264.0, 265.0, 277.0, 284.0, 289.0, 297.0, 308.0, 315.0, 327.0, 340.0, 349.0, 359.0, 367.0, 379.0, 391.0, 398.0, 405.0, 406.0, 407.0, 407.0]	[0.01662456321355421, 0.022328240294882562, 0.0313640116728493, 0.0498045355634531, 0.07386340324592311, 0.08134269541187678, 0.09979277663660469, 0.11668910931621213, 0.13171220562799135, 0.14990526298061013, 0.16632475323422113, 0.1818584839493269, 0.1996525228387327, 0.21634132496546954, 0.231434394569078, 0.24981416115770116, 0.2662589100727928, 0.2817271048188559, 0.29961705832829466, 0.31663490561186336, 0.331340903416276, 0.35002923518186435, 0.3663906988003873, 0.38175034960295307, 0.40189173662656685, 0.416490897150652, 0.4342275920716929, 0.449952128023142, 0.46790556949417805, 0.481683482437802, 0.5012606457530637, 0.516475571290357, 0.5338985810376471, 0.5497931009012973, 0.567209966648079, 0.5816954632318811, 0.5995768834109185, 0.6162465708766831, 0.6316932616318809, 0.6496487511103624, 0.6663324332330376, 0.681775369324896, 0.6996649814973352, 0.7164210262562847, 0.7313318239539512, 0.7494890413217945, 0.7665765205747448, 0.7816852915057098, 0.799898146178748, 0.8169071188021917, 0.8318776498053921, 0.8496972886860021, 0.8665325227339054, 0.8814006537868408, 0.8999599616145133, 0.9161691906483611, 0.9317766493259114, 0.9496358828473603, 0.9664342529140413, 0.9813515359419398, 0.9997992278294987, 1.016088670156023, 1.0316933981666807, 1.0495888130026287, 1.066455449705245, 1.0813317727515823, 1.0998446592784603, 1.1161300056046457, 1.1316647603161982, 1.149802180363622, 1.1666268330809544, 1.1814953054708894, 1.200015018657723]
19	小鸟	True	inanimate	animate	right	0.79	[0.0, 0.0, 0.0, 0.0, 0.0, 0.0, 0.0, 0.0, 0.0, 0.0, 0.0, 0.0, 0.0, 0.0, 0.0, 0.0, 0.0, 0.0, 0.0, 0.0, 0.0, 0.0, 0.0, 0.0, 0.0, 0.0, 0.0, 0.0, -13.0, -24.0, -36.0, -51.0, -62.0, -49.0, 56.0, 165.0, 294.0, 435.0, 559.0, 685.0, 814.0, 834.0, 854.0, 860.0, 860.0, 860.0, 860.0, 860.0]	[-490.0, -490.0, -490.0, -490.0, -490.0, -490.0, -490.0, -490.0, -490.0, -490.0, -490.0, -490.0, -490.0, -490.0, -490.0, -490.0, -490.0, -490.0, -490.0, -490.0, -491.0, -491.0, -492.0, -492.0, -492.0, -492.0, -492.0, -492.0, -498.0, -500.0, -492.0, -461.0, -400.0, -302.0, -105.0, 41.0, 179.0, 289.0, 366.0, 419.0, 466.0, 475.0, 485.0, 492.0, 497.0, 497.0, 497.0, 497.0]	[0.0007378940208582208, 0.005059171809989493, 0.016369928685890045, 0.03481147658021655, 0.05128250814595958, 0.06658310830971459, 0.08449524846946588, 0.1013287758541992, 0.1165361920648138, 0.13451864686066983, 0.15123339030105853, 0.16639813987421803, 0.18472977848432492, 0.20152883121772902, 0.21656797018658835, 0.23464224359486252, 0.2512009977872367, 0.26641455799835967, 0.28471445262402995, 0.3014616227155784, 0.3165127083484549, 0.3346648057195125, 0.35118806125683477, 0.3663391575028072, 0.38482439603831153, 0.40156200880301185, 0.41681652898842003, 0.4346460665256018, 0.45161134850786766, 0.46657710084400605, 0.4848374008288374, 0.5012289017686271, 0.5166660352042527, 0.5344488100963645, 0.5514055587482289, 0.5662644738040399, 0.584653115060064, 0.6010538319969783, 0.616515882742533, 0.6343457616167143, 0.6513697529007914, 0.6662665559415473, 0.684753842477221, 0.7011340794197167, 0.7165800875154673, 0.7345239716596552, 0.7516619682137389, 0.7663324673703755]
20	戒指	False	inanimate	animate	left	1.381	[0.0, 0.0, 0.0, 0.0, 0.0, 0.0, 0.0, 0.0, 0.0, 0.0, 0.0, 0.0, 0.0, 0.0, 0.0, 2.0, 19.0, 48.0, 56.0, 69.0, 71.0, 74.0, 74.0, 74.0, 74.0, 74.0, 74.0, 74.0, 68.0, -7.0, -41.0, -135.0, -164.0, -209.0, -209.0, -171.0, -136.0, -14.0, 91.0, 217.0, 340.0, 459.0, 540.0, 576.0, 581.0, 578.0, 486.0, 362.0, 197.0, 19.0, -178.0, -356.0, -496.0, -589.0, -635.0, -654.0, -656.0, -656.0, -657.0, -657.0, -658.0, -660.0, -660.0, -660.0, -660.0, -660.0, -660.0, -660.0, -660.0, -660.0, -660.0, -660.0, -662.0, -665.0, -668.0, -672.0, -673.0, -674.0, -674.0, -675.0, -678.0, -679.0, -679.0, -679.0]	[-490.0, -490.0, -490.0, -490.0, -490.0, -490.0, -490.0, -490.0, -490.0, -490.0, -490.0, -490.0, -490.0, -490.0, -490.0, -490.0, -482.0, -472.0, -470.0, -467.0, -466.0, -464.0, -464.0, -464.0, -464.0, -464.0, -464.0, -464.0, -462.0, -439.0, -423.0, -363.0, -338.0, -239.0, -149.0, -55.0, -6.0, 109.0, 182.0, 250.0, 304.0, 356.0, 390.0, 410.0, 414.0, 416.0, 416.0, 416.0, 416.0, 416.0, 416.0, 416.0, 416.0, 420.0, 424.0, 428.0, 428.0, 428.0, 428.0, 428.0, 429.0, 430.0, 430.0, 430.0, 430.0, 430.0, 430.0, 430.0, 430.0, 430.0, 430.0, 430.0, 430.0, 430.0, 430.0, 427.0, 426.0, 424.0, 423.0, 422.0, 420.0, 418.0, 418.0, 418.0]	[0.015007668051111978, 0.020202076055284124, 0.02822989060950931, 0.04651544924854534, 0.06330904064816423, 0.07810378507565474, 0.09657946628431091, 0.11311432714865077, 0.12843540730682435, 0.14631341415224597, 0.1635125093453098, 0.17845709902758244, 0.19676211365731433, 0.21316180659050588, 0.22859211335889995, 0.24658241881843423, 0.263593780771771, 0.2781130693401792, 0.296912334379158, 0.31311337141960394, 0.32855221151112346, 0.3465537809606758, 0.3660992002915009, 0.3780950128129916, 0.39900508210848784, 0.41318235485232435, 0.4316969480350963, 0.44636164452822413, 0.46574561326997355, 0.4780469189718133, 0.4990535855467897, 0.5130250343936495, 0.5309661878782208, 0.546307748023537, 0.5647769439019612, 0.5784241262444993, 0.5986880518685211, 0.6130882151628612, 0.6300388198214932, 0.6464002834400162, 0.6638748344921623, 0.6782063898208435, 0.6972445880746818, 0.7128971027268562, 0.7285892120271455, 0.7461740136932349, 0.7631406610016711, 0.778081837350328, 0.796668110502651, 0.8130780434366898, 0.8283428036229452, 0.8465355196385644, 0.8631755111200619, 0.8780685594974784, 0.8965855420101434, 0.9130715922365198, 0.9284503577000578, 0.9464307644957444, 0.9632380092225503, 0.9780552816373529, 0.9966886587571935, 1.0130538770463318, 1.0283258052295423, 1.0464546919465647, 1.0631800167175243, 1.0784362435733783, 1.096577759613865, 1.1130289938591886, 1.1284552046272438, 1.1462570941803278, 1.1633343334397068, 1.178069003224664, 1.1964412604866084, 1.2128378814231837, 1.2297816594145843, 1.2461356137137045, 1.2632459622836905, 1.2780731333550648, 1.2964774759384454, 1.3127686249281396, 1.3283521902849316, 1.3461656851650332, 1.3632279057565029, 1.3780421061746893]
21	衬衫	False	animate	inanimate	right	0.881	[0.0, 0.0, 0.0, 0.0, 0.0, 0.0, 0.0, 0.0, 0.0, 0.0, 0.0, 0.0, 0.0, 0.0, -1.0, 5.0, 21.0, 37.0, 40.0, 40.0, 40.0, 40.0, 40.0, 40.0, 40.0, 40.0, 40.0, 34.0, -6.0, -44.0, -46.0, -34.0, 5.0, 78.0, 160.0, 246.0, 305.0, 347.0, 352.0, 361.0, 368.0, 377.0, 393.0, 420.0, 478.0, 514.0, 645.0, 721.0, 775.0, 798.0, 810.0, 811.0, 812.0]	[-490.0, -490.0, -490.0, -490.0, -490.0, -490.0, -490.0, -490.0, -490.0, -490.0, -490.0, -490.0, -490.0, -490.0, -489.0, -480.0, -470.0, -459.0, -457.0, -457.0, -457.0, -457.0, -457.0, -457.0, -457.0, -457.0, -457.0, -443.0, -385.0, -252.0, -185.0, 63.0, 218.0, 344.0, 441.0, 517.0, 540.0, 540.0, 540.0, 540.0, 540.0, 540.0, 540.0, 540.0, 540.0, 540.0, 540.0, 540.0, 530.0, 523.0, 518.0, 515.0, 509.0]	[0.008649996634630952, 0.013215668965131044, 0.01787862124183448, 0.03425988218805287, 0.05089543633948779, 0.06596631928550778, 0.08386514745507156, 0.10092361339047784, 0.11554393656842876, 0.13399913778994232, 0.15045685736549785, 0.16581889749795664, 0.1837491283149575, 0.20071509296394652, 0.21558288268715842, 0.23396196660905844, 0.25035790487891063, 0.26576295299310004, 0.2837259517982602, 0.3008083110471489, 0.3155071408546064, 0.3339722407399677, 0.3507190694945166, 0.36579302444442874, 0.38383691920898855, 0.4009370277854032, 0.4157208495453233, 0.4339988988576806, 0.4529043185102637, 0.46575005060003605, 0.48579996033367934, 0.5006906193739269, 0.5181641464296263, 0.5339398823562078, 0.5515932919806801, 0.5658514606839162, 0.5885723023820901, 0.6006452561996412, 0.6167469652864384, 0.6338566311969771, 0.6508454651630018, 0.665839548157237, 0.6838240509459865, 0.7006183250123286, 0.7155827120150207, 0.7335641428144299, 0.7522681759000989, 0.7657440090042655, 0.7860000839646091, 0.8003097939727013, 0.8184608673473122, 0.833589094268973, 0.8519128822154016]
22	蚊子	True	animate	inanimate	left	0.962	[0.0, 0.0, 0.0, 0.0, 0.0, 0.0, 0.0, 0.0, 0.0, 0.0, 0.0, 0.0, 0.0, 0.0, 0.0, 0.0, 0.0, 0.0, 0.0, 0.0, 5.0, 10.0, 11.0, 11.0, 11.0, 11.0, 11.0, -15.0, -121.0, -179.0, -204.0, -210.0, -186.0, -114.0, -2.0, 158.0, 331.0, 503.0, 630.0, 726.0, 820.0, 861.0, 882.0, 888.0, 888.0, 881.0, 791.0, 621.0, 384.0, 109.0, -163.0, -440.0, -672.0, -884.0, -907.0, -918.0, -911.0, -901.0, -895.0]	[-490.0, -490.0, -490.0, -490.0, -490.0, -490.0, -490.0, -490.0, -490.0, -490.0, -490.0, -490.0, -490.0, -490.0, -490.0, -490.0, -490.0, -490.0, -490.0, -490.0, -485.0, -482.0, -482.0, -482.0, -482.0, -482.0, -482.0, -472.0, -429.0, -374.0, -285.0, -173.0, -50.0, 68.0, 175.0, 269.0, 343.0, 389.0, 426.0, 448.0, 451.0, 451.0, 451.0, 452.0, 452.0, 453.0, 450.0, 428.0, 398.0, 393.0, 393.0, 421.0, 450.0, 498.0, 507.0, 516.0, 522.0, 524.0, 525.0]	[0.013837919315847103, 0.02167390463728225, 0.025934083787433337, 0.04405955717083998, 0.060891719222126994, 0.07593461285432568, 0.09414849153108662, 0.11059597110579489, 0.1260211578774033, 0.14407972996559693, 0.16097060131141916, 0.1756455377981183, 0.1942331762838876, 0.21049735995620722, 0.2259293733877712, 0.24384356154769193, 0.2607815368755837, 0.2756008572905557, 0.29408882649295265, 0.3105817033792846, 0.3257188049610704, 0.34389206499326974, 0.3608808989592944, 0.37562580874509877, 0.3941373299312545, 0.4107483080952079, 0.4259420709859114, 0.44664085505064577, 0.46077375447930535, 0.47587023741652956, 0.4940742174294428, 0.5126389865909005, 0.526023001075373, 0.545812814940291, 0.5608714098998462, 0.5785480301856296, 0.5940483102458529, 0.6118563437921694, 0.6259356539230794, 0.6494931031920714, 0.6607751880801516, 0.6786641175858676, 0.6940722376966733, 0.71163655937562, 0.7259353467161418, 0.743911998848489, 0.7609738781102351, 0.7759713744380861, 0.7937930613115896, 0.8103610314938123, 0.8256459303374868, 0.8438420596867218, 0.8608155336623895, 0.8758198566429201, 0.8937497461301973, 0.910357310960535, 0.9258842150156852, 0.9440165150590474, 0.9607763144813362]
23	足球	False	animate	inanimate	right	0.718	[0.0, 0.0, 0.0, 0.0, 0.0, 0.0, 0.0, 0.0, 0.0, 1.0, -8.0, -11.0, -11.0, -11.0, -11.0, -11.0, -11.0, -11.0, -11.0, -11.0, -11.0, -11.0, -11.0, -11.0, -11.0, -11.0, -14.0, -43.0, -116.0, -152.0, -158.0, -158.0, -134.0, -66.0, 48.0, 192.0, 358.0, 584.0, 642.0, 736.0, 789.0, 791.0, 791.0, 791.0]	[-490.0, -490.0, -490.0, -490.0, -490.0, -490.0, -490.0, -490.0, -490.0, -493.0, -495.0, -495.0, -495.0, -495.0, -495.0, -495.0, -495.0, -495.0, -495.0, -495.0, -495.0, -495.0, -495.0, -495.0, -495.0, -495.0, -495.0, -489.0, -448.0, -401.0, -308.0, -175.0, -37.0, 109.0, 219.0, 295.0, 355.0, 440.0, 467.0, 506.0, 524.0, 526.0, 526.0, 526.0]	[0.015627870387106668, 0.02094174500234658, 0.029478487296728417, 0.04763706999801798, 0.06455900266882963, 0.07968210959370481, 0.09793626557802781, 0.11441992647451116, 0.12971062797441846, 0.14760228814702714, 0.16456108479906106, 0.17947256516345078, 0.19782161177136004, 0.21432233932137024, 0.22977858741069213, 0.2477405622121296, 0.26455872959923, 0.2795620285833138, 0.29785338988585863, 0.3143933707542601, 0.32970318691513967, 0.3477549323361018, 0.36458675305038923, 0.37959517203853466, 0.3979636746298638, 0.41424048763292376, 0.42970868237898685, 0.44775155313982395, 0.4645239818855771, 0.47959657150204293, 0.49787325548095396, 0.514335412379296, 0.529740801830485, 0.5475007073982852, 0.5645185546891298, 0.5793132991166203, 0.5978128736387589, 0.6141047053024522, 0.6297015826494317, 0.6476355681297719, 0.6645414581435034, 0.6796621757384855, 0.6978931210687733, 0.7140832354416489]
24	礼物	False	inanimate	animate	left	0.968	[0.0, 0.0, 0.0, 0.0, 0.0, 0.0, 0.0, 0.0, 0.0, 0.0, 0.0, 2.0, 12.0, 26.0, 43.0, 46.0, 47.0, 47.0, 47.0, 47.0, 48.0, 21.0, -37.0, -88.0, -124.0, -150.0, -159.0, -144.0, -20.0, 111.0, 186.0, 405.0, 547.0, 660.0, 758.0, 815.0, 836.0, 847.0, 850.0, 853.0, 862.0, 873.0, 874.0, 875.0, 871.0, 796.0, 631.0, 409.0, 148.0, -124.0, -388.0, -606.0, -819.0, -854.0, -871.0, -870.0, -859.0, -852.0, -850.0]	[-490.0, -490.0, -490.0, -490.0, -490.0, -490.0, -490.0, -490.0, -490.0, -490.0, -490.0, -488.0, -480.0, -470.0, -460.0, -458.0, -457.0, -457.0, -457.0, -457.0, -456.0, -445.0, -414.0, -381.0, -348.0, -301.0, -209.0, -101.0, 43.0, 119.0, 153.0, 244.0, 305.0, 354.0, 384.0, 400.0, 403.0, 409.0, 413.0, 421.0, 440.0, 465.0, 467.0, 469.0, 471.0, 471.0, 471.0, 456.0, 426.0, 402.0, 402.0, 406.0, 439.0, 448.0, 455.0, 460.0, 463.0, 465.0, 465.0]	[0.008804279219475575, 0.013339572898985352, 0.018349660997046158, 0.03475515660102246, 0.05098998561879853, 0.06644657504511997, 0.08450890179665294, 0.10130795452278107, 0.11627746152953478, 0.1345486841746606, 0.15098899575241376, 0.1664240811878699, 0.18430857336352346, 0.20125371668837033, 0.21633722896513063, 0.23469173689954914, 0.2510293072045897, 0.2664497153091361, 0.28452364738768665, 0.30136946275888477, 0.3163498924259329, 0.3345941497464082, 0.35120478658063803, 0.3665033387442236, 0.38429157497012056, 0.40122340630477993, 0.41627892926044296, 0.43447608261340065, 0.45110481009760406, 0.4664019969277433, 0.4843752357264748, 0.5012831737403758, 0.5163571286902879, 0.5344737274135696, 0.5509730896301335, 0.5665228630023194, 0.5842240592755843, 0.6012985678607947, 0.6162271148859872, 0.6345416868425673, 0.6510861050410313, 0.6663798785448307, 0.6844179706386058, 0.7012504740196164, 0.716449015570106, 0.7345703929604497, 0.7509615525705158, 0.7665669632478966, 0.7842084262156277, 0.8011607375374297, 0.8161360472004162, 0.8344390138299786, 0.8510595493207802, 0.8664099841262214, 0.884383905591676, 0.9012990115952562, 0.916356241221365, 0.9345936718818848, 0.9510961061023409]
25	飞机	False	inanimate	animate	left	1.25	[0.0, 0.0, 0.0, 0.0, 0.0, 0.0, 0.0, 0.0, 0.0, 0.0, 0.0, 0.0, 0.0, 0.0, 0.0, 0.0, 0.0, 0.0, 0.0, 0.0, 0.0, 0.0, 0.0, 0.0, 0.0, -17.0, -70.0, -118.0, -157.0, -181.0, -193.0, -194.0, -188.0, -162.0, -129.0, -105.0, -73.0, -38.0, -26.0, -18.0, -13.0, -13.0, -21.0, -44.0, -115.0, -217.0, -327.0, -444.0, -555.0, -698.0, -762.0, -799.0, -813.0, -817.0, -819.0, -820.0, -821.0, -825.0, -829.0, -838.0, -840.0, -844.0, -844.0, -844.0, -844.0, -841.0, -839.0, -839.0, -839.0, -839.0, -839.0, -839.0, -839.0, -839.0, -839.0, -839.0]	[-490.0, -490.0, -490.0, -490.0, -490.0, -490.0, -490.0, -490.0, -490.0, -490.0, -490.0, -490.0, -490.0, -490.0, -490.0, -490.0, -490.0, -490.0, -490.0, -490.0, -490.0, -490.0, -490.0, -490.0, -490.0, -478.0, -449.0, -418.0, -389.0, -366.0, -348.0, -314.0, -291.0, -229.0, -180.0, -151.0, -109.0, -56.0, -27.0, -6.0, 8.0, 16.0, 26.0, 42.0, 81.0, 123.0, 167.0, 206.0, 239.0, 277.0, 300.0, 315.0, 324.0, 332.0, 337.0, 341.0, 344.0, 349.0, 353.0, 360.0, 362.0, 368.0, 372.0, 377.0, 380.0, 382.0, 383.0, 383.0, 383.0, 383.0, 383.0, 383.0, 383.0, 383.0, 383.0, 383.0]	[0.01382324198493734, 0.018452402284310665, 0.02571358256682288, 0.043841786617122125, 0.06089376722229645, 0.07565642632835079, 0.09397953161533223, 0.11070451504929224, 0.12607440584542928, 0.14403296732052695, 0.16091257467633113, 0.17585614036215702, 0.19418300031247782, 0.21070830384996952, 0.22609014130284777, 0.24404870277794544, 0.26084502484445693, 0.2757029159038211, 0.29417620778258424, 0.31072506330383476, 0.32602259147097357, 0.34402347825380275, 0.3608768029589555, 0.3757599526725244, 0.3940830579595058, 0.4107916574066621, 0.42605266292230226, 0.44407368836255046, 0.4609048264173907, 0.4756869415141409, 0.49422167335433187, 0.5105315956752747, 0.5260424570660689, 0.5440078452011221, 0.5607652552862419, 0.5757067729718983, 0.5940667422328261, 0.6106982003839221, 0.6260554618565948, 0.6440044659975683, 0.6607990814009099, 0.6756228391459445, 0.6940486857129144, 0.7105671625904506, 0.7260466213265317, 0.7439580788268358, 0.760846560842765, 0.7756279932727921, 0.7941477064596256, 0.8106593566699303, 0.8260545061275479, 0.8439721076138085, 0.8607865203448455, 0.875797328655608, 0.8941200926055899, 0.9104791669014958, 0.9260159696132177, 0.9437270645430544, 0.9607722184809973, 0.9756413735376555, 0.9939883721453953, 1.0104696437047096, 1.0260282917370205, 1.0439373599001556, 1.0608657779011992, 1.075702164969698, 1.0941160648799269, 1.1105778804485453, 1.126017403206788, 1.1440053193364292, 1.160796521406155, 1.1756451964683947, 1.1940519283743924, 1.210391888009326, 1.226142365281703, 1.2437985055730678]
26	记者	True	inanimate	animate	right	0.666	[0.0, 0.0, 0.0, 0.0, 0.0, 0.0, 0.0, 0.0, 0.0, 0.0, 0.0, 0.0, 0.0, 0.0, 0.0, 0.0, 0.0, 0.0, -1.0, 6.0, 43.0, 113.0, 194.0, 291.0, 380.0, 518.0, 601.0, 636.0, 714.0, 739.0, 752.0, 760.0, 767.0, 776.0, 789.0, 792.0, 795.0, 797.0, 799.0, 800.0, 803.0]	[-490.0, -490.0, -490.0, -490.0, -490.0, -490.0, -490.0, -490.0, -490.0, -490.0, -490.0, -490.0, -490.0, -490.0, -490.0, -490.0, -490.0, -490.0, -485.0, -464.0, -413.0, -312.0, -203.0, -85.0, 14.0, 126.0, 178.0, 202.0, 260.0, 277.0, 287.0, 294.0, 305.0, 313.0, 328.0, 333.0, 340.0, 346.0, 352.0, 356.0, 369.0]	[0.01431578573101433, 0.02035157998034265, 0.02725333644048078, 0.04561808437574655, 0.061972721334313974, 0.07738664410862839, 0.0954380481998669, 0.11225075426045805, 0.12726770657172892, 0.14553415054979268, 0.16213454738317523, 0.17744470488105435, 0.19548040764493635, 0.21225386038713623, 0.22714178876776714, 0.24557036600162974, 0.26189086963859154, 0.2773952457064297, 0.29530055920622544, 0.31229929183609784, 0.32715411089156987, 0.3455038401662023, 0.36201105304644443, 0.37735363718820736, 0.395423473273695, 0.4121955606897245, 0.4272848756299936, 0.44552845028374577, 0.4620063085167203, 0.47737005531962495, 0.495178430195665, 0.5122160748069291, 0.5271108298475156, 0.5455353110810393, 0.561882438712928, 0.5773854494400439, 0.5952160109809483, 0.6121526209753938, 0.6270033440378029, 0.6455138412275119, 0.662027539437986]
27	兔子	True	inanimate	animate	right	1.152	[0.0, 0.0, 0.0, 0.0, 0.0, -8.0, -16.0, -19.0, -19.0, -19.0, -19.0, -22.0, -35.0, -58.0, -94.0, -168.0, -255.0, -322.0, -406.0, -479.0, -529.0, -567.0, -601.0, -619.0, -627.0, -630.0, -630.0, -620.0, -588.0, -521.0, -489.0, -406.0, -359.0, -336.0, -281.0, -252.0, -227.0, -207.0, -191.0, -186.0, -186.0, -203.0, -276.0, -451.0, -520.0, -658.0, -867.0, -960.0, -960.0, -960.0, -960.0, -960.0, -952.0, -945.0, -943.0, -941.0, -937.0, -933.0, -887.0, -776.0, -593.0, -377.0, -132.0, 129.0, 380.0, 693.0, 763.0, 859.0, 892.0, 895.0]	[-490.0, -490.0, -490.0, -490.0, -490.0, -490.0, -492.0, -493.0, -493.0, -493.0, -493.0, -494.0, -497.0, -498.0, -498.0, -498.0, -470.0, -454.0, -428.0, -407.0, -389.0, -374.0, -353.0, -338.0, -322.0, -294.0, -218.0, -145.0, -105.0, -63.0, -43.0, 6.0, 42.0, 60.0, 99.0, 109.0, 116.0, 123.0, 128.0, 132.0, 133.0, 140.0, 168.0, 217.0, 228.0, 249.0, 297.0, 329.0, 358.0, 380.0, 388.0, 395.0, 400.0, 405.0, 405.0, 405.0, 405.0, 405.0, 405.0, 405.0, 405.0, 405.0, 405.0, 405.0, 405.0, 405.0, 405.0, 411.0, 417.0, 417.0]	[0.01656824324891204, 0.02202479512197897, 0.03120358508749632, 0.04955058369523613, 0.06637114041222958, 0.08141027938108891, 0.09965829137217952, 0.11621192556049209, 0.13154256304551382, 0.14957758314267267, 0.1664315905145486, 0.18116523630305892, 0.19960132286360022, 0.21631879697088152, 0.2315361118526198, 0.249365308052802, 0.2663520940259332, 0.28137962766049895, 0.29964026898232987, 0.316107204547734, 0.33151430066209286, 0.3495278167683864, 0.3663968428008957, 0.3813445044797845, 0.39957271915045567, 0.4160553560432163, 0.4315378867831896, 0.4494585602733423, 0.4663309996321914, 0.48115851204056526, 0.49955261462309863, 0.5161001048181788, 0.5315089075957076, 0.5494377730865381, 0.5663255724357441, 0.5811455755174393, 0.5994874541283934, 0.6159195737127448, 0.631533517720527, 0.6492930819586036, 0.6663778305446613, 0.6812063669494819, 0.6995622402173467, 0.7159479385009035, 0.731506927862938, 0.7494607106709736, 0.7663662593477056, 0.7814535262950812, 0.7996233729863889, 0.8162609751379932, 0.831567377965257, 0.8492979288857896, 0.8663642454848741, 0.8814378590977867, 0.8995868844722281, 0.9161217453438439, 0.9315076787970611, 0.9495324589006486, 0.9663874902689713, 0.9814088799175806, 0.9996101292636013, 1.0162122327601537, 1.0315701768995496, 1.0492826371628325, 1.066292633789999, 1.08140447671758, 1.099555550092191, 1.1160583256423706, 1.1315285683886032, 1.1495502764955745]
28	观众	True	animate	inanimate	left	0.899	[0.0, 0.0, 0.0, 0.0, -1.0, -1.0, -2.0, -2.0, -2.0, -2.0, -2.0, -2.0, -2.0, -2.0, -2.0, -2.0, -2.0, -2.0, -4.0, -8.0, -11.0, -12.0, -12.0, 4.0, 52.0, 131.0, 308.0, 370.0, 567.0, 691.0, 794.0, 872.0, 911.0, 926.0, 933.0, 933.0, 933.0, 933.0, 933.0, 933.0, 933.0, 933.0, 907.0, 810.0, 626.0, 381.0, 90.0, -221.0, -502.0, -868.0, -960.0, -960.0, -960.0, -959.0]	[-490.0, -490.0, -490.0, -490.0, -490.0, -490.0, -491.0, -491.0, -491.0, -491.0, -491.0, -491.0, -491.0, -491.0, -491.0, -491.0, -491.0, -491.0, -493.0, -495.0, -495.0, -495.0, -492.0, -471.0, -427.0, -373.0, -206.0, -140.0, 59.0, 173.0, 269.0, 338.0, 375.0, 391.0, 399.0, 402.0, 403.0, 404.0, 404.0, 404.0, 404.0, 405.0, 405.0, 394.0, 363.0, 328.0, 321.0, 330.0, 381.0, 484.0, 524.0, 529.0, 529.0, 530.0]	[0.0028910235851071775, 0.009412876243004575, 0.020679601140727755, 0.03916893567657098, 0.05541844201798085, 0.07082895146595547, 0.08869091565429699, 0.10567121628992027, 0.12075882456701947, 0.13905667119979626, 0.15558811873052036, 0.1708467349235434, 0.1886697871304932, 0.2054848825209774, 0.22070731739222538, 0.238995606698154, 0.2555618702172069, 0.27077543042832986, 0.28888588515110314, 0.30564841523300856, 0.32071417818951886, 0.3390420621362864, 0.35553596302634105, 0.37079696854925714, 0.38896237791050225, 0.4056716600243817, 0.42068178567569703, 0.43895334965054644, 0.4554533945338335, 0.4707666240283288, 0.48882587878324557, 0.5056583821642562, 0.5205248065540218, 0.539007655759633, 0.555540809960803, 0.5708294634605409, 0.5889689315081341, 0.6057621815780294, 0.6206627392821247, 0.639136713820335, 0.655558593418391, 0.6708069696105667, 0.6888897763492423, 0.705682685082138, 0.720561738802644, 0.7389121507367236, 0.7554166329573491, 0.7708312383983866, 0.7887993571930565, 0.8055663246123004, 0.8207385835121386, 0.8389975181635236, 0.8552221071877284, 0.8708363925252343]
29	母鸡	True	inanimate	animate	right	0.81	[0.0, 0.0, 0.0, 0.0, 0.0, 0.0, 0.0, 0.0, 0.0, 0.0, 0.0, 0.0, 0.0, 0.0, 0.0, 0.0, 0.0, 0.0, 0.0, 0.0, 0.0, 0.0, 0.0, 0.0, 0.0, 0.0, 0.0, 0.0, -1.0, -23.0, -51.0, -70.0, -67.0, -40.0, 4.0, 69.0, 134.0, 189.0, 237.0, 248.0, 288.0, 344.0, 411.0, 521.0, 593.0, 655.0, 702.0, 722.0, 728.0]	[-490.0, -490.0, -490.0, -490.0, -490.0, -490.0, -490.0, -490.0, -490.0, -490.0, -490.0, -490.0, -490.0, -490.0, -490.0, -490.0, -490.0, -490.0, -490.0, -490.0, -490.0, -490.0, -490.0, -490.0, -490.0, -490.0, -490.0, -490.0, -490.0, -468.0, -436.0, -379.0, -273.0, -153.0, -50.0, 32.0, 105.0, 177.0, 222.0, 226.0, 243.0, 264.0, 292.0, 342.0, 385.0, 423.0, 441.0, 447.0, 449.0]	[0.0011560271377675235, 0.005862670062924735, 0.016995933699945454, 0.03552281487645814, 0.05203617175720865, 0.06737261190573918, 0.08537520535173826, 0.1021578740910627, 0.11723729037476005, 0.13546925970877055, 0.15190308595629176, 0.16733578205457889, 0.1853844554789248, 0.20218077754543629, 0.21719875386042986, 0.23546656317193992, 0.2519737760521821, 0.2673044135372038, 0.2852291830276954, 0.3022159690008266, 0.31721892664791085, 0.3355334986044909, 0.35210556478705257, 0.36732049033162184, 0.38535209709516494, 0.4022033738074242, 0.41715137681603665, 0.4354099701376981, 0.45202470296499087, 0.4673130151350051, 0.4853517898955033, 0.5021249013079796, 0.5171903229274903, 0.5353782602833235, 0.5519001504944754, 0.5674536785300006, 0.5851654561265605, 0.6020925087941578, 0.6171545170800528, 0.6353465504362248, 0.6519148619481712, 0.6673031847385573, 0.6850702583105885, 0.7021826548807439, 0.717213943185925, 0.7354220191991772, 0.7517029281953, 0.7673407655238407, 0.785115007085551]
30	猴子	True	inanimate	animate	right	0.699	[0.0, 0.0, 0.0, 0.0, 0.0, 0.0, 0.0, 0.0, 0.0, 0.0, 0.0, 0.0, 0.0, 0.0, 0.0, 0.0, 0.0, 0.0, 0.0, 0.0, 0.0, 0.0, 0.0, 0.0, -3.0, -56.0, -94.0, -114.0, -130.0, -130.0, -93.0, 47.0, 119.0, 285.0, 485.0, 727.0, 799.0, 945.0, 959.0, 959.0, 959.0, 958.0, 957.0]	[-490.0, -490.0, -490.0, -490.0, -490.0, -490.0, -490.0, -490.0, -490.0, -490.0, -490.0, -490.0, -490.0, -490.0, -490.0, -490.0, -490.0, -490.0, -490.0, -490.0, -490.0, -490.0, -490.0, -490.0, -486.0, -445.0, -411.0, -383.0, -328.0, -217.0, -51.0, 192.0, 255.0, 328.0, 360.0, 394.0, 405.0, 430.0, 442.0, 457.0, 472.0, 485.0, 488.0]	[0.013035786381806247, 0.01739904814894544, 0.02402125275693834, 0.042567589931422845, 0.059435250630485825, 0.07408834178932011, 0.09252135635324521, 0.10921527846949175, 0.1245974572666455, 0.1425167654233519, 0.15946088474447606, 0.17413650389789836, 0.19251900115341414, 0.2092532005844987, 0.22460192872676998, 0.24262636750063393, 0.25945136155496584, 0.27425941797264386, 0.2925944699163665, 0.30917711742949905, 0.32454052289540414, 0.342470753712405, 0.35939985438017175, 0.37410448685113806, 0.392574706726009, 0.4091583782355883, 0.4245187117048772, 0.4425864997901954, 0.4593084112275392, 0.47415503828960937, 0.4926662181460415, 0.5090082257811446, 0.524453551202896, 0.5421533821427147, 0.5592872827037354, 0.5743905923009152, 0.5925751163231325, 0.6090229372348404, 0.6244706519937608, 0.6425391227458022, 0.6593388581459294, 0.6741411119000986, 0.6925823184574256]
31	骑兵	True	inanimate	animate	right	0.75	[0.0, 0.0, 0.0, 0.0, 0.0, 0.0, 0.0, 0.0, 0.0, 0.0, 0.0, 0.0, 0.0, 16.0, 39.0, 42.0, 43.0, 43.0, 43.0, 43.0, 43.0, 43.0, 41.0, -14.0, -106.0, -195.0, -300.0, -400.0, -483.0, -482.0, -467.0, -345.0, -220.0, -52.0, 210.0, 295.0, 446.0, 571.0, 661.0, 710.0, 734.0, 735.0, 735.0, 735.0, 735.0, 735.0]	[-490.0, -490.0, -490.0, -490.0, -490.0, -490.0, -490.0, -490.0, -490.0, -490.0, -490.0, -490.0, -491.0, -488.0, -479.0, -477.0, -476.0, -476.0, -476.0, -476.0, -476.0, -476.0, -476.0, -460.0, -443.0, -423.0, -393.0, -349.0, -265.0, -182.0, -141.0, 8.0, 107.0, 188.0, 263.0, 283.0, 319.0, 363.0, 408.0, 438.0, 461.0, 468.0, 469.0, 469.0, 469.0, 469.0]	[0.013061386380286422, 0.018153394441469572, 0.02410317272733664, 0.042598992586135864, 0.05915228544472484, 0.07448940825997852, 0.09247937238251325, 0.10924360913486453, 0.12430322809086647, 0.14262565071112476, 0.15915334357850952, 0.17443414642184507, 0.19246438785921782, 0.2092306726044626, 0.2243111128846067, 0.242557759542251, 0.2591820496963919, 0.2745495511626359, 0.29226235276291845, 0.30925698939245194, 0.3241981657411088, 0.3426711162828724, 0.35906466522283154, 0.3744526466834941, 0.39230266420781845, 0.40923551953892456, 0.42447058374091284, 0.4426223397749709, 0.45910736600490054, 0.4744287874927977, 0.4923641383065842, 0.5091625083732652, 0.5243484206002904, 0.5426165712488, 0.5588565202633617, 0.5744076589689939, 0.5923573457766906, 0.6091966758249328, 0.6240347695638775, 0.6423517308503506, 0.6590760316175874, 0.6744657197414199, 0.6921914919948904, 0.7093066192319384, 0.7243716995217255, 0.7424934182417928]
32	乞丐	True	animate	inanimate	left	0.899	[0.0, 0.0, 0.0, 0.0, 3.0, 3.0, 3.0, 3.0, 3.0, 3.0, 3.0, 5.0, 10.0, 22.0, 26.0, 26.0, 26.0, 26.0, 26.0, 26.0, 26.0, 26.0, 25.0, -22.0, -117.0, -229.0, -339.0, -434.0, -507.0, -519.0, -518.0, -428.0, -312.0, -168.0, -3.0, 167.0, 335.0, 485.0, 593.0, 668.0, 707.0, 722.0, 724.0, 717.0, 647.0, 519.0, 347.0, 121.0, -127.0, -362.0, -550.0, -677.0, -735.0, -743.0]	[-490.0, -490.0, -490.0, -490.0, -490.0, -490.0, -490.0, -490.0, -490.0, -490.0, -490.0, -490.0, -490.0, -487.0, -486.0, -486.0, -486.0, -486.0, -486.0, -486.0, -486.0, -486.0, -486.0, -486.0, -486.0, -480.0, -467.0, -439.0, -386.0, -365.0, -287.0, -112.0, 12.0, 118.0, 194.0, 252.0, 300.0, 339.0, 369.0, 398.0, 418.0, 430.0, 434.0, 434.0, 434.0, 417.0, 393.0, 372.0, 368.0, 368.0, 389.0, 407.0, 417.0, 418.0]	[0.001029392529744655, 0.005570830209762789, 0.016665523195115384, 0.03576311341748806, 0.051839563850080594, 0.06705722006154247, 0.08513183480681619, 0.10194556486385409, 0.11697412250214256, 0.13518629450845765, 0.1519191286060959, 0.16705861952505074, 0.1849816823450965, 0.20194798833108507, 0.21691135133005446, 0.23519281397602754, 0.25167442686506547, 0.2670825469758711, 0.2850783137619146, 0.30195553178782575, 0.3169144574640086, 0.3351723681189469, 0.3516788983324659, 0.36711569043109193, 0.38507391056919005, 0.4019596619255026, 0.4169677395693725, 0.43521916489407886, 0.4516144204972079, 0.46710446057113586, 0.48505141671193996, 0.5019627680521808, 0.51665374719596, 0.5351051937541342, 0.5517765878830687, 0.5670980093709659, 0.5849463202321203, 0.6019368608685909, 0.6169599571730942, 0.6351185398743837, 0.6514929741606466, 0.6670488915260648, 0.6849968716705916, 0.7020201802879455, 0.7169514579800307, 0.7351977633006754, 0.7517257975050597, 0.7670714536507148, 0.7848306765590678, 0.8018635425032699, 0.8169330601231195, 0.8350496588464011, 0.85184325024602, 0.8670417917965096]
33	螃蟹	True	animate	inanimate	left	0.777	[0.0, 0.0, 0.0, 0.0, 0.0, 0.0, 0.0, 0.0, 0.0, 0.0, 0.0, 0.0, 0.0, 0.0, 0.0, 0.0, 0.0, 0.0, 0.0, 0.0, 0.0, 0.0, 0.0, 0.0, 0.0, 0.0, -20.0, -105.0, -214.0, -309.0, -354.0, -361.0, -354.0, -309.0, -216.0, -178.0, -171.0, -177.0, -210.0, -303.0, -435.0, -594.0, -715.0, -755.0, -764.0, -764.0, -764.0, -764.0]	[-490.0, -490.0, -490.0, -490.0, -490.0, -490.0, -490.0, -490.0, -490.0, -490.0, -490.0, -490.0, -490.0, -490.0, -490.0, -490.0, -490.0, -490.0, -490.0, -490.0, -490.0, -490.0, -490.0, -490.0, -490.0, -490.0, -490.0, -476.0, -456.0, -427.0, -390.0, -325.0, -207.0, -64.0, 161.0, 262.0, 301.0, 321.0, 338.0, 373.0, 408.0, 450.0, 481.0, 486.0, 492.0, 492.0, 493.0, 493.0]	[0.010107147892995272, 0.014820958815107588, 0.020458417260670103, 0.03714141671662219, 0.0534568003640743, 0.06883112849027384, 0.08684532727056649, 0.10365461999754189, 0.11847530573868426, 0.13685131766396808, 0.1534735598252155, 0.16878678931243485, 0.18686311072815442, 0.20376046741148457, 0.21885456101153977, 0.23695409308129456, 0.25351045793649973, 0.2688622580753872, 0.28688396618235856, 0.3036765335855307, 0.3187341045413632, 0.3369063405698398, 0.35352824139408767, 0.36885068688570755, 0.38686761632561684, 0.4035960130931926, 0.4187440373352729, 0.4369739586691139, 0.4534501102316426, 0.4688449183522607, 0.48676900517602917, 0.5035148099341313, 0.5187249568116385, 0.5368545261953841, 0.5531477231925237, 0.5687845365173416, 0.5868318446082412, 0.6034810520868632, 0.6187017802949413, 0.6368303256749641, 0.6533488025525003, 0.6687555573298596, 0.686880348053819, 0.7034841582208173, 0.718440011893108, 0.7367020185411093, 0.7531211674722726, 0.7687887007778045]
34	海鸥	True	inanimate	animate	right	0.825	[0.0, 0.0, 0.0, 0.0, 0.0, 0.0, 0.0, 0.0, 0.0, 0.0, 0.0, 0.0, 0.0, 4.0, 32.0, 71.0, 106.0, 123.0, 126.0, 126.0, 126.0, 126.0, 126.0, 126.0, 126.0, 95.0, 41.0, -32.0, -115.0, -207.0, -298.0, -373.0, -403.0, -405.0, -295.0, -176.0, -11.0, 166.0, 345.0, 509.0, 650.0, 750.0, 800.0, 820.0, 834.0, 835.0, 835.0]	[-490.0, -490.0, -490.0, -490.0, -490.0, -490.0, -490.0, -490.0, -490.0, -490.0, -490.0, -490.0, -490.0, -490.0, -482.0, -470.0, -460.0, -455.0, -454.0, -454.0, -454.0, -454.0, -454.0, -454.0, -454.0, -451.0, -435.0, -414.0, -384.0, -341.0, -283.0, -224.0, -174.0, -136.0, -38.0, 45.0, 125.0, 201.0, 264.0, 303.0, 329.0, 342.0, 358.0, 368.0, 382.0, 383.0, 384.0]	[0.008222306190873496, 0.012601951944816392, 0.01743932547105942, 0.03341337596066296, 0.049760503592551686, 0.06510445306776091, 0.08312650250445586, 0.09996037121891277, 0.11485615026322193, 0.1331297622382408, 0.14977521504624747, 0.16510824186116224, 0.18316681394935586, 0.1999447040288942, 0.2148346804024186, 0.23324960430909414, 0.24968889189040055, 0.265067316016939, 0.2829296215422801, 0.2999648768163752, 0.3150364424363943, 0.3332585131065571, 0.3497926913041738, 0.3651618994335877, 0.3830924715875881, 0.3999567189530353, 0.4146627167574479, 0.433218269929057, 0.4497422081331024, 0.465130189586489, 0.4830750977343996, 0.49984752648015274, 0.5147511561808642, 0.5331558400939684, 0.5495865943448734, 0.5651476317143533, 0.5829983319054008, 0.5999499605604797, 0.6149611102082417, 0.6331743062182795, 0.6496845910951379, 0.6650664285552921, 0.6828775340982247, 0.6998994773821323, 0.7149379336842685, 0.7331617110176012, 0.7496501505811466]
35	婴儿	True	animate	inanimate	left	0.765	[0.0, 0.0, 0.0, 0.0, 0.0, 0.0, 0.0, 0.0, 0.0, 0.0, 0.0, 0.0, 0.0, 8.0, 25.0, 39.0, 48.0, 51.0, 52.0, 52.0, 52.0, 52.0, 52.0, 52.0, 52.0, 22.0, -31.0, -106.0, -184.0, -261.0, -320.0, -350.0, -351.0, -311.0, -216.0, -164.0, -149.0, -164.0, -235.0, -350.0, -495.0, -675.0, -835.0, -933.0, -950.0, -950.0, -950.0]	[-490.0, -490.0, -490.0, -490.0, -490.0, -490.0, -490.0, -490.0, -490.0, -490.0, -490.0, -490.0, -490.0, -490.0, -483.0, -477.0, -473.0, -472.0, -472.0, -472.0, -472.0, -472.0, -472.0, -472.0, -472.0, -472.0, -469.0, -450.0, -419.0, -374.0, -323.0, -258.0, -191.0, -112.0, 21.0, 102.0, 179.0, 240.0, 305.0, 365.0, 426.0, 500.0, 540.0, 540.0, 540.0, 540.0, 540.0]	[0.007571725189336576, 0.011937717623368371, 0.016022110197809525, 0.032134059285453986, 0.048455586926138494, 0.06387189903034596, 0.08180895651457831, 0.09867013188340934, 0.11373350550275063, 0.13193612018221756, 0.14854743967589457, 0.16384906384337228, 0.1818171826453181, 0.1986554886898375, 0.21366083567409078, 0.23197199429705506, 0.24850480716850143, 0.2638101859993185, 0.28185783542721765, 0.2987012614685227, 0.3138199310633354, 0.33189591113477945, 0.34850996129534906, 0.36383513745386153, 0.3817779976016027, 0.39859548232197994, 0.41357727731519844, 0.4319860572286416, 0.4484284168065642, 0.46381264359661145, 0.481761647737585, 0.4985443164841854, 0.5134936848262441, 0.5318103047829936, 0.5484373256040271, 0.5638577337085735, 0.5817394952173345, 0.5985791665953002, 0.613789654809807, 0.6318874802091159, 0.6483588531118585, 0.6637932558733155, 0.6814586121618049, 0.6985983153863344, 0.7136910436602193, 0.7318161757139023, 0.7481213193677831]
36	蝴蝶	True	animate	inanimate	left	0.75	[0.0, 0.0, 0.0, 0.0, 0.0, 0.0, 0.0, 0.0, 0.0, 0.0, 0.0, 0.0, 6.0, 46.0, 68.0, 76.0, 76.0, 76.0, 76.0, 76.0, 76.0, 76.0, 25.0, -54.0, -92.0, -232.0, -335.0, -428.0, -507.0, -577.0, -618.0, -631.0, -627.0, -599.0, -550.0, -539.0, -538.0, -549.0, -571.0, -596.0, -626.0, -665.0, -701.0, -725.0, -730.0, -730.0]	[-490.0, -490.0, -490.0, -490.0, -490.0, -490.0, -490.0, -490.0, -490.0, -490.0, -490.0, -490.0, -488.0, -473.0, -466.0, -464.0, -464.0, -464.0, -464.0, -464.0, -464.0, -463.0, -457.0, -433.0, -422.0, -355.0, -283.0, -175.0, -49.0, 77.0, 189.0, 283.0, 350.0, 398.0, 450.0, 467.0, 475.0, 483.0, 491.0, 496.0, 496.0, 496.0, 496.0, 494.0, 492.0, 492.0]	[0.014592265586543363, 0.020697691797977313, 0.02765747490047943, 0.04608878279395867, 0.0625348970424966, 0.07783174254291225, 0.09585242665343685, 0.11266649804019835, 0.12768447435519192, 0.14586285437690094, 0.1625018218619516, 0.1778710299913655, 0.19582105813606177, 0.212705444158928, 0.22752647123706993, 0.24586152318079257, 0.26252438397932565, 0.2778481948043918, 0.2958057322757668, 0.3126959209621418, 0.3277828465725179, 0.3459045652925852, 0.36253090344689554, 0.37781443694984773, 0.39561325450631557, 0.4126758164347848, 0.4276774087556987, 0.4458489621174522, 0.4624445802910486, 0.4778329030741588, 0.49572080858342815, 0.5126021226096782, 0.527692461546394, 0.5458435349210049, 0.562417649103736, 0.5778523932021926, 0.5957512213717564, 0.6126496020515333, 0.6274371784820687, 0.6458968170263688, 0.6624323605647078, 0.6778073713576305, 0.6957061995271943, 0.7125782975563197, 0.7277072071447037, 0.7458429205216817]
37	小鸡	True	inanimate	animate	right	0.675	[0.0, 0.0, 0.0, 0.0, 0.0, 0.0, 0.0, 0.0, 0.0, 0.0, 0.0, 22.0, 80.0, 148.0, 187.0, 206.0, 209.0, 209.0, 209.0, 209.0, 209.0, 209.0, 209.0, 209.0, 209.0, 209.0, 209.0, 214.0, 243.0, 333.0, 374.0, 497.0, 578.0, 645.0, 686.0, 704.0, 716.0, 719.0, 719.0, 719.0, 719.0]	[-490.0, -490.0, -490.0, -490.0, -490.0, -490.0, -490.0, -490.0, -490.0, -490.0, -490.0, -483.0, -463.0, -442.0, -435.0, -433.0, -432.0, -432.0, -432.0, -432.0, -432.0, -432.0, -432.0, -432.0, -432.0, -432.0, -432.0, -425.0, -362.0, -184.0, -111.0, 108.0, 255.0, 367.0, 429.0, 453.0, 467.0, 470.0, 470.0, 470.0, 470.0]	[0.00018049697246169671, 0.005056782472820487, 0.015001865380327217, 0.03334749865462072, 0.049879970189067535, 0.06521026634436566, 0.08325996376515832, 0.10017233910912182, 0.11514082211215282, 0.13334650878823595, 0.1500588628987316, 0.16524887112609576, 0.18327467522613006, 0.20004778663860634, 0.21509853093448328, 0.23330797227390576, 0.24987833179329755, 0.2652250119353994, 0.2832555947024957, 0.3000898047539522, 0.31512006905541057, 0.33336398504616227, 0.3499776938770083, 0.36526600604702253, 0.383277132823423, 0.4000990548811387, 0.4150887005380355, 0.4333237418686622, 0.449972266680561, 0.4652656988473609, 0.48314643635967514, 0.5000086357249529, 0.5151153586557484, 0.5332391253759852, 0.549892428854946, 0.5652824583085021, 0.5832089344621636, 0.6000486058401293, 0.6148160436132457, 0.6334828713879688, 0.6495477164935437]
38	啤酒	False	inanimate	animate	left	0.831	[0.0, 0.0, 0.0, 0.0, 0.0, 0.0, 0.0, 0.0, 0.0, 0.0, 0.0, 19.0, 62.0, 104.0, 127.0, 135.0, 135.0, 135.0, 135.0, 135.0, 136.0, 101.0, 18.0, -42.0, -154.0, -300.0, -425.0, -504.0, -544.0, -548.0, -523.0, -462.0, -271.0, -182.0, 44.0, 187.0, 328.0, 431.0, 463.0, 466.0, 442.0, 357.0, 211.0, -106.0, -224.0, -451.0, -729.0, -821.0, -848.0, -853.0, -853.0]	[-490.0, -490.0, -490.0, -490.0, -490.0, -490.0, -490.0, -490.0, -490.0, -490.0, -490.0, -482.0, -464.0, -451.0, -445.0, -442.0, -442.0, -442.0, -442.0, -442.0, -441.0, -442.0, -444.0, -435.0, -390.0, -322.0, -227.0, -124.0, -22.0, 36.0, 70.0, 103.0, 170.0, 192.0, 255.0, 297.0, 318.0, 334.0, 335.0, 336.0, 340.0, 346.0, 367.0, 417.0, 435.0, 474.0, 503.0, 503.0, 503.0, 503.0, 503.0]	[0.015325107880926225, 0.02024201203312259, 0.02879377298813779, 0.04699945966422092, 0.06405860826635035, 0.07900729394896189, 0.09726930059696315, 0.1138857400874258, 0.12909725229837932, 0.14713944039249327, 0.16403986907243961, 0.17905682138371048, 0.19727274806064088, 0.21376460095052607, 0.22917579305794789, 0.24714493585634045, 0.2640047458917252, 0.279008044875809, 0.2972714168645325, 0.3137291364328121, 0.32914647254074225, 0.34716749798099045, 0.36397849737113575, 0.3790087616798701, 0.39724277900677407, 0.413813821192889, 0.4291673279949464, 0.4471047268161783, 0.4640365581435617, 0.4789647638317547, 0.4971854691684712, 0.5138913379487349, 0.5290769088460365, 0.547096910282562, 0.5639987042959547, 0.5790631019190187, 0.5972670819319319, 0.6138592867646366, 0.6290776256428217, 0.6470682724320795, 0.6639192078073393, 0.6789764374261722, 0.7012204367056256, 0.7137821796059143, 0.7291148650911055, 0.747005842596991, 0.7640079885604791, 0.7790583915193565, 0.7972514488719753, 0.8138044003935647, 0.8290889579002396]
39	法官	True	inanimate	animate	right	0.658	[0.0, 0.0, 0.0, 0.0, 0.0, 0.0, 0.0, 0.0, 0.0, 6.0, 16.0, 36.0, 55.0, 85.0, 95.0, 99.0, 104.0, 104.0, 104.0, 104.0, 98.0, 42.0, -30.0, -120.0, -231.0, -367.0, -413.0, -421.0, -366.0, -233.0, -57.0, 155.0, 363.0, 557.0, 713.0, 876.0, 900.0, 928.0, 928.0, 928.0]	[-490.0, -490.0, -490.0, -490.0, -490.0, -490.0, -490.0, -490.0, -489.0, -488.0, -484.0, -477.0, -466.0, -453.0, -448.0, -447.0, -445.0, -445.0, -445.0, -445.0, -445.0, -427.0, -402.0, -355.0, -282.0, -131.0, -6.0, 63.0, 241.0, 335.0, 395.0, 448.0, 477.0, 499.0, 499.0, 499.0, 499.0, 499.0, 499.0, 499.0]	[0.005252707713225391, 0.010217398499662522, 0.025398873396625277, 0.04377454398490954, 0.060606023369473405, 0.07543967977107968, 0.09384538768063067, 0.1102109473067685, 0.1256692433889839, 0.14370119148952654, 0.16042173759342404, 0.17546906855568523, 0.19380685117357643, 0.21019323211658048, 0.22566620552242966, 0.2436633376419195, 0.2604664863756625, 0.27557081997656496, 0.2937734346560319, 0.310467698109278, 0.3256693116563838, 0.34367634243972134, 0.3604136138674221, 0.375290278250759, 0.39380453010380734, 0.4103011616607546, 0.4257454630860593, 0.4435698806264554, 0.4603952160105109, 0.4754807762874407, 0.49383562555885874, 0.5102517024861299, 0.5256738172538462, 0.5435777654201956, 0.5604276767917327, 0.5754811517545022, 0.5938298570254119, 0.6103473098992254, 0.6256547367302119, 0.6437430048026727]
40	天鹅	True	inanimate	animate	right	0.652	[0.0, 0.0, 0.0, 0.0, 0.0, 0.0, 0.0, 0.0, -2.0, -4.0, -6.0, -6.0, -6.0, -5.0, -5.0, -5.0, -5.0, -5.0, -5.0, -5.0, -5.0, -4.0, -19.0, -38.0, -70.0, -96.0, -121.0, -129.0, -98.0, -27.0, 89.0, 251.0, 425.0, 598.0, 778.0, 844.0, 870.0, 872.0, 872.0, 872.0]	[-490.0, -490.0, -490.0, -490.0, -490.0, -490.0, -490.0, -490.0, -491.0, -491.0, -492.0, -492.0, -492.0, -493.0, -493.0, -493.0, -493.0, -493.0, -493.0, -493.0, -493.0, -498.0, -512.0, -512.0, -497.0, -467.0, -393.0, -278.0, -144.0, -11.0, 92.0, 172.0, 237.0, 288.0, 347.0, 374.0, 385.0, 385.0, 385.0, 385.0]	[0.015950771565258037, 0.021029467628977727, 0.030141014969558455, 0.048445005595567636, 0.06537001026299549, 0.08021493066189578, 0.09843051600182662, 0.11515549943578662, 0.13032502767600818, 0.14838359975692583, 0.16529904709750554, 0.18019004747475265, 0.19846536612021737, 0.21509784826776013, 0.2304107364252559, 0.24836212990339845, 0.2652058972817031, 0.2802955535516958, 0.29844526159286033, 0.31507091708044754, 0.33031724527972983, 0.3483768413643702, 0.3652195847389521, 0.38011126778292237, 0.3984517810604302, 0.41494295128359227, 0.430367114051478, 0.4483884808214498, 0.46516432290081866, 0.48020414453640115, 0.498332689916424, 0.5150003293820191, 0.530311510876345, 0.5482895283421385, 0.5651254450567649, 0.5799399868046748, 0.598386654688511, 0.6150556594875525, 0.6303026703535579, 0.6483059464662801]
41	蜜蜂	True	animate	inanimate	left	0.864	[0.0, 0.0, 0.0, 0.0, 0.0, 0.0, 0.0, 0.0, 0.0, 0.0, 0.0, 0.0, 0.0, 0.0, 1.0, 8.0, 23.0, 36.0, 40.0, 40.0, 40.0, 9.0, -73.0, -158.0, -265.0, -389.0, -491.0, -586.0, -661.0, -717.0, -736.0, -731.0, -717.0, -702.0, -683.0, -682.0, -682.0, -678.0, -661.0, -618.0, -549.0, -489.0, -466.0, -464.0, -464.0, -488.0, -561.0, -614.0, -655.0, -677.0, -687.0, -692.0]	[-490.0, -490.0, -490.0, -490.0, -490.0, -490.0, -490.0, -490.0, -490.0, -490.0, -490.0, -490.0, -490.0, -490.0, -490.0, -487.0, -484.0, -480.0, -479.0, -479.0, -479.0, -489.0, -505.0, -500.0, -462.0, -400.0, -317.0, -192.0, -64.0, 55.0, 130.0, 159.0, 179.0, 210.0, 261.0, 280.0, 296.0, 318.0, 349.0, 391.0, 433.0, 458.0, 468.0, 469.0, 469.0, 468.0, 463.0, 460.0, 455.0, 451.0, 448.0, 446.0]	[0.007677197128941771, 0.01198823492450174, 0.016187998109671753, 0.03227025120577309, 0.04869827479706146, 0.06400501896132482, 0.08186595914594363, 0.09889302242663689, 0.1138696974303457, 0.13210166675708024, 0.14846449571632547, 0.16406205573002808, 0.18199979588098358, 0.1988254725947627, 0.21397486217756523, 0.23218601018743357, 0.24849012983759167, 0.2639689059142256, 0.281981739353796, 0.2988022960780654, 0.3135799738447531, 0.3320420017262222, 0.3484532999864314, 0.3639645027142251, 0.38204116545966826, 0.39880847420863574, 0.41394421045697527, 0.4320345265296055, 0.4485673393937759, 0.4639665848444565, 0.481928559645894, 0.4987446790401009, 0.5138305806467542, 0.5319826780178118, 0.5485533788669272, 0.5639703736451338, 0.5818852444717777, 0.5988556464508292, 0.6139244814039557, 0.6319891974853817, 0.6485697969983448, 0.6639632397782407, 0.6819514972376055, 0.6987884379486786, 0.713966158182302, 0.7320496475877007, 0.7485524231378804, 0.7640294925440685, 0.7817320541507797, 0.7987891547527397, 0.8139126030073385, 0.8319950684162905]
42	螃蟹	True	inanimate	animate	right	0.8	[0.0, 25.0, 25.0, 32.0, 41.0, 46.0, 48.0, 48.0, 50.0, 50.0, 50.0, 50.0, 50.0, 50.0, 50.0, 51.0, 63.0, 78.0, 90.0, 99.0, 104.0, 109.0, 111.0, 111.0, 111.0, 111.0, 111.0, 111.0, 112.0, 88.0, 42.0, -15.0, -101.0, -215.0, -319.0, -383.0, -388.0, -353.0, -225.0, -163.0, 45.0, 208.0, 366.0, 500.0, 614.0, 699.0, 769.0, 778.0, 784.0]	[-490.0, -487.0, -487.0, -487.0, -487.0, -487.0, -487.0, -487.0, -485.0, -485.0, -485.0, -485.0, -485.0, -485.0, -485.0, -485.0, -480.0, -476.0, -473.0, -471.0, -469.0, -467.0, -466.0, -466.0, -466.0, -466.0, -466.0, -466.0, -465.0, -447.0, -386.0, -285.0, -176.0, -63.0, 43.0, 130.0, 163.0, 193.0, 247.0, 263.0, 323.0, 355.0, 388.0, 426.0, 458.0, 477.0, 486.0, 486.0, 487.0]	[0.008362935441255104, 0.013386676873778924, 0.01798955451522488, 0.03379771708569024, 0.050242807337781414, 0.06552087951422436, 0.08361836357653374, 0.10037031233514426, 0.11513467811164446, 0.1338458791942685, 0.15020256415300537, 0.1656495962452027, 0.18372591766092228, 0.20041403711366002, 0.21540334144083317, 0.23362677744444227, 0.25025311559875263, 0.2656349530516309, 0.2835706452024169, 0.2990084612974897, 0.31532896494172746, 0.3416123008209979, 0.3503418963518925, 0.3656564911798341, 0.38342288207786623, 0.40038031339645386, 0.4154167216984206, 0.4337548456460354, 0.450188330563833, 0.46559406134474557, 0.4835956307942979, 0.500305254237901, 0.5154846811346943, 0.533706751804857, 0.5501030314044328, 0.5656196954587358, 0.5835864489272353, 0.6003052883679629, 0.6154290779595613, 0.6336876712812227, 0.650173038840876, 0.6656129029288422, 0.6837687549705151, 0.700377002467576, 0.7154181894293288, 0.7336665427574189, 0.7501102676687879, 0.7655593477611546, 0.7834906025818782]
43	新娘	True	inanimate	animate	right	0.832	[0.0, -1.0, -1.0, -1.0, -1.0, -1.0, -1.0, -1.0, -1.0, -1.0, -1.0, -1.0, 5.0, 27.0, 51.0, 73.0, 89.0, 98.0, 106.0, 112.0, 125.0, 128.0, 137.0, 139.0, 139.0, 139.0, 139.0, 139.0, 139.0, 139.0, 128.0, 113.0, 94.0, 85.0, 68.0, 78.0, 130.0, 218.0, 309.0, 375.0, 399.0, 413.0, 422.0, 430.0, 455.0, 468.0, 535.0, 617.0, 705.0, 800.0, 882.0]	[-490.0, -492.0, -492.0, -492.0, -492.0, -492.0, -492.0, -492.0, -492.0, -492.0, -492.0, -492.0, -492.0, -484.0, -471.0, -460.0, -453.0, -448.0, -446.0, -442.0, -439.0, -438.0, -435.0, -435.0, -435.0, -435.0, -435.0, -435.0, -435.0, -435.0, -434.0, -429.0, -395.0, -360.0, -215.0, -124.0, -45.0, 27.0, 85.0, 116.0, 134.0, 153.0, 173.0, 197.0, 265.0, 289.0, 364.0, 404.0, 441.0, 470.0, 483.0]	[0.01479774815379642, 0.021315163481631316, 0.027839746806421317, 0.04649940659146523, 0.06285165421286365, 0.07819457969162613, 0.09608487453078851, 0.1130702951704734, 0.12808144481823547, 0.14636905145744095, 0.162898109658272, 0.1782990617721225, 0.1960999273287598, 0.2130904679579544, 0.22803949497028952, 0.24639502690843074, 0.26287186113768257, 0.27823526660358766, 0.29606241481087636, 0.3130007314757677, 0.3280774170852965, 0.3463776530479663, 0.36280123930919217, 0.378272847388871, 0.3962737341717002, 0.4130185149333556, 0.42804092857113574, 0.446314199216431, 0.46291152405319735, 0.47827663618227234, 0.49631336294987705, 0.5130192317301407, 0.5280836293532047, 0.5463029693564749, 0.5628153022335027, 0.5783196782940649, 0.5961946131428704, 0.6130155111968634, 0.6281283781281672, 0.6463275794740184, 0.6627450217347359, 0.6782176538181375, 0.6961949886099319, 0.7129640040220693, 0.7278676337300567, 0.7462572989752516, 0.7628092265076702, 0.7783098478976171, 0.7962168680678587, 0.8130538087789319, 0.8281468783825403]
44	老虎	True	animate	inanimate	left	1.308	[0.0, 0.0, 0.0, 0.0, 0.0, 0.0, 0.0, 0.0, 0.0, 0.0, 4.0, 15.0, 41.0, 73.0, 77.0, 77.0, 77.0, 77.0, 77.0, 77.0, 77.0, 75.0, 59.0, 35.0, -10.0, -108.0, -168.0, -201.0, -205.0, -177.0, -124.0, -60.0, -24.0, -15.0, -4.0, 9.0, 33.0, 111.0, 201.0, 299.0, 352.0, 363.0, 357.0, 289.0, 144.0, -63.0, -299.0, -546.0, -780.0, -960.0, -960.0, -960.0, -960.0, -960.0, -960.0, -960.0, -960.0, -960.0, -960.0, -960.0, -958.0, -916.0, -843.0, -764.0, -687.0, -635.0, -614.0, -609.0, -609.0, -609.0, -609.0, -614.0, -624.0, -660.0, -712.0, -769.0, -798.0, -801.0, -801.0]	[-490.0, -490.0, -490.0, -490.0, -490.0, -490.0, -490.0, -492.0, -492.0, -492.0, -491.0, -485.0, -475.0, -464.0, -462.0, -462.0, -462.0, -462.0, -462.0, -462.0, -462.0, -463.0, -470.0, -477.0, -484.0, -483.0, -467.0, -443.0, -403.0, -328.0, -230.0, -120.0, -16.0, 81.0, 142.0, 164.0, 195.0, 263.0, 312.0, 358.0, 389.0, 404.0, 409.0, 409.0, 395.0, 372.0, 352.0, 340.0, 340.0, 340.0, 341.0, 342.0, 342.0, 343.0, 344.0, 344.0, 344.0, 344.0, 344.0, 344.0, 345.0, 350.0, 361.0, 361.0, 363.0, 364.0, 373.0, 380.0, 384.0, 384.0, 386.0, 388.0, 391.0, 394.0, 394.0, 401.0, 405.0, 405.0, 405.0]	[0.00034672622132347897, 0.005476622260175645, 0.015572915763186757, 0.033990228999755345, 0.05031175664043985, 0.06577073539665435, 0.08379141949990299, 0.10058159757318208, 0.11560742454457795, 0.14050085179769667, 0.15024523081228836, 0.1658455214856076, 0.1835419390918105, 0.2005911890300922, 0.21542791743559064, 0.2337687720428221, 0.2503824808736681, 0.26570219569839537, 0.28375291712291073, 0.3006502737989649, 0.31545389288658043, 0.3338507261360064, 0.3503951443344704, 0.36570837382168975, 0.3837280339357676, 0.40059193996421527, 0.41571504688909044, 0.4338166269517387, 0.45020300789474277, 0.4657203546157689, 0.4837140734089189, 0.50054623545293, 0.5156690010480816, 0.5337343997962307, 0.5502146473590983, 0.5656964954323485, 0.5836260435826262, 0.6004998482821975, 0.6156021338829305, 0.6338788178545656, 0.6503754494115128, 0.6657064282262581, 0.6836516777038923, 0.7004957864119206, 0.715591245352698, 0.73380273469229, 0.7504229288533679, 0.7657143130199984, 0.7836653651611414, 0.8005190312032937, 0.8156151728035184, 0.8338638674613321, 0.8503785896755289, 0.8657300484774169, 0.8836561833013548, 0.9005149693402927, 0.9155800496228039, 0.9338150909534306, 0.9503902291326085, 0.9656939013002557, 0.983597166799882, 1.000534118124051, 1.015681459706684, 1.0338175144206616, 1.0503571539520635, 1.0656973487639334, 1.0836719528961112, 1.1004682749626227, 1.1155657818962936, 1.133768055246037, 1.1500895828867215, 1.165702502898057, 1.1836105470574694, 1.20053657572862, 1.215603362681577, 1.2337742333766073, 1.2503224062384106, 1.2657312090159394, 1.2836112638615305]
45	乐队	True	inanimate	animate	right	0.735	[0.0, 0.0, 0.0, 0.0, 0.0, 0.0, 0.0, 0.0, 0.0, 0.0, 0.0, 0.0, 0.0, 0.0, 0.0, 0.0, 0.0, 0.0, 0.0, 0.0, 0.0, 0.0, 0.0, 0.0, 0.0, 0.0, 12.0, 25.0, 63.0, 78.0, 86.0, 96.0, 114.0, 141.0, 184.0, 267.0, 386.0, 578.0, 679.0, 753.0, 790.0, 801.0, 801.0, 801.0, 801.0]	[-490.0, -490.0, -490.0, -490.0, -490.0, -490.0, -490.0, -490.0, -490.0, -490.0, -490.0, -490.0, -490.0, -490.0, -490.0, -490.0, -490.0, -490.0, -490.0, -490.0, -490.0, -490.0, -490.0, -490.0, -490.0, -490.0, -487.0, -485.0, -474.0, -472.0, -471.0, -469.0, -457.0, -425.0, -372.0, -253.0, -72.0, 201.0, 305.0, 356.0, 392.0, 418.0, 430.0, 434.0, 434.0]	[0.014537618153553922, 0.02173019047040725, 0.027550603488634806, 0.04576004483533325, 0.062407545643509366, 0.07753713789861649, 0.0955666966692661, 0.1124080747104017, 0.12737587504670955, 0.14570683099736925, 0.1622229185377364, 0.1775030387143488, 0.1954452161953668, 0.21246681814955082, 0.2271281013090629, 0.24594136100495234, 0.26235709660249995, 0.2778703473304631, 0.29537869035993936, 0.3123849323237664, 0.3273578526568599, 0.3456058646479505, 0.36223117879853817, 0.3775075443118112, 0.39560400437767385, 0.4125457343761809, 0.4273558387940284, 0.44566017074976116, 0.46221073294145754, 0.47748880512517644, 0.49548661990411347, 0.512365885930194, 0.5273667955843848, 0.5455953515847796, 0.5620476098265499, 0.5774919112518546, 0.5954078060822212, 0.6123283734195866, 0.6273589790580445, 0.6455667137342971, 0.6618520600604825, 0.6775267613702454, 0.6953255789267132, 0.7123669782013167, 0.7273596958548296]
46	灯泡	False	inanimate	animate	right	0.717	[0.0, 0.0, 0.0, 0.0, 0.0, 0.0, 0.0, 0.0, 0.0, 0.0, 0.0, 0.0, 0.0, 0.0, 0.0, 0.0, 0.0, 0.0, 2.0, 24.0, 41.0, 46.0, 51.0, 51.0, 46.0, 43.0, 42.0, 42.0, 42.0, 42.0, 42.0, 36.0, 36.0, 78.0, 178.0, 298.0, 428.0, 613.0, 713.0, 745.0, 787.0, 787.0, 787.0, 787.0]	[-490.0, -490.0, -490.0, -490.0, -490.0, -490.0, -490.0, -490.0, -490.0, -490.0, -490.0, -490.0, -490.0, -490.0, -490.0, -490.0, -490.0, -490.0, -489.0, -484.0, -480.0, -479.0, -480.0, -491.0, -496.0, -498.0, -499.0, -499.0, -499.0, -499.0, -499.0, -471.0, -374.0, -241.0, -95.0, 52.0, 171.0, 313.0, 385.0, 412.0, 452.0, 454.0, 454.0, 454.0]	[0.014077876519877464, 0.018854151414416265, 0.026098606365849264, 0.044526842269988265, 0.06138153230131138, 0.076381759288779, 0.09464922727056546, 0.11124655210733181, 0.12652769628039096, 0.1445337030600058, 0.1614634863944957, 0.1763357134477701, 0.1946816880517872, 0.2112752582252142, 0.22660145838017343, 0.24461019582668087, 0.26146078986494103, 0.2765241634842823, 0.29461174889001995, 0.31112647110421676, 0.32661685250059236, 0.3444549233681755, 0.36135535204812186, 0.37612552048813086, 0.39461587902042083, 0.4111326492347871, 0.42660459864418954, 0.44445359217206715, 0.46141546082071727, 0.47626345321623376, 0.49458314516959945, 0.5111159580410458, 0.5265466061391635, 0.5445000476101995, 0.561349617652013, 0.5764184526051395, 0.5945452913219924, 0.6111914268039982, 0.6265046562912175, 0.6445055430740467, 0.6613534064526903, 0.6761283535524854, 0.6945801414403832, 0.7111354822991416]
47	乐队	True	animate	inanimate	left	1.079	[0.0, 0.0, 0.0, 0.0, 0.0, 0.0, 0.0, 0.0, 0.0, 0.0, 0.0, 0.0, 0.0, 0.0, 7.0, 10.0, 10.0, 10.0, 10.0, 10.0, 10.0, 10.0, 10.0, 10.0, 10.0, 10.0, 10.0, 10.0, 9.0, 8.0, 3.0, -9.0, -54.0, -71.0, -83.0, -82.0, -87.0, -102.0, -129.0, -182.0, -248.0, -344.0, -465.0, -595.0, -711.0, -807.0, -904.0, -948.0, -960.0, -960.0, -960.0, -960.0, -960.0, -960.0, -960.0, -959.0, -958.0, -958.0, -958.0, -958.0, -957.0, -956.0, -954.0, -954.0, -954.0]	[-490.0, -490.0, -490.0, -490.0, -490.0, -490.0, -490.0, -490.0, -490.0, -490.0, -490.0, -490.0, -490.0, -490.0, -484.0, -482.0, -482.0, -482.0, -482.0, -482.0, -482.0, -482.0, -482.0, -482.0, -482.0, -482.0, -482.0, -481.0, -476.0, -458.0, -411.0, -298.0, -73.0, -3.0, 110.0, 130.0, 143.0, 162.0, 181.0, 213.0, 246.0, 282.0, 327.0, 371.0, 404.0, 423.0, 438.0, 444.0, 446.0, 452.0, 455.0, 456.0, 456.0, 456.0, 456.0, 457.0, 458.0, 458.0, 458.0, 458.0, 458.0, 458.0, 459.0, 459.0, 459.0]	[0.0019861493856296875, 0.007104098767740652, 0.018920711379905697, 0.03684001953661209, 0.05748589697032003, 0.06882464316004189, 0.08688560458540451, 0.10390140386880375, 0.11892108684696723, 0.13712404286343371, 0.15375959700759267, 0.1690888691591681, 0.18708702528238064, 0.20397789662820287, 0.21896276362531353, 0.23714387431391515, 0.25374051648395834, 0.26920836990029784, 0.2870655554215773, 0.30392502412723843, 0.3188805364698055, 0.3371384471174679, 0.3536992493100115, 0.3691865587097709, 0.38702565358107677, 0.4039339329174254, 0.4189635145594366, 0.43709137728001224, 0.45375628607871477, 0.469160651526181, 0.48699803972704103, 0.5038110871173558, 0.5188713887400809, 0.5370490861023427, 0.5536412909350474, 0.5691173363447888, 0.5869444845520775, 0.6037687959396862, 0.618932521509123, 0.6370364909089403, 0.6536757997164386, 0.6691272691386985, 0.6869366680257372, 0.703777022070426, 0.7186250144659425, 0.7370256023787078, 0.7536812951802858, 0.769116380615742, 0.7869558168167714, 0.8038275735088973, 0.8189441951035406, 0.8371171137987403, 0.8536355906762765, 0.8691901427082485, 0.8869097709684866, 0.9037948396580759, 0.9190449225206976, 0.9370669719573925, 0.953640062136401, 0.9690847048987052, 0.986867479790817, 1.0037829271313967, 1.0191224392765434, 1.0371823766981834, 1.0536619415943278]
48	道士	True	animate	inanimate	left	0.801	[0.0, 0.0, 0.0, 0.0, 0.0, -2.0, -2.0, -3.0, -5.0, -5.0, -5.0, -5.0, -5.0, -5.0, -5.0, 0.0, 23.0, 33.0, 37.0, 42.0, 49.0, 57.0, 58.0, 58.0, 58.0, 58.0, 58.0, 58.0, 58.0, 52.0, 17.0, -19.0, -55.0, -102.0, -142.0, -175.0, -227.0, -320.0, -396.0, -470.0, -575.0, -683.0, -784.0, -869.0, -897.0, -902.0, -902.0, -903.0, -903.0]	[-490.0, -490.0, -490.0, -490.0, -490.0, -489.0, -489.0, -489.0, -489.0, -489.0, -489.0, -489.0, -489.0, -489.0, -486.0, -484.0, -476.0, -474.0, -473.0, -472.0, -471.0, -470.0, -470.0, -470.0, -470.0, -470.0, -470.0, -470.0, -470.0, -459.0, -422.0, -381.0, -332.0, -244.0, -135.0, -16.0, 98.0, 216.0, 268.0, 308.0, 352.0, 397.0, 437.0, 461.0, 468.0, 469.0, 469.0, 470.0, 470.0]	[0.014790580164117273, 0.01960781503294129, 0.02773666420398513, 0.04605533216090407, 0.062935963513155, 0.07791980650654295, 0.09626509845111286, 0.11273510602040915, 0.12811762614001054, 0.14590244903229177, 0.16289810966554796, 0.17798947260598652, 0.19620335128274746, 0.21274299081414938, 0.22801457766036037, 0.24604277109756367, 0.26297391975822393, 0.2779512774286559, 0.29614877211133717, 0.3128338195674587, 0.3281170117406873, 0.34606533322221367, 0.3628654099520645, 0.3776516210491536, 0.3961419795814436, 0.4127444244149956, 0.42812626186787384, 0.4460592233517673, 0.4629572627018206, 0.477963292352797, 0.4961051497302833, 0.5127560638720752, 0.5280867013570969, 0.5460606228225515, 0.5636710244725691, 0.57798824380734, 0.5961628691657097, 0.6124171541814576, 0.6280587461733376, 0.6460521236222121, 0.6629269523182302, 0.6779531206266256, 0.6962028392808861, 0.7127219988251454, 0.7281314842693973, 0.7460337257653009, 0.7628788584770518, 0.7778951281215996, 0.796131193448673]
