trialIndex	stimulus	left_option	right_option	response	response_time	xTrajectory	yTrajectory	tTrajectory
0	inanimate/n13.jpg	animate	inanimate	left	1.514	[0.0, 0.0, 0.0, 0.0, 0.0, 0.0, 0.0, 0.0, 0.0, 0.0, 0.0, 0.0, 0.0, 0.0, 0.0, 0.0, 0.0, 0.0, 0.0, -1.0, -1.0, -1.0, -1.0, -14.0, -38.0, -81.0, -113.0, -138.0, -143.0, -144.0, -144.0, -136.0, -117.0, -73.0, 51.0, 149.0, 236.0, 287.0, 305.0, 308.0, 308.0, 308.0, 308.0, 308.0, 308.0, 308.0, 308.0, 308.0, 308.0, 308.0, 308.0, 302.0, 264.0, 193.0, 125.0, 55.0, -23.0, -103.0, -174.0, -255.0, -287.0, -314.0, -334.0, -356.0, -384.0, -405.0, -421.0, -431.0, -439.0, -451.0, -466.0, -497.0, -518.0, -536.0, -552.0, -571.0, -588.0, -604.0, -625.0, -643.0, -661.0, -681.0, -700.0, -725.0, -733.0, -737.0, -740.0, -740.0, -740.0, -740.0, -740.0]	[-490.0, -491.0, -491.0, -491.0, -491.0, -491.0, -491.0, -491.0, -491.0, -491.0, -491.0, -491.0, -491.0, -491.0, -491.0, -491.0, -491.0, -491.0, -491.0, -491.0, -489.0, -479.0, -461.0, -364.0, -259.0, -113.0, 3.0, 84.0, 125.0, 150.0, 167.0, 181.0, 200.0, 234.0, 306.0, 359.0, 401.0, 422.0, 429.0, 434.0, 448.0, 462.0, 470.0, 473.0, 474.0, 476.0, 477.0, 479.0, 480.0, 480.0, 480.0, 476.0, 456.0, 422.0, 386.0, 355.0, 328.0, 307.0, 297.0, 285.0, 281.0, 278.0, 278.0, 278.0, 278.0, 278.0, 278.0, 278.0, 278.0, 278.0, 278.0, 281.0, 284.0, 284.0, 286.0, 292.0, 299.0, 312.0, 334.0, 358.0, 384.0, 407.0, 425.0, 445.0, 450.0, 452.0, 454.0, 454.0, 454.0, 454.0, 454.0]	[0.013806380127789453, 0.019665705127408728, 0.026097787165781483, 0.04297773586586118, 0.0593511461338494, 0.07653317466611043, 0.09279462767881341, 0.10973328567342833, 0.12604798664688133, 0.14312147125019692, 0.15930783096700907, 0.1764659661857877, 0.1927830564964097, 0.20978520245989785, 0.22888961934950203, 0.24305528675904498, 0.26218120762496255, 0.27638954168651253, 0.2954383212781977, 0.3097227726248093, 0.3265982839802746, 0.34310140085290186, 0.3595014351303689, 0.37604824267327785, 0.3928739193652291, 0.40991941464017145, 0.42598152908612974, 0.44283758447272703, 0.45955915458034724, 0.4764493432594463, 0.49286337217199616, 0.5098515235004015, 0.5259371899301186, 0.5430103331746068, 0.5594984313938767, 0.5765289080154616, 0.5929009529645555, 0.6098658936098218, 0.6259986640070565, 0.642779626097763, 0.6597418360761367, 0.6759551611030474, 0.6930139683827292, 0.7095375652424991, 0.726414100616239, 0.7428540708497167, 0.7599002487841062, 0.7759753339050803, 0.7930781731556635, 0.8095717327087186, 0.8264144760614727, 0.8428401103301439, 0.8598129016463645, 0.87594669603277, 0.8931580792414024, 0.909432844229741, 0.9264209955290426, 0.9426950778579339, 0.9597777784510981, 0.9759569701855071, 0.9931389987177681, 1.0095700942911208, 1.0263981603493448, 1.042849053250393, 1.0597467512707226, 1.0759416443179362, 1.0931547341751866, 1.1096240590559319, 1.1264487117878161, 1.1428753700456582, 1.1597959373902995, 1.1763731235696469, 1.193216549610952, 1.2093943759973627, 1.2264234872709494, 1.2425873189931735, 1.2597236088768113, 1.2759823312226217, 1.2931315917812753, 1.3093278501473833, 1.3264057720662095, 1.342638553091092, 1.3597379790153354, 1.3759639333584346, 1.393094761937391, 1.4093920549203176, 1.426408536877716, 1.4426747685356531, 1.4597871651058085, 1.4762619513494428, 1.493074657424586]
1	animate/a40.jpg	inanimate	animate	right	1.38	[0.0, 0.0, 0.0, 0.0, 0.0, 0.0, 0.0, 0.0, 0.0, 0.0, 0.0, 0.0, 0.0, 0.0, 3.0, 5.0, 6.0, 5.0, -44.0, -100.0, -151.0, -182.0, -196.0, -208.0, -210.0, -210.0, -210.0, -210.0, -210.0, -210.0, -213.0, -222.0, -240.0, -267.0, -311.0, -372.0, -446.0, -492.0, -537.0, -579.0, -615.0, -646.0, -679.0, -700.0, -717.0, -731.0, -742.0, -750.0, -750.0, -752.0, -752.0, -752.0, -752.0, -735.0, -653.0, -505.0, -314.0, -99.0, 118.0, 380.0, 521.0, 618.0, 675.0, 709.0, 724.0, 730.0, 730.0, 730.0, 730.0, 730.0, 734.0, 740.0, 742.0, 744.0, 748.0, 756.0, 773.0, 788.0, 797.0, 797.0, 797.0, 797.0, 797.0]	[-490.0, -490.0, -490.0, -490.0, -490.0, -490.0, -490.0, -490.0, -490.0, -490.0, -490.0, -490.0, -490.0, -488.0, -481.0, -463.0, -424.0, -316.0, -172.0, -58.0, 18.0, 57.0, 74.0, 85.0, 87.0, 87.0, 87.0, 87.0, 87.0, 87.0, 88.0, 92.0, 97.0, 106.0, 121.0, 141.0, 173.0, 195.0, 219.0, 244.0, 270.0, 293.0, 311.0, 322.0, 332.0, 341.0, 346.0, 352.0, 352.0, 354.0, 354.0, 355.0, 360.0, 368.0, 392.0, 413.0, 433.0, 449.0, 463.0, 471.0, 471.0, 471.0, 471.0, 471.0, 470.0, 469.0, 469.0, 469.0, 469.0, 469.0, 469.0, 469.0, 470.0, 470.0, 471.0, 471.0, 471.0, 471.0, 471.0, 471.0, 471.0, 471.0, 471.0]	[0.007161237910622731, 0.015300668397685513, 0.028447115008020774, 0.045548930240329355, 0.06190083656110801, 0.07871320127742365, 0.09537503807223402, 0.11181705631315708, 0.1285457944322843, 0.14495879935566336, 0.16178618275444023, 0.17823605163721368, 0.1953368429094553, 0.2116965998429805, 0.2287731564429123, 0.24487145218881778, 0.26195483544142917, 0.2782726084406022, 0.29533346369862556, 0.31175704995985143, 0.3286250519740861, 0.34477557172067463, 0.3616985283733811, 0.3783712878357619, 0.39531472450471483, 0.411590513511328, 0.4284291608782951, 0.4448124698246829, 0.46175931981997564, 0.4783801966405008, 0.4953024706337601, 0.511503507674206, 0.5284565016627312, 0.5448142106179148, 0.5618003139388748, 0.5783136708196253, 0.5952495981473476, 0.6116946883848868, 0.6286193517153151, 0.6447944474348333, 0.6617788440780714, 0.6784007448877674, 0.6953110722533893, 0.7117530904943123, 0.7285483885498252, 0.7448241775564384, 0.7618802541692276, 0.7784280856722035, 0.7952483010885771, 0.8117418606416322, 0.8286552599747665, 0.8448160197003745, 0.8618536643043626, 0.8784018371661659, 0.8953360578161664, 0.9116736281430349, 0.9286617794423364, 0.9447901124949567, 0.9619547330657952, 0.9781776154122781, 0.9953582786256447, 1.0117610435409006, 1.0287805974949151, 1.0448020932963118, 1.0619796845130622, 1.078393713425612, 1.0953753794019576, 1.1117091950436588, 1.12870724502136, 1.1448120260902215, 1.162004977290053, 1.1783992089040112, 1.1954085228499025, 1.2116774852038361, 1.2287103511334863, 1.2449673668306787, 1.2620152514136862, 1.2782531524426304, 1.2954413249681238, 1.3116891246463638, 1.3286745452787727, 1.3448452036827803, 1.3623016640776768]
2	animate/a58.jpg	inanimate	animate	right	1.143	[0.0, 0.0, 0.0, 0.0, 0.0, 0.0, 0.0, 0.0, 0.0, 0.0, 0.0, 0.0, -9.0, -102.0, -171.0, -220.0, -256.0, -273.0, -282.0, -290.0, -293.0, -294.0, -294.0, -294.0, -294.0, -294.0, -294.0, -287.0, -273.0, -268.0, -268.0, -274.0, -298.0, -331.0, -363.0, -400.0, -447.0, -481.0, -500.0, -507.0, -513.0, -523.0, -536.0, -554.0, -575.0, -585.0, -587.0, -584.0, -546.0, -340.0, -162.0, 0.0, 157.0, 289.0, 390.0, 468.0, 525.0, 562.0, 583.0, 601.0, 616.0, 636.0, 671.0, 695.0, 720.0, 743.0, 764.0, 771.0, 771.0]	[-490.0, -490.0, -490.0, -490.0, -490.0, -490.0, -490.0, -490.0, -490.0, -490.0, -490.0, -468.0, -423.0, -214.0, -101.0, -35.0, 12.0, 36.0, 50.0, 60.0, 64.0, 65.0, 65.0, 66.0, 66.0, 66.0, 66.0, 53.0, 37.0, 30.0, 29.0, 31.0, 43.0, 66.0, 94.0, 125.0, 172.0, 210.0, 235.0, 244.0, 254.0, 267.0, 288.0, 319.0, 360.0, 385.0, 390.0, 393.0, 397.0, 403.0, 403.0, 403.0, 403.0, 403.0, 403.0, 403.0, 403.0, 404.0, 408.0, 410.0, 413.0, 416.0, 427.0, 435.0, 440.0, 444.0, 448.0, 449.0, 449.0]	[0.01633477135328576, 0.021532251354074106, 0.03070046001812443, 0.04793880850775167, 0.06442861340474337, 0.08110342087456957, 0.09763555106474087, 0.11455475306138396, 0.1337950205488596, 0.1478173280484043, 0.1671726247877814, 0.18114714563125744, 0.198550358065404, 0.21467903247685172, 0.23132619194802828, 0.24800714341108687, 0.26429487907444127, 0.2810877878218889, 0.2974038541142363, 0.31421280550421216, 0.3340575740148779, 0.3476368310803082, 0.3668760745495092, 0.38078983809100464, 0.3993699672573712, 0.4143087542615831, 0.4317874013213441, 0.44767407051404007, 0.46460385384853, 0.4807482295727823, 0.49792343145236373, 0.5142944524122868, 0.5311692811083049, 0.5476812726410571, 0.5645479093363974, 0.5810561462130863, 0.5978613429469988, 0.6143258891825099, 0.6312624991987832, 0.6476461494748946, 0.6645899274444673, 0.6807305485126562, 0.6979340810503345, 0.7141487714252435, 0.7310833334049676, 0.7477185462194029, 0.7646213642437942, 0.7807223906565923, 0.7979307018395048, 0.8142976268136408, 0.8312693941115867, 0.8475997964269482, 0.8645814624032937, 0.8820413361245301, 0.8977825973997824, 0.9142990262771491, 0.931221641600132, 0.9473813773365691, 0.9644241419446189, 0.9809856267820578, 0.9978904928138945, 1.0143898550304584, 1.0313367050257511, 1.0476148833404295, 1.0647883785422891, 1.080995900934795, 1.097834548301762, 1.1141212599759456, 1.1311630005657207]
3	animate/a40.jpg	animate	inanimate	left	0.98	[0.0, -1.0, -1.0, -1.0, -1.0, -1.0, -1.0, -1.0, -1.0, -1.0, -1.0, -1.0, -1.0, -10.0, -74.0, -144.0, -207.0, -249.0, -269.0, -277.0, -280.0, -280.0, -280.0, -283.0, -283.0, -283.0, -283.0, -283.0, -283.0, -283.0, -285.0, -290.0, -304.0, -325.0, -344.0, -366.0, -400.0, -438.0, -454.0, -460.0, -485.0, -509.0, -532.0, -556.0, -577.0, -595.0, -616.0, -643.0, -651.0, -671.0, -677.0, -695.0, -710.0, -729.0, -750.0, -768.0, -778.0, -780.0, -780.0]	[-490.0, -490.0, -490.0, -491.0, -491.0, -491.0, -491.0, -491.0, -491.0, -491.0, -489.0, -476.0, -445.0, -372.0, -203.0, -74.0, 25.0, 83.0, 111.0, 123.0, 129.0, 133.0, 137.0, 138.0, 138.0, 138.0, 138.0, 138.0, 138.0, 134.0, 132.0, 132.0, 141.0, 152.0, 167.0, 181.0, 207.0, 233.0, 241.0, 244.0, 255.0, 270.0, 285.0, 303.0, 320.0, 335.0, 346.0, 360.0, 362.0, 369.0, 372.0, 384.0, 394.0, 405.0, 416.0, 424.0, 427.0, 428.0, 428.0]	[0.00297820006380789, 0.008723861130420119, 0.020613860368030146, 0.037755270255729556, 0.05418773117708042, 0.07104993055691011, 0.08732606086414307, 0.10442890011472628, 0.12068830511998385, 0.13777885638410226, 0.1541942506446503, 0.17106156999943778, 0.18728411104530096, 0.20442654492217116, 0.22071189124835655, 0.23782531180768274, 0.2539952875522431, 0.2711445480817929, 0.28752341971267015, 0.3043849364039488, 0.32059484810451977, 0.337760492664529, 0.35396938034682535, 0.37108826226904057, 0.3872633579885587, 0.40445187184377573, 0.4206296982301865, 0.4377502868010197, 0.45397999582928605, 0.47116680300678127, 0.4873094720824156, 0.5044344979978632, 0.5206334870308638, 0.5376888809551019, 0.5539885632751975, 0.5710664851940237, 0.5873378368851263, 0.6044345321133733, 0.6206874517956749, 0.637754109717207, 0.6541421973379329, 0.6711184019804932, 0.6874030656472314, 0.704442758258665, 0.7206308246240951, 0.7376821225625463, 0.7540545088413637, 0.7710119401745033, 0.787686406285502, 0.804292947112117, 0.8208199573273305, 0.8379166525846813, 0.8541241749480832, 0.8710880916041788, 0.8874403392255772, 0.9044158611795865, 0.9209240980853792, 0.9377777641057037, 0.9570661595789716]
4	animate/a4.jpg	inanimate	animate	right	1.181	[0.0, 0.0, 0.0, 0.0, 0.0, 0.0, 0.0, 0.0, 0.0, -1.0, -9.0, -48.0, -133.0, -221.0, -269.0, -289.0, -296.0, -300.0, -301.0, -303.0, -303.0, -304.0, -304.0, -304.0, -310.0, -318.0, -324.0, -329.0, -335.0, -343.0, -350.0, -368.0, -393.0, -423.0, -494.0, -536.0, -569.0, -591.0, -604.0, -613.0, -620.0, -627.0, -637.0, -649.0, -659.0, -673.0, -704.0, -721.0, -728.0, -728.0, -720.0, -649.0, -504.0, -317.0, -98.0, 128.0, 341.0, 514.0, 690.0, 763.0, 802.0, 825.0, 835.0, 838.0, 838.0, 838.0, 838.0, 839.0, 842.0, 844.0, 844.0]	[-490.0, -490.0, -490.0, -490.0, -490.0, -490.0, -490.0, -490.0, -490.0, -481.0, -440.0, -328.0, -165.0, -36.0, 33.0, 69.0, 91.0, 104.0, 111.0, 113.0, 113.0, 113.0, 113.0, 113.0, 101.0, 80.0, 70.0, 65.0, 62.0, 60.0, 61.0, 71.0, 84.0, 96.0, 127.0, 150.0, 163.0, 177.0, 185.0, 192.0, 198.0, 203.0, 210.0, 218.0, 227.0, 238.0, 264.0, 279.0, 286.0, 286.0, 293.0, 318.0, 352.0, 390.0, 424.0, 459.0, 477.0, 485.0, 485.0, 485.0, 485.0, 485.0, 485.0, 485.0, 485.0, 485.0, 485.0, 485.0, 485.0, 485.0, 485.0]	[0.014526729646604508, 0.02246682159602642, 0.030069676373386756, 0.04423807444982231, 0.060545948770595714, 0.07773821728187613, 0.09418125954107381, 0.11123631213558838, 0.12747421316453256, 0.14439307383145206, 0.16055178554961458, 0.17780754205887206, 0.1942014323140029, 0.21120050628087483, 0.2274479646293912, 0.24443372662062757, 0.26055284368339926, 0.2777601308771409, 0.29420214911806397, 0.3111698204302229, 0.3274541427672375, 0.3445016860496253, 0.36056004581041634, 0.3777314930339344, 0.3942103752633557, 0.4112289051990956, 0.427425504924031, 0.4443805468908977, 0.4605252639739774, 0.47776088179671206, 0.4938789748994168, 0.5111470193951391, 0.527454552357085, 0.54450277829892, 0.5605573834327515, 0.5778056306007784, 0.5941677768714726, 0.6112119068275206, 0.6273859785287641, 0.6444103111571167, 0.660565950878663, 0.6777722140832338, 0.6941125150478911, 0.7111136369931046, 0.7274471113050822, 0.7444236572773661, 0.7605523316888139, 0.7776630215812474, 0.7941384904843289, 0.8111385884403717, 0.8274375881010201, 0.8444291527557652, 0.8605981044529472, 0.8777893490041606, 0.8941153139749076, 0.9111768518923782, 0.9274260169186164, 0.9444288455415517, 0.9605564959638286, 0.977737500477815, 0.9941651827539317, 1.0111441180633847, 1.027428781701019, 1.0444435570097994, 1.0605599434056785, 1.07777064392576, 1.0941208435688168, 1.1111110428755637, 1.1274533918476664, 1.1444852337881457, 1.1605367668962572]
5	animate/a3.jpg	inanimate	animate	right	1.244	[0.0, 0.0, 0.0, 0.0, 0.0, 0.0, 0.0, 0.0, 0.0, -1.0, -14.0, -53.0, -109.0, -160.0, -189.0, -204.0, -217.0, -226.0, -232.0, -235.0, -243.0, -243.0, -244.0, -244.0, -245.0, -246.0, -247.0, -254.0, -273.0, -294.0, -330.0, -380.0, -430.0, -485.0, -551.0, -581.0, -603.0, -621.0, -635.0, -649.0, -665.0, -681.0, -691.0, -694.0, -694.0, -695.0, -697.0, -699.0, -702.0, -702.0, -690.0, -649.0, -569.0, -457.0, -322.0, -169.0, 5.0, 170.0, 367.0, 459.0, 524.0, 568.0, 599.0, 623.0, 644.0, 660.0, 673.0, 685.0, 700.0, 727.0, 748.0, 767.0, 775.0, 776.0, 776.0]	[-490.0, -490.0, -490.0, -490.0, -490.0, -490.0, -490.0, -490.0, -490.0, -481.0, -403.0, -273.0, -142.0, -51.0, -10.0, 10.0, 26.0, 39.0, 50.0, 55.0, 60.0, 60.0, 61.0, 60.0, 49.0, 40.0, 40.0, 41.0, 53.0, 72.0, 96.0, 121.0, 149.0, 177.0, 206.0, 220.0, 230.0, 240.0, 252.0, 265.0, 278.0, 292.0, 300.0, 303.0, 303.0, 303.0, 309.0, 316.0, 325.0, 328.0, 335.0, 351.0, 371.0, 387.0, 408.0, 420.0, 433.0, 433.0, 433.0, 433.0, 433.0, 433.0, 433.0, 433.0, 433.0, 434.0, 437.0, 439.0, 442.0, 444.0, 448.0, 451.0, 452.0, 452.0, 452.0]	[0.014033161889528856, 0.021300486143445596, 0.026431064849020913, 0.043273808230878785, 0.05971070649684407, 0.07652784988749772, 0.09272035359754227, 0.11004574203980155, 0.12624507243162952, 0.14328988501802087, 0.15935780212748796, 0.17656338267261162, 0.1930132515844889, 0.2099771682114806, 0.22622394390054978, 0.24320595120661892, 0.25936705226195045, 0.2765569314651657, 0.29293989908182994, 0.3099242957250681, 0.32639293794636615, 0.34324046000256203, 0.3593476304085925, 0.3764897229557391, 0.3926972453482449, 0.4098697165318299, 0.4261745188559871, 0.4432432247849647, 0.4593647312140092, 0.47656177839962766, 0.4929426980088465, 0.509906614664942, 0.5262602276052348, 0.5433214242220856, 0.5594934479449876, 0.5766092578414828, 0.5926898042671382, 0.6099540941067971, 0.6263408163795248, 0.6432368077221327, 0.6594596900977194, 0.6765597986523062, 0.6929560782737099, 0.70995344556286, 0.7260070266784169, 0.7432324045221321, 0.7595006841875147, 0.7765683661273215, 0.7929735203797463, 0.8100343756668735, 0.8262309753627051, 0.8432082039944362, 0.8593430223991163, 0.8765813709178474, 0.8926902480015997, 0.9099149431858677, 0.9262808441417292, 0.9433000567660201, 0.9593700218538288, 0.9765233784273732, 0.9930657486256678, 1.0099569612939376, 1.0262515236099716, 1.0431734563026112, 1.0593919013335835, 1.076575295184739, 1.0929630414757412, 1.109980888752034, 1.126090789824957, 1.1432410744018853, 1.1596199460036587, 1.1765917133016046, 1.1929142649460118, 1.2099396215635352, 1.2262597838707734]
6	animate/a20.jpg	inanimate	animate	right	1.25	[0.0, 0.0, 0.0, 0.0, 0.0, 0.0, 0.0, 0.0, 0.0, 0.0, -2.0, -2.0, -5.0, -15.0, -57.0, -125.0, -191.0, -235.0, -259.0, -284.0, -307.0, -329.0, -333.0, -337.0, -339.0, -342.0, -347.0, -358.0, -371.0, -395.0, -430.0, -478.0, -533.0, -590.0, -642.0, -707.0, -728.0, -742.0, -749.0, -752.0, -754.0, -759.0, -761.0, -766.0, -771.0, -775.0, -781.0, -781.0, -777.0, -744.0, -657.0, -527.0, -381.0, -214.0, -51.0, 82.0, 193.0, 288.0, 368.0, 459.0, 504.0, 530.0, 545.0, 557.0, 568.0, 579.0, 591.0, 611.0, 634.0, 660.0, 683.0, 711.0, 715.0, 715.0, 715.0]	[-490.0, -490.0, -490.0, -490.0, -490.0, -490.0, -490.0, -490.0, -490.0, -490.0, -477.0, -462.0, -440.0, -398.0, -296.0, -171.0, -66.0, -8.0, 28.0, 55.0, 77.0, 95.0, 97.0, 99.0, 100.0, 102.0, 104.0, 111.0, 118.0, 133.0, 156.0, 181.0, 209.0, 238.0, 260.0, 287.0, 297.0, 303.0, 307.0, 308.0, 310.0, 314.0, 316.0, 320.0, 326.0, 333.0, 350.0, 361.0, 376.0, 391.0, 418.0, 440.0, 461.0, 481.0, 494.0, 498.0, 498.0, 498.0, 494.0, 481.0, 474.0, 473.0, 473.0, 473.0, 473.0, 473.0, 473.0, 473.0, 474.0, 474.0, 474.0, 474.0, 474.0, 474.0, 474.0]	[0.003226007946068421, 0.007893738889833912, 0.021940622362308204, 0.03845090724644251, 0.05546875452273525, 0.07160152494907379, 0.08891360141569749, 0.10518085706280544, 0.12217378703644499, 0.1382932454580441, 0.15544079933897592, 0.17160872707609087, 0.1887644729577005, 0.20519352052360773, 0.22227212513098493, 0.23844824483967386, 0.255456876126118, 0.2715913532010745, 0.2888030777394306, 0.305166589358123, 0.32219399395398796, 0.33844657230656594, 0.3554579342599027, 0.3716152806591708, 0.3887314318853896, 0.40522499146754853, 0.4223053027235437, 0.43846503843087703, 0.45546206439030357, 0.4716057574551087, 0.48883557264343835, 0.5049335270596202, 0.5222363875363953, 0.5384435685700737, 0.5555262691632379, 0.5715709756186698, 0.5886731322098058, 0.6051438224385493, 0.6221497230581008, 0.6384825146815274, 0.6554621326795314, 0.6716887696820777, 0.6888042382488493, 0.7051650192297529, 0.7221398585243151, 0.7384750394849107, 0.7554744547815062, 0.7715659238747321, 0.7888346510590054, 0.8048752614995465, 0.8221829006506596, 0.8385064762842376, 0.8554389902856201, 0.8715519633551594, 0.8888196665211581, 0.9051688421459403, 0.9221904441074003, 0.9384580411133356, 0.9554393657308538, 0.9715417574916501, 0.9887886393407825, 1.0052784442377742, 1.0221546382526867, 1.03844817657955, 1.0554796771903057, 1.0715533969632816, 1.0888146147772204, 1.1051555984304287, 1.1221242937317584, 1.1384485520538874, 1.155498825974064, 1.1715500177524518, 1.188793144945521, 1.2051764538919087, 1.2221485625195783]
7	inanimate/n1.jpg	animate	inanimate	right	1.129	[0.0, 0.0, 0.0, 0.0, 0.0, 0.0, 0.0, 0.0, 0.0, 6.0, 12.0, 12.0, -24.0, -78.0, -129.0, -137.0, -143.0, -143.0, -145.0, -149.0, -151.0, -151.0, -154.0, -155.0, -159.0, -166.0, -174.0, -185.0, -203.0, -231.0, -267.0, -306.0, -343.0, -372.0, -395.0, -413.0, -431.0, -454.0, -482.0, -513.0, -535.0, -551.0, -565.0, -580.0, -592.0, -598.0, -602.0, -602.0, -602.0, -585.0, -457.0, -308.0, -128.0, 81.0, 286.0, 451.0, 570.0, 659.0, 708.0, 736.0, 755.0, 773.0, 795.0, 824.0, 841.0, 852.0, 852.0, 852.0]	[-490.0, -490.0, -490.0, -490.0, -490.0, -490.0, -490.0, -490.0, -488.0, -470.0, -434.0, -356.0, -247.0, -128.0, -30.0, -3.0, 16.0, 28.0, 37.0, 42.0, 43.0, 43.0, 42.0, 36.0, 28.0, 18.0, 17.0, 22.0, 36.0, 56.0, 79.0, 101.0, 122.0, 138.0, 151.0, 163.0, 176.0, 191.0, 210.0, 232.0, 244.0, 253.0, 261.0, 270.0, 276.0, 281.0, 284.0, 285.0, 287.0, 297.0, 322.0, 343.0, 365.0, 372.0, 379.0, 379.0, 379.0, 379.0, 379.0, 379.0, 379.0, 379.0, 379.0, 383.0, 386.0, 388.0, 388.0, 388.0]	[0.0017555446829646826, 0.007773589604767039, 0.018779535981593654, 0.03511710627935827, 0.052421673404751346, 0.06869609709247015, 0.0857136030390393, 0.10204537067329511, 0.11901747933006845, 0.13513284173677675, 0.1523967902176082, 0.16870739520527422, 0.1857720051484648, 0.20190682355314493, 0.21894480948685668, 0.23530661445693113, 0.2523736137081869, 0.26877501330454834, 0.28589423655648716, 0.301871359028155, 0.319033931591548, 0.3351144780172035, 0.352347706531873, 0.3687112181505654, 0.3856826441187877, 0.4020830197259784, 0.4190885790158063, 0.43529268805286847, 0.45239655129262246, 0.4687723508977797, 0.4857123742403928, 0.5018127179937437, 0.519015567842871, 0.5351500449178275, 0.5523948787595145, 0.5687798943836242, 0.5857274270383641, 0.6019243680639192, 0.619045297964476, 0.6351589537225664, 0.6523290355980862, 0.6687792458396871, 0.6857172211748548, 0.7021489994367585, 0.7190439667610917, 0.7351115425408352, 0.7523058590886649, 0.7687850826478098, 0.7857885939301923, 0.8018496843869798, 0.8190354675753042, 0.8351194273564033, 0.8523086238710675, 0.8687103647971526, 0.8858582600369118, 0.9019862517598085, 0.9189911283901893, 0.935131066798931, 0.9523400606703945, 0.9686868469580077, 0.985718688898487, 1.002026904548984, 1.0190764958097134, 1.0352352075569797, 1.0523247348028235, 1.0686595744336955, 1.085796888335608, 1.102080186654348]
8	animate/a64.jpg	inanimate	animate	right	1.045	[0.0, 0.0, 0.0, 0.0, 0.0, 0.0, 0.0, -4.0, -8.0, -19.0, -37.0, -84.0, -103.0, -167.0, -199.0, -210.0, -217.0, -220.0, -220.0, -220.0, -218.0, -218.0, -218.0, -218.0, -218.0, -218.0, -225.0, -232.0, -240.0, -255.0, -275.0, -315.0, -383.0, -443.0, -477.0, -496.0, -510.0, -515.0, -521.0, -526.0, -534.0, -536.0, -536.0, -533.0, -515.0, -455.0, -353.0, -154.0, -80.0, 154.0, 291.0, 423.0, 530.0, 609.0, 664.0, 703.0, 726.0, 739.0, 749.0, 754.0, 758.0, 760.0, 760.0]	[-490.0, -490.0, -490.0, -490.0, -490.0, -490.0, -490.0, -480.0, -462.0, -424.0, -369.0, -260.0, -218.0, -98.0, -45.0, -26.0, -12.0, -3.0, 1.0, 4.0, 5.0, 5.0, 5.0, 5.0, 0.0, -14.0, -18.0, -19.0, -18.0, -6.0, 14.0, 58.0, 116.0, 160.0, 187.0, 203.0, 219.0, 227.0, 235.0, 242.0, 251.0, 256.0, 257.0, 262.0, 269.0, 290.0, 317.0, 344.0, 355.0, 387.0, 404.0, 414.0, 422.0, 425.0, 433.0, 440.0, 443.0, 448.0, 451.0, 453.0, 454.0, 454.0, 454.0]	[0.014600116235669702, 0.020020486816065386, 0.027518893621163443, 0.044394063676008955, 0.06142146827187389, 0.07774572659400292, 0.0946662939095404, 0.11071714435820468, 0.12799815952894278, 0.1443114951835014, 0.16137712908675894, 0.17764131276635453, 0.1946830533852335, 0.2107448265014682, 0.22780465774121694, 0.24445420657866634, 0.26144167518941686, 0.27768537888186984, 0.29467967417440377, 0.31088036988512613, 0.3279821851174347, 0.34432965409359895, 0.36140586936380714, 0.3774140531604644, 0.3946998469764367, 0.41074284675414674, 0.4279446726141032, 0.44436552820843644, 0.4613936154928524, 0.4776813511562068, 0.4946708677744027, 0.5108097821939737, 0.5279375387472101, 0.5442665757145733, 0.5613025136699434, 0.577521641360363, 0.5946398405940272, 0.6109016349364538, 0.6280389488383662, 0.6444799430901185, 0.6612868464726489, 0.6776428487792145, 0.6946323653974105, 0.7107415838108864, 0.727895623043878, 0.7443502706300933, 0.7613534405827522, 0.7776285469008144, 0.7946887194993906, 0.8107190899609122, 0.8279400304891169, 0.8441649608430453, 0.861281112069264, 0.8774015945091378, 0.8945723590441048, 0.9107378974149469, 0.9278987633006182, 0.9440782963647507, 0.9613203995395452, 0.9776804978318978, 0.9947498864203226, 1.010723254235927, 1.027849645470269]
9	inanimate/n9.jpg	animate	inanimate	left	0.866	[0.0, 0.0, 0.0, 0.0, 0.0, -2.0, -4.0, -8.0, -20.0, -28.0, -51.0, -73.0, -97.0, -118.0, -133.0, -151.0, -169.0, -181.0, -190.0, -197.0, -207.0, -210.0, -225.0, -238.0, -252.0, -274.0, -309.0, -354.0, -390.0, -423.0, -444.0, -466.0, -492.0, -519.0, -563.0, -589.0, -617.0, -637.0, -656.0, -684.0, -706.0, -725.0, -740.0, -748.0, -754.0, -763.0, -778.0, -791.0, -800.0, -806.0, -807.0, -807.0]	[-490.0, -490.0, -490.0, -490.0, -490.0, -486.0, -479.0, -467.0, -440.0, -427.0, -371.0, -325.0, -278.0, -234.0, -194.0, -149.0, -108.0, -81.0, -60.0, -44.0, -23.0, -18.0, 3.0, 19.0, 37.0, 60.0, 88.0, 123.0, 149.0, 173.0, 187.0, 203.0, 218.0, 234.0, 252.0, 264.0, 277.0, 289.0, 302.0, 318.0, 333.0, 346.0, 357.0, 363.0, 367.0, 373.0, 381.0, 387.0, 394.0, 398.0, 399.0, 399.0]	[0.015320670558139682, 0.022509829548653215, 0.030543105443939567, 0.04594747087685391, 0.06216728125582449, 0.07944897905690596, 0.09576777604524978, 0.11280712732695974, 0.1290467350045219, 0.14607960096327588, 0.16217926205717959, 0.17938689058064483, 0.19580126082291827, 0.21280613745329902, 0.229074075788958, 0.24602741110720672, 0.2623383574245963, 0.27947328198933974, 0.29578081498038955, 0.3127655529533513, 0.3291099499037955, 0.3460636265517678, 0.36236740488675423, 0.37954226543661207, 0.39582727040397003, 0.41280347504653037, 0.4291656213463284, 0.44611486067879014, 0.4622012097679544, 0.4794487742765341, 0.495513619389385, 0.5128099945141003, 0.5290697408781853, 0.546067449497059, 0.5621862252301071, 0.5794201364042237, 0.5956269761081785, 0.612873857957311, 0.6290687510045245, 0.6460944489517715, 0.6621866007044446, 0.6793877439049538, 0.695732823543949, 0.7128185961046256, 0.7291090624348726, 0.7460883390740491, 0.7621763948409352, 0.7793908500461839, 0.7957581163209397, 0.8127971262729261, 0.8288251073972788, 0.8460767678916454]
10	animate/a6.jpg	inanimate	animate	right	0.996	[0.0, 0.0, 0.0, 0.0, 0.0, 0.0, 0.0, 0.0, 1.0, 1.0, 1.0, -20.0, -48.0, -79.0, -109.0, -134.0, -150.0, -163.0, -172.0, -184.0, -188.0, -195.0, -196.0, -200.0, -207.0, -232.0, -294.0, -394.0, -483.0, -570.0, -639.0, -683.0, -717.0, -753.0, -767.0, -770.0, -770.0, -770.0, -770.0, -773.0, -775.0, -777.0, -778.0, -778.0, -700.0, -567.0, -396.0, -222.0, -54.0, 116.0, 265.0, 376.0, 465.0, 517.0, 561.0, 599.0, 643.0, 689.0, 705.0, 707.0]	[-490.0, -490.0, -490.0, -490.0, -490.0, -490.0, -490.0, -490.0, -482.0, -445.0, -389.0, -303.0, -208.0, -102.0, 6.0, 90.0, 147.0, 193.0, 223.0, 250.0, 256.0, 263.0, 264.0, 266.0, 266.0, 267.0, 267.0, 277.0, 277.0, 278.0, 290.0, 298.0, 302.0, 310.0, 315.0, 316.0, 316.0, 316.0, 316.0, 318.0, 322.0, 326.0, 327.0, 329.0, 357.0, 392.0, 432.0, 467.0, 491.0, 515.0, 522.0, 522.0, 522.0, 522.0, 522.0, 522.0, 522.0, 522.0, 522.0, 522.0]	[0.001472579489927739, 0.007269099180120975, 0.018223504244815558, 0.034654941176995635, 0.05190489499364048, 0.06800216675037518, 0.08515722997253761, 0.10128078437992372, 0.118535858229734, 0.13466521530062892, 0.15185509450384416, 0.16793188627343625, 0.18528936002985574, 0.20157914370065555, 0.21854408434592187, 0.2346515961107798, 0.25186605128692463, 0.26822546691983007, 0.28527437552111223, 0.3015412898384966, 0.31851237450609915, 0.3347018062195275, 0.3517978187883273, 0.3681934157211799, 0.3852494923339691, 0.4015590733033605, 0.4185274272749666, 0.43482437895727344, 0.45183437556261197, 0.46822485252050683, 0.4852413344779052, 0.5015662754303776, 0.5185417974134907, 0.5346633038134314, 0.5518398710410111, 0.5682098679826595, 0.5852355659299064, 0.6015762082242873, 0.6185131595702842, 0.6346377379668411, 0.6518207905173767, 0.6682010274671484, 0.6851700640982017, 0.7015031970804557, 0.7184968097135425, 0.7346544974425342, 0.7518064886389766, 0.7681986722454894, 0.785254407528555, 0.8015752524952404, 0.818552822485799, 0.83461118224659, 0.8518266614410095, 0.8682171383698005, 0.8852285003231373, 0.9015414946479723, 0.918548760615522, 0.9346006350533571, 0.9518120182328857, 0.9682253645150922]
11	inanimate/n14.jpg	animate	inanimate	right	1.16	[0.0, 0.0, 0.0, 0.0, 0.0, -1.0, -2.0, -3.0, -3.0, -3.0, -17.0, -50.0, -102.0, -155.0, -200.0, -231.0, -253.0, -267.0, -276.0, -282.0, -288.0, -293.0, -299.0, -300.0, -300.0, -300.0, -300.0, -300.0, -306.0, -310.0, -311.0, -311.0, -320.0, -327.0, -352.0, -365.0, -367.0, -368.0, -368.0, -368.0, -368.0, -346.0, -276.0, -157.0, -9.0, 169.0, 381.0, 489.0, 565.0, 609.0, 626.0, 637.0, 642.0, 648.0, 652.0, 658.0, 665.0, 672.0, 680.0, 688.0, 704.0, 727.0, 759.0, 790.0, 815.0, 832.0, 837.0, 837.0, 837.0]	[-490.0, -490.0, -490.0, -490.0, -490.0, -487.0, -482.0, -476.0, -467.0, -432.0, -352.0, -236.0, -113.0, -12.0, 51.0, 89.0, 111.0, 126.0, 134.0, 139.0, 144.0, 146.0, 148.0, 148.0, 148.0, 148.0, 148.0, 148.0, 149.0, 149.0, 149.0, 149.0, 152.0, 153.0, 160.0, 164.0, 165.0, 165.0, 165.0, 165.0, 166.0, 175.0, 195.0, 228.0, 271.0, 315.0, 368.0, 382.0, 391.0, 391.0, 391.0, 391.0, 391.0, 389.0, 389.0, 389.0, 389.0, 389.0, 389.0, 390.0, 395.0, 402.0, 412.0, 426.0, 436.0, 443.0, 446.0, 446.0, 446.0]	[0.008359180792467669, 0.018944946030387655, 0.03165551018901169, 0.048909218690823764, 0.06515565302106552, 0.08220797497779131, 0.0983332360337954, 0.11560128052951768, 0.13181801891187206, 0.14881060752668418, 0.16500413525500335, 0.18217831311631016, 0.19864490735926665, 0.21574365059495904, 0.23170711976126768, 0.24892976693809032, 0.2651983879331965, 0.2822513925493695, 0.2985439068870619, 0.31556687416741624, 0.33189591113477945, 0.348899422417162, 0.3649949875252787, 0.3821449307433795, 0.3985695409937762, 0.41567681755986996, 0.43195158257731237, 0.44886941922595724, 0.4649970696482342, 0.48223678348585963, 0.49858834844781086, 0.515628382388968, 0.531923627393553, 0.548980045306962, 0.5650291891070083, 0.5822132656467147, 0.5985382065991871, 0.6156577711808495, 0.6318973788584117, 0.648880068823928, 0.6649810952658299, 0.6822208091034554, 0.6985679367207922, 0.715588173334254, 0.7319305223063566, 0.7489115056232549, 0.7652419079095125, 0.7822645338892471, 0.7985358855512459, 0.8155455408268608, 0.8319158791273367, 0.8488879877550062, 0.8653637979878113, 0.882250232010847, 0.8985475249937735, 0.9155749296187423, 0.9316838067024946, 0.9488897285773419, 0.9652313948608935, 0.9822547034709714, 0.9986752177355811, 1.0157316356780939, 1.031683499517385, 1.0488976133638062, 1.065191493020393, 1.0822072923183441, 1.0982956894149538, 1.1157040218240581, 1.1319098375097383]
12	animate/a70.jpg	inanimate	animate	right	1.218	[0.0, 0.0, 0.0, 0.0, 0.0, 0.0, 0.0, 0.0, 0.0, 0.0, -30.0, -83.0, -148.0, -213.0, -266.0, -304.0, -324.0, -334.0, -339.0, -343.0, -345.0, -351.0, -353.0, -354.0, -356.0, -357.0, -357.0, -358.0, -363.0, -366.0, -369.0, -371.0, -376.0, -383.0, -394.0, -405.0, -417.0, -432.0, -453.0, -478.0, -521.0, -563.0, -597.0, -613.0, -625.0, -630.0, -634.0, -635.0, -635.0, -612.0, -543.0, -432.0, -281.0, -114.0, 54.0, 210.0, 335.0, 486.0, 549.0, 587.0, 615.0, 638.0, 656.0, 670.0, 680.0, 689.0, 700.0, 720.0, 753.0, 808.0, 826.0, 832.0, 832.0]	[-490.0, -490.0, -490.0, -490.0, -490.0, -490.0, -490.0, -474.0, -462.0, -392.0, -289.0, -175.0, -63.0, 24.0, 78.0, 109.0, 122.0, 130.0, 134.0, 136.0, 137.0, 140.0, 140.0, 141.0, 141.0, 141.0, 141.0, 141.0, 142.0, 143.0, 144.0, 144.0, 144.0, 145.0, 148.0, 149.0, 152.0, 155.0, 160.0, 173.0, 199.0, 228.0, 255.0, 274.0, 291.0, 302.0, 317.0, 323.0, 327.0, 335.0, 338.0, 338.0, 338.0, 338.0, 338.0, 338.0, 338.0, 338.0, 338.0, 338.0, 338.0, 338.0, 338.0, 341.0, 342.0, 344.0, 346.0, 348.0, 354.0, 370.0, 380.0, 386.0, 386.0]	[0.01589547557523474, 0.021503920695977286, 0.039806204673368484, 0.04673629178432748, 0.06384425103897229, 0.08021629598806612, 0.0972703245934099, 0.11351778291282244, 0.1305274382175412, 0.1465830673405435, 0.16383950650924817, 0.18033170071430504, 0.19727206538664177, 0.2132901478325948, 0.23043804307235405, 0.24695242394227535, 0.26386445795651525, 0.2799166737240739, 0.2972311395278666, 0.3134983952040784, 0.33051146383513696, 0.34662648491212167, 0.3638201187714003, 0.3799248998693656, 0.39729193097446114, 0.4135329040000215, 0.43053914594929665, 0.44663300437969156, 0.4637948942545336, 0.48021336051169783, 0.49719263715087436, 0.5135209914587904, 0.5305685347411782, 0.5466043665073812, 0.563772741734283, 0.5799922107544262, 0.5973343245568685, 0.6132421563961543, 0.6304613902466372, 0.6466067899891641, 0.6638523064902984, 0.6799048636166845, 0.6971619854448363, 0.7134579130797647, 0.7304194403986912, 0.7468024080153555, 0.7638315192889422, 0.7798956817423459, 0.7973630648048129, 0.813569563179044, 0.8305065144959372, 0.8465969595999923, 0.8638066361017991, 0.879952035844326, 0.8972040376684163, 0.9134825573419221, 0.930521908623632, 0.9465905083925463, 0.9637698062579148, 0.9801968058454804, 0.9972423011204228, 1.0135399354621768, 1.030459820118267, 1.0469127610267606, 1.0638070457207505, 1.0800282214186154, 1.0971713379549328, 1.1134597562777344, 1.1304943289142102, 1.1466025233094115, 1.1636992185667623, 1.1801634234725498, 1.197205846750876]
13	animate/a16.jpg	inanimate	animate	right	0.966	[0.0, 0.0, 0.0, 0.0, 0.0, 0.0, 0.0, 0.0, -7.0, -40.0, -101.0, -160.0, -214.0, -254.0, -286.0, -307.0, -323.0, -325.0, -325.0, -325.0, -325.0, -325.0, -325.0, -326.0, -329.0, -338.0, -349.0, -357.0, -363.0, -364.0, -367.0, -375.0, -383.0, -397.0, -412.0, -428.0, -449.0, -457.0, -459.0, -459.0, -460.0, -460.0, -435.0, -355.0, -226.0, -71.0, 88.0, 226.0, 351.0, 465.0, 554.0, 622.0, 688.0, 718.0, 748.0, 774.0, 798.0, 806.0]	[-490.0, -490.0, -490.0, -490.0, -490.0, -490.0, -483.0, -449.0, -377.0, -253.0, -106.0, 11.0, 110.0, 179.0, 226.0, 250.0, 265.0, 268.0, 268.0, 268.0, 268.0, 268.0, 268.0, 268.0, 269.0, 272.0, 273.0, 274.0, 274.0, 274.0, 274.0, 276.0, 277.0, 279.0, 282.0, 284.0, 287.0, 289.0, 289.0, 289.0, 290.0, 294.0, 305.0, 323.0, 340.0, 368.0, 389.0, 408.0, 412.0, 412.0, 412.0, 412.0, 412.0, 415.0, 418.0, 422.0, 424.0, 427.0]	[0.01646311263903044, 0.023344730434473604, 0.030953046545619145, 0.04809821108938195, 0.06421084285830148, 0.08130480741965584, 0.09776355099165812, 0.11478447029367089, 0.13123775253188796, 0.14811189856845886, 0.16425115428864956, 0.18141270283376798, 0.19778031046735123, 0.21481863773078658, 0.23124870931496844, 0.24808701538131572, 0.26431945504737087, 0.2814676916168537, 0.2977871712646447, 0.3149057118280325, 0.3311661408224609, 0.3481710174528416, 0.36427921187714674, 0.38145543774589896, 0.3978366987139452, 0.414856935327407, 0.4311559349880554, 0.44809732362045906, 0.464278222003486, 0.48143874655943364, 0.49756264229654334, 0.5149778013874311, 0.5309317132341675, 0.54812227509683, 0.5642106721934397, 0.5814254686993081, 0.5977862496511079, 0.6147945396078285, 0.6309703180158976, 0.6481530292076059, 0.6641963703150395, 0.6814036575087812, 0.6978740064078011, 0.7148703497077804, 0.731252975994721, 0.7481080073630437, 0.7644769803155214, 0.7813948169932701, 0.7977767605916597, 0.8147751518990844, 0.8311642635089811, 0.8480841481650714, 0.8642548065690789, 0.8813968991162255, 0.897798298712587, 0.9148243379895575, 0.931346569530433, 0.9481036383076571]
14	animate/a61.jpg	inanimate	animate	right	1.399	[0.0, 0.0, 0.0, 0.0, 0.0, 0.0, 0.0, 1.0, 9.0, 24.0, 43.0, 62.0, 64.0, 61.0, 42.0, -8.0, -42.0, -72.0, -97.0, -122.0, -142.0, -151.0, -157.0, -164.0, -169.0, -174.0, -178.0, -179.0, -179.0, -180.0, -182.0, -199.0, -219.0, -236.0, -250.0, -263.0, -274.0, -291.0, -306.0, -320.0, -323.0, -326.0, -327.0, -328.0, -328.0, -329.0, -328.0, -310.0, -284.0, -232.0, -123.0, 78.0, 219.0, 348.0, 457.0, 548.0, 625.0, 685.0, 734.0, 770.0, 808.0, 841.0, 863.0, 875.0, 876.0, 876.0, 876.0, 876.0, 876.0, 876.0, 876.0, 876.0, 877.0, 876.0, 869.0, 860.0, 851.0, 838.0, 829.0, 817.0, 815.0, 815.0, 815.0, 815.0]	[-490.0, -490.0, -490.0, -490.0, -490.0, -490.0, -489.0, -485.0, -473.0, -453.0, -420.0, -370.0, -282.0, -246.0, -190.0, -105.0, -65.0, -36.0, -16.0, 2.0, 17.0, 22.0, 26.0, 29.0, 30.0, 31.0, 31.0, 32.0, 32.0, 32.0, 33.0, 38.0, 47.0, 54.0, 61.0, 66.0, 70.0, 79.0, 85.0, 91.0, 94.0, 95.0, 96.0, 97.0, 97.0, 98.0, 101.0, 108.0, 116.0, 131.0, 147.0, 174.0, 195.0, 214.0, 229.0, 239.0, 240.0, 240.0, 240.0, 240.0, 240.0, 240.0, 242.0, 244.0, 244.0, 244.0, 244.0, 244.0, 244.0, 244.0, 244.0, 244.0, 245.0, 248.0, 257.0, 274.0, 293.0, 325.0, 365.0, 406.0, 437.0, 464.0, 477.0, 478.0]	[0.003451629134360701, 0.00825623466516845, 0.022227683512028307, 0.0386850617651362, 0.05575752235017717, 0.0719247673987411, 0.08913137193303555, 0.10528223298024386, 0.12239189891261049, 0.138550610630773, 0.15574083116371185, 0.1734130140976049, 0.18893650482641533, 0.20546761102741584, 0.22238681302405894, 0.23888480992172845, 0.2557138999691233, 0.27213782756007276, 0.2891328055411577, 0.30513074932969175, 0.3222922978748102, 0.33848548427340575, 0.35562109149759635, 0.3717941392096691, 0.389096317026997, 0.4052666340721771, 0.4223517240025103, 0.43878179558669217, 0.4557525388954673, 0.47178632268332876, 0.4891909004363697, 0.5054151481308509, 0.5223910114436876, 0.5384415205626283, 0.5557269730197731, 0.5720413326926064, 0.5890789772965945, 0.6051042277540546, 0.6223729549092241, 0.6386064185935538, 0.6557369058427867, 0.6721055374364369, 0.6891472780553158, 0.7053462670883164, 0.7223559223930351, 0.738482890126761, 0.7556673079961911, 0.7720577849249821, 0.7890490082500037, 0.8053773625579197, 0.8223829218477476, 0.8385972708638292, 0.855727758113062, 0.8720567950804252, 0.8890777143533342, 0.9053429220221005, 0.9223805666260887, 0.9386570382921491, 0.9557291575765703, 0.9720298638858367, 0.989095497818198, 1.0053528548160102, 1.0223505634639878, 1.0387253390799742, 1.0557865356677212, 1.0719742607034277, 1.089119766606018, 1.1054419769207016, 1.1224055522179697, 1.1385471973044332, 1.1556855351955164, 1.1719418682041578, 1.1889962381392252, 1.2053628217545338, 1.2223861303646117, 1.2384793061355595, 1.2557620279549155, 1.27201119295205, 1.2891014028864447, 1.305488466488896, 1.3223138018802274, 1.3384673935943283, 1.3557316834339872, 1.3720515044115018]
15	animate/a46.jpg	inanimate	animate	right	0.999	[0.0, 0.0, 0.0, 0.0, 0.0, 0.0, 0.0, -2.0, -3.0, -3.0, -3.0, -2.0, -2.0, -15.0, -55.0, -97.0, -142.0, -194.0, -224.0, -251.0, -280.0, -313.0, -341.0, -357.0, -370.0, -393.0, -424.0, -464.0, -503.0, -565.0, -587.0, -601.0, -613.0, -624.0, -638.0, -647.0, -650.0, -650.0, -650.0, -650.0, -650.0, -630.0, -573.0, -463.0, -319.0, -148.0, 20.0, 193.0, 357.0, 482.0, 566.0, 626.0, 664.0, 703.0, 723.0, 741.0, 761.0, 779.0, 787.0, 787.0]	[-490.0, -490.0, -490.0, -490.0, -490.0, -490.0, -490.0, -485.0, -477.0, -463.0, -443.0, -415.0, -363.0, -261.0, -161.0, -77.0, -21.0, 28.0, 46.0, 58.0, 66.0, 72.0, 76.0, 80.0, 83.0, 93.0, 107.0, 124.0, 135.0, 146.0, 148.0, 151.0, 153.0, 157.0, 160.0, 160.0, 160.0, 160.0, 160.0, 161.0, 170.0, 190.0, 217.0, 259.0, 306.0, 346.0, 374.0, 399.0, 411.0, 417.0, 417.0, 417.0, 417.0, 417.0, 420.0, 424.0, 430.0, 439.0, 441.0, 441.0]	[0.0058296972420066595, 0.011233683821046725, 0.027223776967730373, 0.04352380061754957, 0.060731429141014814, 0.07673039694782346, 0.0939417801273521, 0.11036639040685259, 0.12736000303993933, 0.14347809611354023, 0.16061711666407064, 0.17676592973293737, 0.19399847558815964, 0.21033399787847884, 0.2273771038162522, 0.24375802342547104, 0.26067415345460176, 0.2767328545451164, 0.2940326430252753, 0.31037499199737795, 0.3274361885851249, 0.34340102307032794, 0.3606803315633442, 0.37674073936068453, 0.3939633865375072, 0.41005895161652006, 0.42733791877981275, 0.44366081175394356, 0.4606561310356483, 0.4767489654768724, 0.49394874332938343, 0.5104279668885283, 0.5273966622189619, 0.5437789471470751, 0.5606906398315914, 0.5768087329051923, 0.5939375134767033, 0.610070966562489, 0.6273263817129191, 0.6436407413566485, 0.660649031313369, 0.6767770230653696, 0.6939983049232978, 0.710360451193992, 0.727453733125003, 0.7434093516203575, 0.7606391667795833, 0.7768736544821877, 0.7939802483888343, 0.8103403466811869, 0.8273093833122402, 0.8437377482478041, 0.8606463689357042, 0.8767665099876467, 0.8939051892375574, 0.9103560821386054, 0.9273551561054774, 0.9433957665460184, 0.9606010057323147, 0.9767491361417342]
16	animate/a30.jpg	animate	inanimate	left	1.233	[0.0, 0.0, 0.0, 0.0, 0.0, 0.0, 0.0, 0.0, 3.0, 8.0, 8.0, -4.0, -35.0, -91.0, -156.0, -210.0, -251.0, -273.0, -292.0, -300.0, -304.0, -306.0, -310.0, -319.0, -329.0, -340.0, -352.0, -374.0, -409.0, -442.0, -484.0, -509.0, -528.0, -544.0, -555.0, -556.0, -556.0, -556.0, -556.0, -550.0, -510.0, -417.0, -204.0, -37.0, 136.0, 279.0, 374.0, 419.0, 429.0, 429.0, 429.0, 429.0, 428.0, 408.0, 294.0, 164.0, 16.0, -122.0, -247.0, -355.0, -445.0, -513.0, -559.0, -594.0, -622.0, -660.0, -685.0, -714.0, -754.0, -800.0, -837.0, -858.0, -858.0, -858.0]	[-490.0, -490.0, -490.0, -490.0, -490.0, -490.0, -490.0, -484.0, -468.0, -439.0, -381.0, -295.0, -205.0, -88.0, 9.0, 78.0, 122.0, 143.0, 159.0, 166.0, 169.0, 171.0, 173.0, 174.0, 175.0, 177.0, 180.0, 185.0, 185.0, 185.0, 185.0, 185.0, 183.0, 181.0, 179.0, 178.0, 178.0, 178.0, 178.0, 179.0, 190.0, 206.0, 241.0, 265.0, 289.0, 291.0, 291.0, 291.0, 291.0, 291.0, 291.0, 291.0, 294.0, 299.0, 316.0, 335.0, 356.0, 377.0, 395.0, 409.0, 424.0, 434.0, 440.0, 444.0, 448.0, 450.0, 450.0, 450.0, 450.0, 450.0, 452.0, 454.0, 454.0, 454.0]	[0.015531614451901987, 0.02325120515888557, 0.029345367394853383, 0.04637652664678171, 0.06268167030066252, 0.07966879761079326, 0.09589987195795402, 0.1129508285666816, 0.12938328948803246, 0.14649159007240087, 0.1624291179177817, 0.17972515171277337, 0.1958405141485855, 0.21307374263415113, 0.22937547296169214, 0.24639024824136868, 0.2627616105310153, 0.27972416183911264, 0.29591598288971, 0.3130041448166594, 0.32939291509683244, 0.34638857570826076, 0.36249062613933347, 0.3797368252999149, 0.3961952275421936, 0.41299462161259726, 0.4293874878785573, 0.44636437520966865, 0.46247905495692976, 0.47960647018044256, 0.49592663248768076, 0.5130571197078098, 0.5291011435037944, 0.5465077692642808, 0.5624319851049222, 0.5797488402458839, 0.5958287040120922, 0.6126943167182617, 0.6293960894981865, 0.6463487421278842, 0.6624702485569287, 0.6797454610350542, 0.6958830101066269, 0.7129742440301925, 0.7293831529677846, 0.7463627709366847, 0.7624699413427152, 0.7797519805026241, 0.7958147776080295, 0.812965744844405, 0.8292022805253509, 0.8464331197028514, 0.8627024233574048, 0.8796919400047045, 0.8961953982070554, 0.9130104936193675, 0.9293767359049525, 0.9464300818217453, 0.9624792256217916, 0.9796936807979364, 0.9957902698952239, 1.0130153064092156, 1.0293631167151034, 1.046347171999514, 1.0626656276581343, 1.079582781647332, 1.0961910291516688, 1.113035137852421, 1.1293757801759057, 1.146456774091348, 1.1624338965630159, 1.1796783890749793, 1.195924823434325, 1.2130252733477391]
17	animate/a14.jpg	animate	inanimate	left	0.865	[0.0, 0.0, 0.0, 0.0, 0.0, 0.0, 0.0, -6.0, -12.0, -27.0, -50.0, -84.0, -116.0, -138.0, -159.0, -173.0, -182.0, -193.0, -212.0, -226.0, -236.0, -242.0, -251.0, -268.0, -300.0, -363.0, -455.0, -543.0, -616.0, -662.0, -709.0, -726.0, -741.0, -753.0, -762.0, -770.0, -775.0, -778.0, -778.0, -779.0, -779.0, -782.0, -786.0, -788.0, -788.0, -788.0, -788.0, -788.0, -788.0, -788.0, -788.0, -788.0]	[-490.0, -490.0, -490.0, -490.0, -490.0, -490.0, -490.0, -482.0, -464.0, -413.0, -324.0, -211.0, -108.0, -29.0, 37.0, 86.0, 121.0, 144.0, 170.0, 186.0, 193.0, 197.0, 203.0, 216.0, 236.0, 266.0, 309.0, 343.0, 374.0, 394.0, 419.0, 429.0, 441.0, 448.0, 452.0, 457.0, 458.0, 459.0, 459.0, 459.0, 459.0, 461.0, 462.0, 464.0, 464.0, 464.0, 464.0, 464.0, 464.0, 464.0, 464.0, 464.0]	[0.006249537080293521, 0.012301032664254308, 0.027547702164156362, 0.04445973617839627, 0.06086523178964853, 0.07784996976261027, 0.09391037753084674, 0.11105554207460955, 0.1272118644847069, 0.1445829915755894, 0.16055260473513044, 0.1777411186194513, 0.19414217688608915, 0.21103680290980265, 0.22751875713584013, 0.2444191857939586, 0.26075982811744325, 0.277793035376817, 0.2939046431274619, 0.31110237300163135, 0.3274945566081442, 0.3445956891810056, 0.3605547210026998, 0.3777664455410559, 0.3943238343927078, 0.41115531377727166, 0.42747991340002045, 0.44455578734050505, 0.4605417844722979, 0.47778081565047614, 0.49409961263881996, 0.5110464626341127, 0.5274635635432787, 0.5446814320748672, 0.560544890613528, 0.5777914311329369, 0.5943030813359655, 0.6111379740468692, 0.6274792990006972, 0.644549370277673, 0.6608166259538848, 0.6778088732389733, 0.6939058036659844, 0.7111677041684743, 0.7274991304730065, 0.7445388230844401, 0.760784233425511, 0.7778273393632844, 0.7939338271098677, 0.8110970823327079, 0.8275135005824268, 0.844556606549304]
18	animate/a7.jpg	animate	inanimate	left	2.552	[0.0, 0.0, 0.0, 0.0, 0.0, 0.0, 0.0, 0.0, 0.0, 1.0, 3.0, 3.0, -24.0, -73.0, -134.0, -191.0, -244.0, -277.0, -292.0, -299.0, -300.0, -302.0, -303.0, -303.0, -303.0, -303.0, -303.0, -303.0, -303.0, -307.0, -309.0, -313.0, -324.0, -340.0, -365.0, -404.0, -424.0, -440.0, -448.0, -458.0, -465.0, -474.0, -482.0, -485.0, -485.0, -485.0, -485.0, -485.0, -485.0, -485.0, -489.0, -500.0, -520.0, -547.0, -573.0, -603.0, -626.0, -643.0, -651.0, -655.0, -655.0, -655.0, -655.0, -655.0, -655.0, -655.0, -655.0, -655.0, -656.0, -657.0, -659.0, -664.0, -669.0, -676.0, -686.0, -694.0, -706.0, -720.0, -736.0, -749.0, -758.0, -760.0, -761.0, -761.0, -761.0, -761.0, -761.0, -761.0, -761.0, -761.0, -761.0, -761.0, -761.0, -761.0, -761.0, -761.0, -761.0, -761.0, -761.0, -761.0, -761.0, -761.0, -761.0, -761.0, -761.0, -761.0, -761.0, -761.0, -761.0, -761.0, -761.0, -761.0, -761.0, -761.0, -761.0, -761.0, -761.0, -761.0, -761.0, -761.0, -761.0, -761.0, -761.0, -761.0, -761.0, -761.0, -760.0, -758.0, -756.0, -753.0, -752.0, -752.0, -751.0, -751.0, -750.0, -746.0, -740.0, -737.0, -735.0, -734.0, -734.0, -734.0, -734.0, -734.0, -734.0, -734.0, -734.0, -734.0, -734.0, -734.0, -734.0, -734.0, -734.0]	[-490.0, -490.0, -490.0, -490.0, -490.0, -490.0, -490.0, -490.0, -488.0, -478.0, -449.0, -332.0, -209.0, -62.0, 57.0, 143.0, 208.0, 238.0, 248.0, 253.0, 254.0, 256.0, 256.0, 256.0, 256.0, 256.0, 256.0, 256.0, 256.0, 254.0, 254.0, 256.0, 274.0, 291.0, 310.0, 337.0, 349.0, 356.0, 359.0, 364.0, 366.0, 370.0, 373.0, 374.0, 374.0, 374.0, 374.0, 374.0, 374.0, 374.0, 375.0, 376.0, 376.0, 376.0, 377.0, 382.0, 386.0, 388.0, 391.0, 391.0, 392.0, 392.0, 392.0, 392.0, 392.0, 392.0, 392.0, 392.0, 392.0, 393.0, 394.0, 395.0, 397.0, 399.0, 401.0, 402.0, 403.0, 406.0, 408.0, 408.0, 408.0, 409.0, 409.0, 409.0, 409.0, 409.0, 409.0, 409.0, 409.0, 409.0, 409.0, 409.0, 409.0, 409.0, 409.0, 409.0, 409.0, 409.0, 409.0, 409.0, 409.0, 409.0, 409.0, 409.0, 409.0, 409.0, 409.0, 409.0, 409.0, 409.0, 409.0, 409.0, 409.0, 409.0, 409.0, 409.0, 409.0, 409.0, 409.0, 409.0, 409.0, 409.0, 409.0, 409.0, 409.0, 409.0, 409.0, 409.0, 409.0, 409.0, 407.0, 407.0, 407.0, 407.0, 406.0, 404.0, 404.0, 404.0, 403.0, 403.0, 403.0, 403.0, 403.0, 403.0, 403.0, 403.0, 403.0, 403.0, 403.0, 403.0, 403.0, 403.0, 403.0]	[0.0015708834689576179, 0.007257835241034627, 0.018300986906979233, 0.03467883451958187, 0.05189602039172314, 0.06801582011394203, 0.08518385401112027, 0.10149206966161728, 0.11854678092640825, 0.13485704455524683, 0.15191209717886522, 0.16820324616855942, 0.18525522676645778, 0.2015682210912928, 0.21883763090590946, 0.23471986278309487, 0.2519025739748031, 0.267982779070735, 0.2851064396381844, 0.3013853006414138, 0.3186021451547276, 0.3346369529608637, 0.35186335479374975, 0.36842995963525027, 0.38523993504350074, 0.4013040974678006, 0.4185902326426003, 0.43501859754906036, 0.4518418849329464, 0.46798079935251735, 0.485250209167134, 0.5015683234669268, 0.5186616053979378, 0.5349029197532218, 0.5518671777390409, 0.5679920974653214, 0.5852058699820191, 0.6015799629385583, 0.618567090248689, 0.6346336420101579, 0.6518556065275334, 0.6679822329315357, 0.6852594934171066, 0.7015564450994134, 0.7186084256973118, 0.7347432441019919, 0.7518000033742283, 0.7683806028799154, 0.7852892235387117, 0.8016861858195625, 0.8186856011161581, 0.8346326862811111, 0.8518440694606397, 0.8683451383549254, 0.8852042657381389, 0.9015585613378789, 0.9186610592587385, 0.9348747256153729, 0.9519290955504403, 0.9681260366050992, 0.985222049173899, 1.001339118258329, 1.0185119308007415, 1.0350181196990889, 1.051912404363975, 1.0681796600401867, 1.0852285686414689, 1.1016316749155521, 1.1185676022432745, 1.134996308508562, 1.1518858145282138, 1.167995715601137, 1.1852142667921726, 1.201572999736527, 1.218559103057487, 1.2346369188162498, 1.2518387446762063, 1.2683401549002156, 1.2852177142631263, 1.3015928312088363, 1.3185799584898632, 1.3348909048072528, 1.3518961227673572, 1.3682835277286358, 1.3852791883400641, 1.4014587214041967, 1.418570435314905, 1.4349179042619653, 1.451902642234927, 1.4679664633586071, 1.4851727265340742, 1.501676867424976, 1.518533264141297, 1.5349005304160528, 1.5519347616937011, 1.5683545932988636, 1.585281645966461, 1.6015485602838453, 1.6186210208688863, 1.6348910072119907, 1.651918753166683, 1.667948099639034, 1.685239696118515, 1.7015414264169522, 1.7186999029654544, 1.7348975266795605, 1.7519222006376367, 1.76810275769094, 1.785228466236731, 1.8015530658885837, 1.8186053878162056, 1.8348924408201128, 1.851898682769388, 1.8680188238504343, 1.88523737504147, 1.9012933454941958, 1.9184866380237509, 1.9348924749647267, 1.9519028128997888, 1.9680120313132647, 1.9851530998712406, 2.001282798300963, 2.0186675787263084, 2.034903773077531, 2.0519513163599186, 2.0683465719630476, 2.085214915307006, 2.1015210829791613, 2.118510940927081, 2.1361879025644157, 2.1517980918870308, 2.16820427015773, 2.185260005440796, 2.2015497890824918, 2.218626687012147, 2.234623265481787, 2.2518807286396623, 2.2679742457403336, 2.2851839222712442, 2.3012897273583803, 2.318582347827032, 2.334740718215471, 2.351871888124151, 2.368230962427333, 2.3852354976988863, 2.4014163960819133, 2.4185311819892377, 2.4348564643005375, 2.4519480395538267, 2.4679801166639663, 2.485106849228032, 2.5016150861338247, 2.518638053414179]
19	animate/a11.jpg	inanimate	animate	right	2.353	[0.0, 0.0, 0.0, 0.0, 0.0, 0.0, -2.0, -9.0, -51.0, -112.0, -184.0, -255.0, -316.0, -345.0, -354.0, -356.0, -355.0, -345.0, -340.0, -324.0, -322.0, -312.0, -306.0, -306.0, -307.0, -312.0, -326.0, -340.0, -370.0, -449.0, -501.0, -538.0, -573.0, -600.0, -618.0, -633.0, -645.0, -654.0, -664.0, -673.0, -685.0, -714.0, -733.0, -751.0, -756.0, -758.0, -758.0, -758.0, -758.0, -758.0, -755.0, -709.0, -598.0, -358.0, -188.0, -20.0, 144.0, 288.0, 412.0, 518.0, 588.0, 627.0, 647.0, 657.0, 657.0, 657.0, 657.0, 659.0, 666.0, 683.0, 707.0, 735.0, 755.0, 774.0, 783.0, 787.0, 787.0, 787.0, 787.0, 787.0, 787.0, 787.0, 787.0, 787.0, 787.0, 787.0, 787.0, 787.0, 787.0, 790.0, 793.0, 794.0, 794.0, 794.0, 794.0, 794.0, 794.0, 794.0, 794.0, 794.0, 794.0, 794.0, 794.0, 794.0, 794.0, 794.0, 794.0, 794.0, 794.0, 794.0, 794.0, 794.0, 794.0, 794.0, 794.0, 794.0, 794.0, 794.0, 794.0, 794.0, 794.0, 794.0, 794.0, 794.0, 794.0, 794.0, 794.0, 794.0, 794.0, 794.0, 794.0, 794.0, 794.0, 794.0, 794.0, 794.0, 794.0, 794.0, 794.0, 794.0, 794.0]	[-490.0, -490.0, -490.0, -490.0, -490.0, -490.0, -489.0, -466.0, -366.0, -221.0, -98.0, 17.0, 104.0, 152.0, 169.0, 177.0, 180.0, 183.0, 183.0, 172.0, 166.0, 152.0, 135.0, 123.0, 122.0, 127.0, 137.0, 158.0, 194.0, 263.0, 300.0, 321.0, 337.0, 349.0, 357.0, 361.0, 366.0, 370.0, 373.0, 378.0, 386.0, 402.0, 413.0, 423.0, 428.0, 428.0, 429.0, 429.0, 429.0, 429.0, 429.0, 429.0, 429.0, 429.0, 429.0, 429.0, 429.0, 424.0, 412.0, 398.0, 389.0, 385.0, 385.0, 385.0, 385.0, 385.0, 385.0, 385.0, 384.0, 384.0, 384.0, 388.0, 396.0, 405.0, 410.0, 413.0, 413.0, 413.0, 413.0, 413.0, 413.0, 413.0, 413.0, 413.0, 413.0, 413.0, 413.0, 413.0, 413.0, 422.0, 428.0, 434.0, 435.0, 437.0, 441.0, 441.0, 442.0, 442.0, 442.0, 442.0, 442.0, 442.0, 442.0, 442.0, 442.0, 442.0, 442.0, 442.0, 442.0, 442.0, 442.0, 442.0, 442.0, 442.0, 442.0, 442.0, 442.0, 442.0, 442.0, 442.0, 442.0, 442.0, 442.0, 442.0, 442.0, 442.0, 442.0, 442.0, 442.0, 442.0, 442.0, 442.0, 442.0, 442.0, 442.0, 442.0, 442.0, 442.0, 442.0, 442.0, 442.0]	[0.000402841396862641, 0.006117441138485447, 0.01702235289849341, 0.033577352412976325, 0.050559018389321864, 0.06711572458152659, 0.08391033997759223, 0.10031208090367727, 0.1172555175726302, 0.13331763201858848, 0.15053106320556253, 0.16666178559535183, 0.18388375011272728, 0.20026603506994434, 0.2172739836969413, 0.23353168202447705, 0.25063998260884546, 0.2666584064136259, 0.2838923175877426, 0.3000916479504667, 0.31729620447731577, 0.3333013162773568, 0.35049017149140127, 0.3666983765142504, 0.383827498415485, 0.40024425799492747, 0.41727302796789445, 0.43359148359741084, 0.4505820242338814, 0.4666973866405897, 0.48392310584313236, 0.5000637269113213, 0.5173030994192231, 0.5334307498123962, 0.5505045757454354, 0.5666571434703656, 0.5838343933573924, 0.5999808170890901, 0.6172280402388424, 0.6336837118142284, 0.6505841405014507, 0.666980078764027, 0.6838491047965363, 0.7002095444186125, 0.7172127144003753, 0.7335478953609709, 0.7506090919487178, 0.7666626730642747, 0.7838054482999723, 0.8002648745314218, 0.817279991140822, 0.83332776959287, 0.8505603154480923, 0.8666722645284608, 0.8838628263911232, 0.900080930092372, 0.9173397585982457, 0.9333090303989593, 0.9505569362372626, 0.9666702506656293, 0.9838877778383903, 1.000212377490243, 1.0172954194131307, 1.0335548244183883, 1.0505849597102497, 1.0666416128224228, 1.0837680040567648, 1.1002257236104924, 1.1173586001677904, 1.1333012480172329, 1.1505474471778143, 1.1667870548844803, 1.1838615634769667, 1.2002578430692665, 1.217283882346237, 1.2335825406771619, 1.2506174546142574, 1.2669311315985397, 1.2839264509093482, 1.3002585598733276, 1.3172559271624777, 1.3336061268055346, 1.3505591207940597, 1.3666666325298138, 1.3839445756748319, 1.4002640553226229, 1.417329006595537, 1.4335723689582665, 1.4505789522372652, 1.467064661119366, 1.4839306151552591, 1.500338841433404, 1.5174235900049098, 1.5333368832070846, 1.550583082367666, 1.5667028821189888, 1.5839521532761864, 1.6001600169984158, 1.6172939175448846, 1.6335505918832496, 1.6505977938359138, 1.6666619562602136, 1.6838719741208479, 1.7002344617503695, 1.7173192103218753, 1.7336465406406205, 1.7506049959629308, 1.7669760169228539, 1.783877469599247, 1.8002167465456296, 1.8172461991780438, 1.83343733754009, 1.8505627047852613, 1.866682504536584, 1.8838850130559877, 1.9001887913618702, 1.917309721262427, 1.9335459156136494, 1.9505965308926534, 1.966660010657506, 1.9839068925066385, 2.000280985463178, 2.017271867429372, 2.0334787071333267, 2.0505627730453853, 2.066729335434502, 2.083898393320851, 2.0999564117519185, 2.1173384615103714, 2.1335773865284864, 2.150586359173758, 2.166646425612271, 2.183810704824282, 2.2002411177381873, 2.21727978636045, 2.233583223336609, 2.250556697312277, 2.26670516905142, 2.283909042918822, 2.300252415880095, 2.317263777833432]
20	animate/a67.jpg	inanimate	animate	left	0.766	[0.0, 0.0, 0.0, 0.0, 0.0, 0.0, -1.0, -2.0, -26.0, -70.0, -147.0, -234.0, -323.0, -394.0, -434.0, -450.0, -454.0, -454.0, -456.0, -456.0, -456.0, -456.0, -456.0, -456.0, -456.0, -456.0, -457.0, -461.0, -467.0, -485.0, -510.0, -539.0, -580.0, -602.0, -621.0, -632.0, -643.0, -658.0, -675.0, -699.0, -728.0, -753.0, -776.0, -788.0, -790.0, -790.0]	[-490.0, -490.0, -490.0, -490.0, -490.0, -490.0, -485.0, -464.0, -334.0, -207.0, -57.0, 77.0, 192.0, 263.0, 294.0, 306.0, 309.0, 312.0, 314.0, 315.0, 315.0, 315.0, 315.0, 315.0, 315.0, 315.0, 315.0, 313.0, 320.0, 329.0, 341.0, 353.0, 363.0, 365.0, 367.0, 369.0, 371.0, 374.0, 378.0, 381.0, 387.0, 391.0, 396.0, 403.0, 404.0, 404.0]	[0.014982409396907315, 0.02246989356353879, 0.027921325439820066, 0.045224868576042354, 0.061391772323986515, 0.07855741685489193, 0.0947901978797745, 0.11178790649864823, 0.12821217541932128, 0.14519964405917563, 0.16164780632243492, 0.17852536565624177, 0.1946393627440557, 0.21182616995065473, 0.22836956413812004, 0.2451890968659427, 0.2615468058211263, 0.27852574113057926, 0.2948749167553615, 0.31190061470260844, 0.32802519312826917, 0.3450140270870179, 0.36140382135636173, 0.3786257858737372, 0.39482340958784334, 0.4118815341789741, 0.42799382461817004, 0.44517858381732367, 0.4615461914218031, 0.47857188936905004, 0.494797843741253, 0.5117259203980211, 0.5279389040952083, 0.5451352686213795, 0.5615735322062392, 0.5785166275454685, 0.5948903791722842, 0.6118112878175452, 0.6281638767977711, 0.6451496387599036, 0.6615367023623548, 0.6785593283129856, 0.6950491332099773, 0.7130152040044777, 0.7280232816701755, 0.7451776622037869]
21	inanimate/n49.jpg	inanimate	animate	left	2.132	[0.0, 0.0, 0.0, 0.0, 0.0, 0.0, 0.0, 0.0, -10.0, -38.0, -81.0, -111.0, -112.0, -106.0, -102.0, -102.0, -103.0, -103.0, -103.0, -103.0, -103.0, -118.0, -124.0, -126.0, -138.0, -152.0, -165.0, -182.0, -199.0, -220.0, -241.0, -261.0, -273.0, -277.0, -278.0, -281.0, -290.0, -295.0, -298.0, -298.0, -298.0, -298.0, -298.0, -298.0, -298.0, -298.0, -298.0, -298.0, -242.0, -145.0, -29.0, 88.0, 209.0, 315.0, 392.0, 421.0, 436.0, 438.0, 438.0, 438.0, 438.0, 438.0, 438.0, 438.0, 438.0, 438.0, 438.0, 438.0, 438.0, 438.0, 438.0, 438.0, 438.0, 438.0, 438.0, 438.0, 438.0, 438.0, 438.0, 438.0, 438.0, 438.0, 438.0, 438.0, 438.0, 438.0, 438.0, 438.0, 438.0, 438.0, 438.0, 438.0, 438.0, 438.0, 438.0, 438.0, 438.0, 438.0, 438.0, 438.0, 438.0, 438.0, 438.0, 439.0, 440.0, 439.0, 422.0, 394.0, 307.0, 220.0, 115.0, -12.0, -158.0, -285.0, -399.0, -507.0, -602.0, -665.0, -714.0, -739.0, -772.0, -790.0, -807.0, -828.0, -852.0, -863.0, -863.0, -863.0]	[-490.0, -490.0, -490.0, -490.0, -490.0, -490.0, -490.0, -488.0, -411.0, -251.0, -97.0, 3.0, 48.0, 59.0, 64.0, 64.0, 65.0, 65.0, 65.0, 65.0, 65.0, 51.0, 44.0, 44.0, 54.0, 72.0, 90.0, 113.0, 133.0, 150.0, 165.0, 172.0, 177.0, 179.0, 180.0, 182.0, 189.0, 194.0, 196.0, 196.0, 196.0, 196.0, 196.0, 196.0, 196.0, 196.0, 196.0, 196.0, 196.0, 204.0, 222.0, 238.0, 254.0, 268.0, 275.0, 279.0, 279.0, 279.0, 279.0, 279.0, 279.0, 279.0, 279.0, 279.0, 279.0, 279.0, 279.0, 279.0, 279.0, 279.0, 279.0, 279.0, 279.0, 279.0, 279.0, 279.0, 279.0, 279.0, 279.0, 279.0, 279.0, 279.0, 279.0, 279.0, 279.0, 279.0, 279.0, 279.0, 279.0, 279.0, 279.0, 279.0, 279.0, 279.0, 279.0, 279.0, 279.0, 279.0, 279.0, 279.0, 279.0, 279.0, 279.0, 279.0, 279.0, 274.0, 266.0, 258.0, 244.0, 244.0, 259.0, 292.0, 335.0, 370.0, 393.0, 406.0, 422.0, 430.0, 436.0, 438.0, 439.0, 439.0, 439.0, 439.0, 439.0, 439.0, 439.0, 439.0]	[0.0011943929712288082, 0.006731158151524141, 0.017300198058364913, 0.0343863119778689, 0.05048733841977082, 0.06768438560538925, 0.0836598014284391, 0.10090258726268075, 0.11731081351172179, 0.13436177012044936, 0.15058260448859073, 0.16764755576150492, 0.18399434204911813, 0.20091866404982284, 0.21728490633540787, 0.23435088159749284, 0.2505713746359106, 0.2676452005689498, 0.2837315496581141, 0.30095317284576595, 0.3170190419477876, 0.3343249744211789, 0.3506154407514259, 0.36759198672370985, 0.38410056493012235, 0.40101737758959644, 0.4172822439286392, 0.434289509896189, 0.4503796136705205, 0.4676087461702991, 0.4839824977971148, 0.5009617744362913, 0.5173382567008957, 0.5343543973285705, 0.5506643196567893, 0.5675756709824782, 0.5838876413181424, 0.6009464485687204, 0.6173195175360888, 0.6343691087968182, 0.6506278311426286, 0.6676118864270393, 0.6840163580491208, 0.7009560400329065, 0.7173007783421781, 0.7342841509671416, 0.7506493692635559, 0.7676163579162676, 0.7840320935065392, 0.8009123835363425, 0.8174486097123008, 0.8343367504130583, 0.8503637075482402, 0.8675785040541086, 0.8840478289639577, 0.9009219749714248, 0.9172551079536788, 0.934337808546843, 0.9506364668777678, 0.9676311035000253, 0.9840591270767618, 1.0009803770808503, 1.017271184740821, 1.0343494479893707, 1.050420437095454, 1.0675997349899262, 1.0840577958733775, 1.1009841658815276, 1.1173439228441566, 1.1343511888117064, 1.1505805564811453, 1.1676748624013271, 1.1840254033741076, 1.2009326587140094, 1.217265450337436, 1.234352246945491, 1.2506703612452839, 1.2676779685425572, 1.283788210945204, 1.3009238181693945, 1.317292108462425, 1.334327363758348, 1.350423611496808, 1.3675793573784176, 1.383738069125684, 1.4007668390695471, 1.4172542546293698, 1.4343567525211256, 1.4506335655460134, 1.467659604822984, 1.483956556476187, 1.5009590437693987, 1.5172932007408235, 1.5343373306677677, 1.5505861543642823, 1.5676483749412, 1.5838657959830016, 1.6008699899539351, 1.6170754643098917, 1.6343407781387214, 1.650598476495361, 1.667655577097321, 1.683832379465457, 1.700953992025461, 1.7172833703516517, 1.7342650362988934, 1.7506254759500735, 1.7675672059413046, 1.7839628028741572, 1.8009222821856383, 1.8171540391922463, 1.8343415290873963, 1.850340496894205, 1.8675727013905998, 1.8836890878155828, 1.9009141243295744, 1.9173001639428549, 1.9343350778799504, 1.9505975548818242, 1.9676082341757137, 1.983708236599341, 2.0008721744816285, 2.0173182887083385, 2.034302344021853, 2.0507092049519997, 2.067604172305437, 2.0841182118456345, 2.100928869913332]
22	inanimate/n63.jpg	inanimate	animate	left	1.734	[0.0, 0.0, 0.0, 0.0, 0.0, 0.0, 0.0, 0.0, 0.0, -2.0, -5.0, -24.0, -66.0, -115.0, -158.0, -181.0, -190.0, -196.0, -196.0, -196.0, -198.0, -198.0, -198.0, -198.0, -199.0, -204.0, -210.0, -211.0, -212.0, -215.0, -221.0, -223.0, -229.0, -238.0, -249.0, -259.0, -273.0, -288.0, -317.0, -337.0, -362.0, -382.0, -393.0, -403.0, -406.0, -408.0, -409.0, -409.0, -409.0, -409.0, -409.0, -399.0, -379.0, -339.0, -272.0, -193.0, -101.0, -11.0, 65.0, 119.0, 155.0, 177.0, 196.0, 211.0, 232.0, 264.0, 310.0, 373.0, 430.0, 490.0, 544.0, 585.0, 612.0, 628.0, 635.0, 635.0, 635.0, 635.0, 635.0, 635.0, 636.0, 636.0, 636.0, 636.0, 636.0, 636.0, 622.0, 577.0, 501.0, 399.0, 277.0, 126.0, -53.0, -212.0, -358.0, -480.0, -575.0, -656.0, -745.0, -797.0, -833.0, -855.0, -866.0, -869.0, -869.0]	[-490.0, -490.0, -490.0, -490.0, -490.0, -490.0, -490.0, -490.0, -490.0, -489.0, -468.0, -395.0, -267.0, -136.0, 18.0, 92.0, 127.0, 148.0, 160.0, 165.0, 171.0, 171.0, 171.0, 171.0, 171.0, 160.0, 154.0, 153.0, 153.0, 155.0, 156.0, 157.0, 159.0, 160.0, 161.0, 163.0, 164.0, 166.0, 173.0, 179.0, 188.0, 194.0, 198.0, 203.0, 204.0, 205.0, 206.0, 206.0, 206.0, 206.0, 206.0, 208.0, 210.0, 214.0, 214.0, 214.0, 214.0, 214.0, 214.0, 214.0, 214.0, 214.0, 214.0, 214.0, 214.0, 214.0, 214.0, 214.0, 214.0, 214.0, 214.0, 214.0, 214.0, 215.0, 216.0, 216.0, 216.0, 216.0, 216.0, 216.0, 216.0, 218.0, 222.0, 225.0, 229.0, 234.0, 248.0, 270.0, 294.0, 317.0, 337.0, 359.0, 387.0, 409.0, 428.0, 448.0, 460.0, 470.0, 485.0, 491.0, 495.0, 498.0, 500.0, 502.0, 502.0]	[0.008929685020120814, 0.013597757293609902, 0.018538554752012715, 0.03332066987059079, 0.04972275212639943, 0.06682593270670623, 0.0828644951689057, 0.10009533434640616, 0.11654759259545244, 0.13334391464013606, 0.1496968449500855, 0.16671742289327085, 0.18301266789785586, 0.20006840315181762, 0.21618888556258753, 0.23328114347532392, 0.24984296967159025, 0.2667160916898865, 0.2828010754601564, 0.3000134826579597, 0.316153079707874, 0.333331012254348, 0.34944193734554574, 0.3667014485108666, 0.38309977611061186, 0.40000225277617574, 0.4164487083617132, 0.43341979300021194, 0.44972254731692374, 0.46677759994054213, 0.48278714905609377, 0.49999546026811004, 0.5164108545286581, 0.5333723818475846, 0.5497655894432683, 0.5667598847358022, 0.5828196098445915, 0.6000589823524933, 0.616144990111934, 0.6333686613070313, 0.6497116929385811, 0.6667623082175851, 0.6827824386709835, 0.6999839232012164, 0.7165938773541711, 0.7333543594286311, 0.7496806657582056, 0.7667217236885335, 0.7831091286498122, 0.8000815786072053, 0.8164321195799857, 0.8333472255908418, 0.8497093718615361, 0.866733363160165, 0.8831166721065529, 0.9000788820849266, 0.9161307565227617, 0.9333643263671547, 0.9497087233467028, 0.966809173260117, 0.9830644822504837, 1.000058436213294, 1.0164041985117365, 1.0334022484894376, 1.0494810882664751, 1.0668402687006164, 1.0831392683612648, 1.1000373077113181, 1.1164902486198116, 1.1333998932968825, 1.1497333675797563, 1.16680514550535, 1.1827887533290777, 1.1999878485221416, 1.217691775469575, 1.2333050367888063, 1.2497194070601836, 1.2667543209972791, 1.283028744684998, 1.3000291839707643, 1.3162145196984056, 1.3333767509029713, 1.3497252438683063, 1.3667325098067522, 1.3830977281031664, 1.4000114687951282, 1.41642379105906, 1.433386683696881, 1.4494713261374272, 1.4668202665634453, 1.4827816877223086, 1.5000207189004868, 1.5162268759449944, 1.533348829834722, 1.5495491842157207, 1.5667936767276842, 1.5829203031316865, 1.6000234837119933, 1.616169907443691, 1.6333741226408165, 1.6497072555939667, 1.666828526824247, 1.6827954093168955, 1.6999835818714928, 1.7165945600136183]
23	animate/a45.jpg	animate	inanimate	left	1.246	[0.0, 0.0, 0.0, 0.0, 0.0, 0.0, 0.0, 0.0, 0.0, -1.0, -4.0, -7.0, -19.0, -48.0, -81.0, -116.0, -130.0, -135.0, -136.0, -136.0, -136.0, -137.0, -141.0, -142.0, -144.0, -144.0, -149.0, -169.0, -193.0, -214.0, -233.0, -244.0, -252.0, -259.0, -266.0, -278.0, -287.0, -292.0, -292.0, -268.0, -186.0, -38.0, 143.0, 341.0, 506.0, 630.0, 692.0, 703.0, 703.0, 703.0, 703.0, 703.0, 703.0, 697.0, 657.0, 559.0, 423.0, 262.0, 75.0, -121.0, -292.0, -434.0, -542.0, -655.0, -699.0, -725.0, -743.0, -761.0, -783.0, -808.0, -830.0, -843.0, -849.0, -849.0, -849.0]	[-490.0, -490.0, -490.0, -490.0, -490.0, -490.0, -490.0, -490.0, -491.0, -487.0, -469.0, -433.0, -367.0, -269.0, -178.0, -77.0, -28.0, 11.0, 35.0, 54.0, 69.0, 82.0, 88.0, 91.0, 93.0, 94.0, 94.0, 94.0, 94.0, 94.0, 94.0, 94.0, 94.0, 94.0, 95.0, 101.0, 107.0, 110.0, 112.0, 127.0, 155.0, 196.0, 242.0, 287.0, 311.0, 330.0, 337.0, 337.0, 337.0, 337.0, 337.0, 337.0, 337.0, 337.0, 333.0, 329.0, 329.0, 329.0, 329.0, 329.0, 329.0, 341.0, 355.0, 373.0, 380.0, 384.0, 386.0, 389.0, 393.0, 396.0, 404.0, 407.0, 410.0, 411.0, 411.0]	[0.002271981764351949, 0.008698261139215901, 0.019729466148419306, 0.03635751098045148, 0.05346581153571606, 0.06952041666954756, 0.08670073852408677, 0.10321648474200629, 0.12002270546508953, 0.13656541699310765, 0.15341976570198312, 0.16977372000110336, 0.18676357794902287, 0.20311821493669413, 0.22007428092183545, 0.23634836325072683, 0.25334914386621676, 0.2697430341504514, 0.28676702541997656, 0.3028772678517271, 0.32012210169341415, 0.33646342664724216, 0.3534416792972479, 0.3697850522585213, 0.3868387395341415, 0.4031660698237829, 0.4200982424954418, 0.43652524208300747, 0.45343249742290936, 0.4697574384044856, 0.48683501899358816, 0.5031589359568898, 0.5200569753069431, 0.5361641457420774, 0.5534373102127574, 0.5695407259918284, 0.5868685037712567, 0.6030777328123804, 0.6200631534447894, 0.6363099291338585, 0.6533639577392023, 0.6696574960660655, 0.6867640899727121, 0.7028381510754116, 0.7200403182650916, 0.7365304644918069, 0.7534042691695504, 0.7694943729438819, 0.786798940069275, 0.8030648304265924, 0.8200837016920559, 0.8364663279789966, 0.8534258072904777, 0.8697292442957405, 0.8868095555517357, 0.902837878005812, 0.9200390212063212, 0.9365240474289749, 0.9534091161040124, 0.9697419077565428, 0.986821536323987, 1.0030444186995737, 1.020052025996847, 1.0361769457231276, 1.0534692248620559, 1.0695333873154595, 1.0867444291652646, 1.102840335603105, 1.1200268014508765, 1.1363671024446376, 1.1534743790107314, 1.1697737200011034, 1.1868519832496531, 1.203052337630652, 1.2200892995751929]
24	inanimate/n56.jpg	inanimate	animate	left	1.263	[0.0, 0.0, 0.0, 0.0, 0.0, 0.0, 0.0, 0.0, 0.0, 0.0, -11.0, -37.0, -103.0, -150.0, -176.0, -182.0, -182.0, -176.0, -171.0, -170.0, -166.0, -166.0, -166.0, -166.0, -166.0, -166.0, -166.0, -169.0, -196.0, -247.0, -311.0, -374.0, -428.0, -482.0, -515.0, -530.0, -541.0, -546.0, -549.0, -551.0, -551.0, -551.0, -551.0, -551.0, -551.0, -551.0, -551.0, -549.0, -486.0, -352.0, -187.0, -13.0, 144.0, 258.0, 313.0, 326.0, 327.0, 327.0, 327.0, 327.0, 297.0, 240.0, 142.0, 10.0, -128.0, -266.0, -399.0, -507.0, -594.0, -672.0, -729.0, -770.0, -803.0, -806.0, -806.0, -806.0]	[-490.0, -490.0, -490.0, -490.0, -490.0, -490.0, -490.0, -490.0, -490.0, -465.0, -381.0, -258.0, -54.0, 56.0, 117.0, 151.0, 173.0, 182.0, 184.0, 184.0, 185.0, 185.0, 185.0, 185.0, 185.0, 184.0, 184.0, 188.0, 207.0, 237.0, 274.0, 310.0, 334.0, 357.0, 371.0, 378.0, 385.0, 388.0, 390.0, 390.0, 390.0, 390.0, 390.0, 390.0, 390.0, 390.0, 390.0, 390.0, 384.0, 357.0, 333.0, 318.0, 313.0, 311.0, 310.0, 307.0, 307.0, 307.0, 307.0, 307.0, 314.0, 326.0, 341.0, 360.0, 381.0, 400.0, 421.0, 434.0, 447.0, 458.0, 464.0, 464.0, 464.0, 464.0, 464.0, 464.0]	[0.0070765872951596975, 0.013877650490030646, 0.029122613341314718, 0.04614011931698769, 0.062417273642495275, 0.07941293428302743, 0.09581365121994168, 0.11277688518748619, 0.12897314355359413, 0.14609134278725833, 0.16246577707352117, 0.17937712842831388, 0.1957437120436225, 0.21277145799831487, 0.22908923096838407, 0.24617944087367505, 0.2621821633656509, 0.27939047454856336, 0.2955467969295569, 0.31273223881726153, 0.32912885973928496, 0.3461306643730495, 0.3624122560431715, 0.37942156998906285, 0.39568916699499823, 0.41268312095780857, 0.4290831552352756, 0.44621807980001904, 0.46218564495211467, 0.4793751828256063, 0.4958530410658568, 0.5127555177314207, 0.5290552000515163, 0.5461576979723759, 0.5623822869965807, 0.5793632702843752, 0.5956841152801644, 0.6127712531888392, 0.6290576235332992, 0.6462055187439546, 0.6623901717830449, 0.6794247443904169, 0.6957752853631973, 0.7127951806469355, 0.7288419351098128, 0.7460509289521724, 0.7625001152046025, 0.7794339945248794, 0.7959040020941757, 0.8138482275826391, 0.8290853397629689, 0.8461492670467123, 0.8621666668332182, 0.8793807806796394, 0.8958709269063547, 0.9127897875732742, 0.9290720619028434, 0.946130186523078, 0.9623906155175064, 0.9794589801167604, 0.9955787798680831, 1.012728723086184, 1.0291024746838957, 1.0462821139080916, 1.062190287077101, 1.0793675369641278, 1.0957047659321688, 1.1128035091678612, 1.129032876866404, 1.1461080681183375, 1.1624091157864314, 1.1793924884113949, 1.1956024001119658, 1.212785111303674, 1.2291605696082115, 1.2461811475513969]
25	animate/a27.jpg	inanimate	animate	right	1.03	[0.0, 0.0, 0.0, 0.0, 0.0, 0.0, 0.0, 0.0, -15.0, -32.0, -68.0, -120.0, -179.0, -238.0, -292.0, -323.0, -339.0, -348.0, -354.0, -359.0, -360.0, -362.0, -365.0, -371.0, -375.0, -383.0, -400.0, -427.0, -464.0, -503.0, -534.0, -568.0, -599.0, -631.0, -653.0, -656.0, -656.0, -656.0, -656.0, -629.0, -541.0, -409.0, -225.0, -4.0, 214.0, 390.0, 588.0, 677.0, 726.0, 744.0, 747.0, 747.0, 747.0, 747.0, 749.0, 755.0, 770.0, 787.0, 811.0, 819.0, 821.0, 821.0]	[-490.0, -490.0, -490.0, -490.0, -490.0, -490.0, -490.0, -490.0, -477.0, -457.0, -376.0, -255.0, -113.0, 12.0, 110.0, 161.0, 192.0, 210.0, 223.0, 229.0, 233.0, 236.0, 237.0, 237.0, 237.0, 237.0, 242.0, 253.0, 267.0, 278.0, 295.0, 315.0, 337.0, 355.0, 371.0, 372.0, 372.0, 372.0, 372.0, 376.0, 380.0, 380.0, 380.0, 380.0, 380.0, 382.0, 379.0, 366.0, 360.0, 357.0, 356.0, 356.0, 356.0, 356.0, 356.0, 356.0, 362.0, 375.0, 395.0, 407.0, 414.0, 414.0]	[0.00014684151392430067, 0.007896469556726515, 0.02409341058228165, 0.031912670587189496, 0.048511702101677656, 0.06559235468739644, 0.08192378099192865, 0.0989464069425594, 0.11530957723152824, 0.13227246986934915, 0.14844005624763668, 0.1655766874901019, 0.1816476765961852, 0.19905361966812052, 0.21500753151485696, 0.232196045370074, 0.2486964316049125, 0.2656200709170662, 0.2816883293562569, 0.29896115252631716, 0.31498503766488284, 0.3322384048078675, 0.3483500125585124, 0.36551224379218183, 0.38186278473585844, 0.3990885039384011, 0.41501237844931893, 0.4322432176268194, 0.44872312384541146, 0.46560580321238376, 0.48193347483174875, 0.49895985546754673, 0.5152380337822251, 0.5322179931099527, 0.5486408966826275, 0.5655717040062882, 0.5819440903142095, 0.5991387481626589, 0.6150114227202721, 0.6322415792092215, 0.6483880029409193, 0.6655632048205007, 0.6819393457844853, 0.6989797210553661, 0.7150049715128262, 0.732212941366015, 0.7485546076786704, 0.765591910952935, 0.7817810013075359, 0.7989326512033585, 0.8152125361957587, 0.8322150234889705, 0.8485921884421259, 0.8655383557779714, 0.8819312220439315, 0.89894429067499, 0.9152054023288656, 0.9322590896044858, 0.9483614813652821, 0.9655957338691223, 0.9819715335033834, 0.9989719727891497]
26	animate/a57.jpg	animate	inanimate	left	1.241	[0.0, 0.0, 0.0, 0.0, 0.0, 0.0, 0.0, 0.0, -5.0, -12.0, -44.0, -107.0, -178.0, -262.0, -288.0, -298.0, -304.0, -309.0, -310.0, -310.0, -310.0, -311.0, -311.0, -311.0, -313.0, -323.0, -333.0, -352.0, -377.0, -412.0, -446.0, -484.0, -524.0, -555.0, -576.0, -596.0, -621.0, -650.0, -692.0, -713.0, -731.0, -738.0, -740.0, -740.0, -739.0, -737.0, -733.0, -729.0, -729.0, -729.0, -729.0, -729.0, -729.0, -724.0, -716.0, -713.0, -713.0, -713.0, -713.0, -713.0, -713.0, -713.0, -713.0, -713.0, -713.0, -716.0, -722.0, -734.0, -753.0, -772.0, -790.0, -803.0, -809.0, -809.0, -809.0]	[-490.0, -490.0, -490.0, -490.0, -490.0, -490.0, -490.0, -483.0, -461.0, -407.0, -299.0, -161.0, -45.0, 58.0, 83.0, 91.0, 99.0, 101.0, 101.0, 101.0, 101.0, 102.0, 102.0, 102.0, 95.0, 91.0, 91.0, 100.0, 112.0, 126.0, 145.0, 169.0, 192.0, 211.0, 222.0, 236.0, 255.0, 279.0, 308.0, 322.0, 330.0, 334.0, 335.0, 337.0, 339.0, 340.0, 342.0, 343.0, 343.0, 343.0, 343.0, 343.0, 342.0, 334.0, 331.0, 331.0, 331.0, 331.0, 331.0, 331.0, 331.0, 331.0, 331.0, 331.0, 331.0, 337.0, 348.0, 369.0, 397.0, 423.0, 443.0, 458.0, 466.0, 466.0, 466.0]	[0.01057921166648157, 0.021194672881392762, 0.02733696307404898, 0.03627681982470676, 0.053368395077995956, 0.06958957077586092, 0.08659751940285787, 0.10304260964039713, 0.11993484632694162, 0.1363683312665671, 0.15337662122328766, 0.16932507170713507, 0.18657127089682035, 0.203004755807342, 0.21993112581549212, 0.2362506054341793, 0.2533360366942361, 0.26930701520177536, 0.2865463877096772, 0.3030293659248855, 0.3199209199519828, 0.3362670235801488, 0.3533213935152162, 0.36943231857731007, 0.3865928431332577, 0.403094253357267, 0.4199847833660897, 0.4362486257159617, 0.4534572782285977, 0.4693572594260331, 0.48653860529884696, 0.503041039512027, 0.519957169512054, 0.5362619718362112, 0.5533357977692503, 0.5695675547758583, 0.58655229274882, 0.6031229936052114, 0.6199155610229354, 0.6360111261019483, 0.6533020399219822, 0.6693406023841817, 0.6866178628697526, 0.7027277639426757, 0.7198917018249631, 0.7362685254483949, 0.7532235674152616, 0.7696638790075667, 0.7866748996311799, 0.8030111046100501, 0.8199371332593728, 0.8362815302389208, 0.85337310549221, 0.8693413533037528, 0.8865581978170667, 0.9028575388074387, 0.9199040580715518, 0.9362225137301721, 0.9533765529340599, 0.9696011419582646, 0.9866404932399746, 1.0029422235675156, 1.0199174042209052, 1.0362884251517244, 1.0533434777753428, 1.0693386908969842, 1.086586938065011, 1.1028060657845344, 1.1199744409823325, 1.1363058672868647, 1.1533148399030324, 1.169583802256966, 1.186573318875162, 1.2030368411215022, 1.21993624579045]
27	animate/a22.jpg	inanimate	animate	right	1.246	[0.0, 0.0, 0.0, 0.0, 0.0, 0.0, 0.0, 0.0, 0.0, 0.0, 0.0, 0.0, -2.0, -2.0, -6.0, -33.0, -89.0, -147.0, -202.0, -244.0, -270.0, -285.0, -297.0, -305.0, -305.0, -305.0, -305.0, -305.0, -306.0, -314.0, -322.0, -334.0, -337.0, -343.0, -357.0, -369.0, -376.0, -378.0, -380.0, -381.0, -383.0, -384.0, -390.0, -398.0, -407.0, -415.0, -423.0, -424.0, -424.0, -420.0, -380.0, -280.0, -143.0, -3.0, 135.0, 275.0, 391.0, 481.0, 544.0, 585.0, 616.0, 626.0, 632.0, 636.0, 638.0, 642.0, 650.0, 661.0, 677.0, 698.0, 716.0, 730.0, 740.0, 740.0, 740.0]	[-490.0, -490.0, -490.0, -490.0, -490.0, -490.0, -490.0, -490.0, -490.0, -490.0, -490.0, -490.0, -490.0, -466.0, -412.0, -286.0, -141.0, -27.0, 61.0, 112.0, 133.0, 144.0, 147.0, 149.0, 149.0, 149.0, 149.0, 149.0, 149.0, 133.0, 127.0, 119.0, 119.0, 119.0, 124.0, 130.0, 135.0, 137.0, 140.0, 141.0, 142.0, 143.0, 146.0, 152.0, 160.0, 165.0, 171.0, 171.0, 171.0, 174.0, 183.0, 213.0, 244.0, 263.0, 284.0, 303.0, 315.0, 317.0, 317.0, 317.0, 317.0, 317.0, 319.0, 319.0, 321.0, 323.0, 333.0, 349.0, 366.0, 382.0, 395.0, 404.0, 413.0, 414.0, 414.0]	[0.0012230649590492249, 0.009668329963460565, 0.01961887421202846, 0.0337579176411964, 0.051736617751885206, 0.06766936695203185, 0.08381169466883875, 0.1010401445091702, 0.11732992817997001, 0.13447850607917644, 0.15080890836543404, 0.1676352677459363, 0.18404042202746496, 0.20098044534097426, 0.21747946622781456, 0.234300022944808, 0.2504170920292381, 0.2676479312067386, 0.28388207757961936, 0.30097570081125014, 0.31733955378877, 0.33440689436974935, 0.35071306201280095, 0.3676855119992979, 0.3839780263369903, 0.400991094938945, 0.41730920926784165, 0.4344178511528298, 0.4504229629819747, 0.46762342349393293, 0.48410128173418343, 0.5010044410591945, 0.517362150043482, 0.5343813626386691, 0.5504158291150816, 0.5676633935945574, 0.5840723025321495, 0.6010235898720566, 0.6173143975320272, 0.6344175780832302, 0.6504394152143504, 0.6676074491115287, 0.6838791421032511, 0.7010150906571653, 0.7172837116813753, 0.7343807482393458, 0.7506852092337795, 0.767670971195912, 0.7840938747976907, 0.8010403834632598, 0.8170943059085403, 0.8344627023325302, 0.8504241234913934, 0.8676235600432847, 0.8840375889558345, 0.9010387109301519, 0.9173411239171401, 0.9343101605481934, 0.950694493483752, 0.9676594341581222, 0.9840666364179924, 1.000881390471477, 1.0173814353474882, 1.0344081573130097, 1.0504071251198184, 1.06775947890128, 1.084184771811124, 1.1010261498740874, 1.117307400185382, 1.1343522128008772, 1.1506696444412228, 1.1676796410756651, 1.1837321981729474, 1.2009818106889725, 1.2173190396570135]
28	inanimate/n7.jpg	inanimate	animate	right	6.78	[0.0, 0.0, 0.0, 0.0, 0.0, 0.0, 0.0, -2.0, -3.0, -14.0, -43.0, -87.0, -142.0, -190.0, -219.0, -229.0, -234.0, -237.0, -237.0, -238.0, -238.0, -238.0, -238.0, -238.0, -243.0, -251.0, -271.0, -310.0, -369.0, -416.0, -421.0, -421.0, -421.0, -421.0, -421.0, -421.0, -421.0, -421.0, -421.0, -421.0, -421.0, -423.0, -424.0, -427.0, -430.0, -433.0, -436.0, -436.0, -436.0, -437.0, -437.0, -437.0, -437.0, -437.0, -438.0, -439.0, -439.0, -440.0, -440.0, -440.0, -440.0, -440.0, -440.0, -440.0, -440.0, -440.0, -440.0, -440.0, -440.0, -440.0, -440.0, -440.0, -440.0, -440.0, -440.0, -440.0, -440.0, -440.0, -440.0, -440.0, -440.0, -440.0, -440.0, -440.0, -440.0, -440.0, -440.0, -440.0, -440.0, -440.0, -440.0, -440.0, -440.0, -440.0, -440.0, -440.0, -440.0, -440.0, -441.0, -442.0, -443.0, -443.0, -443.0, -443.0, -443.0, -443.0, -443.0, -443.0, -443.0, -443.0, -443.0, -443.0, -443.0, -443.0, -443.0, -443.0, -443.0, -443.0, -443.0, -443.0, -443.0, -443.0, -443.0, -443.0, -443.0, -443.0, -443.0, -443.0, -443.0, -443.0, -443.0, -443.0, -443.0, -443.0, -443.0, -443.0, -443.0, -443.0, -443.0, -443.0, -443.0, -425.0, -404.0, -374.0, -333.0, -293.0, -269.0, -251.0, -239.0, -237.0, -237.0, -237.0, -237.0, -237.0, -237.0, -237.0, -237.0, -237.0, -237.0, -237.0, -237.0, -237.0, -237.0, -245.0, -259.0, -292.0, -319.0, -353.0, -388.0, -412.0, -431.0, -451.0, -467.0, -485.0, -503.0, -521.0, -536.0, -556.0, -566.0, -572.0, -576.0, -577.0, -577.0, -577.0, -577.0, -577.0, -577.0, -577.0, -577.0, -577.0, -577.0, -577.0, -577.0, -577.0, -577.0, -577.0, -567.0, -546.0, -504.0, -429.0, -350.0, -228.0, -176.0, -143.0, -124.0, -118.0, -118.0, -118.0, -118.0, -118.0, -118.0, -118.0, -118.0, -118.0, -118.0, -118.0, -118.0, -118.0, -118.0, -118.0, -118.0, -118.0, -113.0, -101.0, -82.0, -56.0, 1.0, 32.0, 69.0, 105.0, 140.0, 176.0, 209.0, 247.0, 283.0, 321.0, 360.0, 404.0, 475.0, 532.0, 582.0, 622.0, 646.0, 669.0, 685.0, 699.0, 712.0, 720.0, 728.0, 734.0, 734.0, 734.0, 734.0, 734.0, 734.0, 734.0, 734.0, 734.0, 734.0, 734.0, 734.0, 734.0, 734.0, 734.0, 734.0, 734.0, 734.0, 734.0, 734.0, 734.0, 734.0, 734.0, 734.0, 734.0, 734.0, 734.0, 734.0, 734.0, 734.0, 734.0, 734.0, 734.0, 734.0, 734.0, 734.0, 734.0, 734.0, 734.0, 734.0, 734.0, 734.0, 734.0, 734.0, 734.0, 734.0, 734.0, 734.0, 734.0, 734.0, 734.0, 734.0, 734.0, 734.0, 734.0, 734.0, 734.0, 734.0, 734.0, 734.0, 734.0, 734.0, 734.0, 734.0, 734.0, 734.0, 734.0, 734.0, 734.0, 734.0, 734.0, 734.0, 734.0, 734.0, 734.0, 734.0, 734.0, 734.0, 734.0, 734.0, 734.0, 734.0, 734.0, 734.0, 734.0, 734.0, 734.0, 734.0, 734.0, 734.0, 734.0, 734.0, 734.0, 734.0, 734.0, 734.0, 734.0, 734.0, 734.0, 734.0, 734.0, 734.0, 734.0, 734.0, 734.0, 734.0, 734.0, 734.0, 734.0, 734.0, 734.0, 734.0, 734.0, 734.0, 734.0, 734.0, 734.0, 734.0, 734.0, 734.0, 734.0, 734.0, 734.0, 734.0, 734.0, 734.0, 734.0, 734.0, 734.0, 734.0, 734.0, 734.0, 734.0, 734.0, 734.0, 734.0, 734.0, 734.0, 734.0, 734.0, 734.0, 734.0, 734.0, 734.0, 734.0, 734.0, 734.0, 734.0, 734.0, 734.0, 734.0, 734.0, 734.0, 734.0, 734.0, 734.0, 734.0, 734.0]	[-490.0, -490.0, -490.0, -490.0, -490.0, -490.0, -490.0, -490.0, -467.0, -353.0, -256.0, -151.0, -50.0, 21.0, 60.0, 76.0, 82.0, 86.0, 90.0, 92.0, 92.0, 92.0, 92.0, 92.0, 90.0, 89.0, 94.0, 124.0, 164.0, 194.0, 196.0, 196.0, 196.0, 196.0, 196.0, 196.0, 196.0, 196.0, 195.0, 192.0, 189.0, 188.0, 188.0, 190.0, 195.0, 204.0, 209.0, 212.0, 212.0, 213.0, 213.0, 213.0, 213.0, 213.0, 215.0, 215.0, 217.0, 218.0, 218.0, 218.0, 218.0, 218.0, 218.0, 218.0, 218.0, 218.0, 218.0, 218.0, 218.0, 218.0, 218.0, 218.0, 218.0, 218.0, 218.0, 218.0, 218.0, 218.0, 218.0, 218.0, 218.0, 218.0, 218.0, 218.0, 218.0, 218.0, 218.0, 218.0, 218.0, 218.0, 218.0, 218.0, 218.0, 218.0, 218.0, 218.0, 218.0, 218.0, 218.0, 218.0, 218.0, 218.0, 218.0, 218.0, 218.0, 218.0, 218.0, 218.0, 218.0, 218.0, 218.0, 218.0, 218.0, 218.0, 218.0, 218.0, 218.0, 218.0, 218.0, 218.0, 218.0, 218.0, 218.0, 218.0, 218.0, 218.0, 218.0, 218.0, 218.0, 218.0, 218.0, 218.0, 218.0, 218.0, 218.0, 218.0, 218.0, 218.0, 218.0, 218.0, 218.0, 204.0, 190.0, 175.0, 156.0, 142.0, 132.0, 124.0, 120.0, 118.0, 118.0, 118.0, 118.0, 118.0, 118.0, 118.0, 118.0, 118.0, 118.0, 118.0, 118.0, 118.0, 118.0, 121.0, 126.0, 139.0, 152.0, 172.0, 191.0, 203.0, 215.0, 228.0, 242.0, 257.0, 277.0, 297.0, 316.0, 338.0, 349.0, 354.0, 357.0, 358.0, 358.0, 358.0, 358.0, 358.0, 358.0, 358.0, 358.0, 358.0, 358.0, 358.0, 358.0, 358.0, 358.0, 358.0, 356.0, 350.0, 345.0, 338.0, 338.0, 338.0, 338.0, 335.0, 331.0, 331.0, 331.0, 331.0, 331.0, 331.0, 331.0, 331.0, 331.0, 331.0, 331.0, 331.0, 331.0, 331.0, 331.0, 331.0, 331.0, 331.0, 327.0, 320.0, 312.0, 305.0, 293.0, 289.0, 279.0, 270.0, 260.0, 249.0, 245.0, 240.0, 240.0, 240.0, 240.0, 248.0, 269.0, 294.0, 320.0, 345.0, 359.0, 372.0, 381.0, 394.0, 404.0, 411.0, 419.0, 423.0, 423.0, 423.0, 423.0, 423.0, 423.0, 423.0, 423.0, 423.0, 423.0, 423.0, 423.0, 423.0, 423.0, 423.0, 423.0, 423.0, 423.0, 423.0, 423.0, 423.0, 423.0, 423.0, 423.0, 423.0, 423.0, 423.0, 423.0, 423.0, 423.0, 423.0, 423.0, 423.0, 423.0, 423.0, 423.0, 423.0, 423.0, 423.0, 423.0, 423.0, 423.0, 423.0, 423.0, 423.0, 423.0, 423.0, 423.0, 423.0, 423.0, 423.0, 423.0, 423.0, 423.0, 423.0, 423.0, 423.0, 423.0, 423.0, 423.0, 423.0, 423.0, 423.0, 423.0, 423.0, 423.0, 423.0, 423.0, 423.0, 423.0, 423.0, 423.0, 423.0, 423.0, 423.0, 423.0, 423.0, 423.0, 423.0, 423.0, 423.0, 423.0, 423.0, 423.0, 423.0, 423.0, 423.0, 423.0, 423.0, 423.0, 423.0, 423.0, 423.0, 423.0, 423.0, 423.0, 423.0, 423.0, 423.0, 423.0, 423.0, 423.0, 423.0, 423.0, 423.0, 423.0, 423.0, 423.0, 423.0, 423.0, 423.0, 423.0, 423.0, 423.0, 423.0, 423.0, 423.0, 423.0, 423.0, 423.0, 423.0, 423.0, 423.0, 423.0, 423.0, 423.0, 423.0, 423.0, 423.0, 423.0, 423.0, 423.0, 423.0, 423.0, 423.0, 423.0, 423.0, 423.0, 423.0, 423.0, 423.0, 423.0, 423.0, 423.0, 423.0, 423.0, 423.0, 423.0, 423.0, 423.0, 423.0, 423.0, 423.0, 423.0, 423.0, 423.0, 423.0, 423.0]	[0.0018173260032199323, 0.007935040193842724, 0.018921871902421117, 0.035432156786555424, 0.052525097358739004, 0.06885686499299482, 0.08591772028012201, 0.10215801061713137, 0.11919838588801213, 0.13556974817765877, 0.15248007551417686, 0.16870364054921083, 0.18590034640510567, 0.20197543152607977, 0.2191659933887422, 0.23531036911299452, 0.25247123499866575, 0.26859478940605186, 0.28591539920307696, 0.30220723085221834, 0.3192134728305973, 0.33558961376547813, 0.35253953575738706, 0.36888017805176787, 0.38589802535716444, 0.40200246509630233, 0.4191937096475158, 0.43542376000550576, 0.45252523390809074, 0.46886724152136594, 0.4858451528416481, 0.5021977417927701, 0.5192626930656843, 0.5356350793445017, 0.5525672520161606, 0.5688341663626488, 0.58590321362135, 0.6018854560970794, 0.6191589619265869, 0.6356238494918216, 0.6525423688290175, 0.6688099658349529, 0.6859141704044305, 0.7021548021002673, 0.7191385160549544, 0.7356931742397137, 0.7525096349709202, 0.7688803146011196, 0.7859213725314476, 0.801980073651066, 0.8191665395279415, 0.8355375604587607, 0.8524779251310974, 0.8688615754072089, 0.8859551986388396, 0.9019582624605391, 0.9191894429677632, 0.9352908107393887, 0.9524653299304191, 0.9688503455545288, 0.9859241714584641, 1.0021951817907393, 1.019253989070421, 1.0355772233742755, 1.0525247560290154, 1.0689169396355283, 1.0859027016267646, 1.1021259253029712, 1.1191830259049311, 1.1352942923258524, 1.1524087369034532, 1.1689121951058041, 1.185912975750398, 1.2019249142031185, 1.2191933000285644, 1.2355615903215948, 1.2525907015951816, 1.268851813278161, 1.285902428557165, 1.3022369268583134, 1.3192223474907223, 1.3355998537736014, 1.352555578429019, 1.368871986080194, 1.3859376199834514, 1.4022301343211439, 1.4192647069285158, 1.4353828000021167, 1.4524723272770643, 1.4688238922099117, 1.4859147848037537, 1.5021571231482085, 1.5192312904109713, 1.5355173193966039, 1.5525136626965832, 1.5688809290004428, 1.585954072244931, 1.6019202720781323, 1.6191770525765605, 1.635705769440392, 1.652573430154007, 1.6688529738166835, 1.685919290408492, 1.7019018742139451, 1.7191207667347044, 1.7354934943432454, 1.7524792563344818, 1.7685724320763256, 1.78583228457137, 1.8021981855272315, 1.819164491520496, 1.835354264563648, 1.8524915784655605, 1.8687008074775804, 1.885905705334153, 1.9022859422839247, 1.9192297202826012, 1.9356898292026017, 1.9525387165485881, 1.9688431775430217, 1.9871225921961013, 2.0021685578103643, 2.0191529544536024, 2.035387442156207, 2.052442153420998, 2.068852769007208, 2.0858221469970886, 2.102163130621193, 2.119197703228565, 2.1352973643224686, 2.1524954355263617, 2.168862360471394, 2.1860078663448803, 2.2021802314266097, 2.2192424520035274, 2.235388875735225, 2.2524906909966376, 2.268577040085802, 2.285787057946436, 2.302195966884028, 2.319153398188064, 2.3353844725352246, 2.3525156424439047, 2.3688344394322485, 2.3859359133348335, 2.401951947802445, 2.41912100565969, 2.4355319626047276, 2.4525293298938777, 2.4687231989519205, 2.4858393501781393, 2.5021547338110395, 2.5191449331177864, 2.535573639383074, 2.552512297377689, 2.56881402770523, 2.585886488290271, 2.6021779786096886, 2.6192043592163827, 2.635604052164126, 2.6525522674783133, 2.668867992470041, 2.685892666428117, 2.702176988736028, 2.719183913373854, 2.735534112987807, 2.7525051976554096, 2.768967013224028, 2.785878364549717, 2.801887231034925, 2.8191293342097197, 2.8354037578683347, 2.8525062557891943, 2.8688339274085592, 2.885879081353778, 2.902254198299488, 2.9191262963286135, 2.935617125214776, 2.952509703231044, 2.968813822895754, 2.98585965950042, 3.002206787117757, 3.0192253170826007, 3.0356175006891135, 3.0525360200263094, 3.0686029131466057, 3.085837165650446, 3.102197605272522, 3.119191900565056, 3.135555753513472, 3.152492022200022, 3.1686435659066774, 3.185776101134252, 3.202192178083351, 3.2191707720339764, 3.2353625930845737, 3.252466114994604, 3.268821775971446, 3.2858908232301474, 3.3021440842421725, 3.3191585181921255, 3.3356039497593883, 3.3525272477709223, 3.368881543399766, 3.3859376199834514, 3.402121931721922, 3.4191834696393926, 3.4355039732763544, 3.4525511752290186, 3.4686013430182356, 3.4858885021531023, 3.502287171082571, 3.5191579037928022, 3.535571932705352, 3.5525652040087152, 3.568816417013295, 3.585852354968665, 3.6021121013036463, 3.619182172580622, 3.63555899617495, 3.6525375901546795, 3.6688652618031483, 3.685884815757163, 3.702120327448938, 3.719118718727259, 3.7353521824406926, 3.7524471710203215, 3.7688031732977834, 3.7858971378882416, 3.8018991776916664, 3.8191310408583377, 3.8355512137932237, 3.8525168370979372, 3.8688724980747793, 3.8858473373693414, 3.9021750090178102, 3.91912254167255, 3.9353491787042003, 3.9525165299128275, 3.968835668230895, 3.9858562461740803, 4.001957272586878, 4.019117797142826, 4.035454684781143, 4.052467070723651, 4.068863009015331, 4.085858669626759, 4.102176101267105, 4.1191785885894205, 4.135570430837106, 4.152507040853379, 4.1688869364443235, 4.1859471090429, 4.202190471405629, 4.219128105411073, 4.235456801048713, 4.252487277641194, 4.268809487955878, 4.2858665885578375, 4.3020055029774085, 4.319141792861046, 4.335521005821647, 4.35248253311147, 4.368715655466076, 4.385900073335506, 4.4019724277895875, 4.41916640297859, 4.435558245255379, 4.452475057914853, 4.468569940363523, 4.485818870190997, 4.502272152429214, 4.519133669120492, 4.535548380721593, 4.552502057369566, 4.568853622331517, 4.585925741586834, 4.602194021281321, 4.619158961926587, 4.635318014974473, 4.652472054207465, 4.668639299256029, 4.685923386394279, 4.70219303140766, 4.719228628004203, 4.735423179721693, 4.752456728339894, 4.768849935935577, 4.785991004493553, 4.8021674655610695, 4.819156299519818, 4.83558295777766, 4.852488165110117, 4.868838364753174, 4.885883177368669, 4.901890678505879, 4.919053251040168, 4.9354031093243975, 4.952522332576336, 4.968780372233596, 4.98587740882067, 5.001907437952468, 5.019081957172602, 5.035296306188684, 5.052441812091274, 5.068827851675451, 5.085863789630821, 5.102179173292825, 5.1191512819204945, 5.135319550987333, 5.152498166193254, 5.168846317799762, 5.185898639756488, 5.202049500803696, 5.219128446740797, 5.235498102352722, 5.252528578974307, 5.268818362616003, 5.285804807266686, 5.302152617572574, 5.3191513501806185, 5.3355384138121735, 5.352480485133128, 5.368806791433599, 5.385876521351747, 5.402235595654929, 5.419124419015134, 5.435540837264853, 5.452449799282476, 5.4688208202132955, 5.485917174140923, 5.502179309813073, 5.519164389115758, 5.535578418057412, 5.552424233406782, 5.568832118355203, 5.585926424275385, 5.602127119986108, 5.619147015269846, 5.635479124233825, 5.652476150193252, 5.668837613804499, 5.6859302130760625, 5.70219303140766, 5.719128276075935, 5.735232033155626, 5.752470040344633, 5.768850618624128, 5.78594526584493, 5.802147668233374, 5.819167563517112, 5.835319107252872, 5.852588858397212, 5.868844508746406, 5.885880105372053, 5.90222825697856, 5.9191819336265326, 5.935532474599313, 5.9524448499432765, 5.968851710873423, 5.985903350141598, 6.0021361311664805, 6.019152271794155, 6.0355707380513195, 6.052557524031727, 6.068833313009236, 6.085811565659242, 6.102119098650292, 6.119112369953655, 6.135618900152622, 6.152525131503353, 6.168839832476806, 6.185861093108542, 6.202139271423221, 6.219150292046834, 6.235479670373024, 6.252498541638488, 6.268852154607885, 6.285901745868614, 6.302167294896208, 6.319164662185358, 6.3356158964161295, 6.352530661097262, 6.368793820758583, 6.385921918670647, 6.402185078331968, 6.419138755009044, 6.435545615939191, 6.452549468551297, 6.468672340299236, 6.485772448882926, 6.50216224315227, 6.519141519791447, 6.535350066173123, 6.552436180092627, 6.56878296638024, 6.585891266964609, 6.601891600090312, 6.6190947912982665, 6.635718057426857, 6.652487072860822, 6.668830787151819, 6.685926117061172, 6.702133639424574, 6.719120425404981, 6.7352757237968035, 6.75248744833516]
29	inanimate/n42.jpg	inanimate	animate	left	1.463	[0.0, 0.0, 0.0, 0.0, 0.0, 0.0, 0.0, 0.0, 0.0, -15.0, -56.0, -122.0, -183.0, -230.0, -242.0, -248.0, -249.0, -251.0, -251.0, -251.0, -251.0, -251.0, -253.0, -256.0, -260.0, -264.0, -270.0, -282.0, -300.0, -337.0, -365.0, -387.0, -403.0, -413.0, -420.0, -427.0, -437.0, -445.0, -454.0, -461.0, -464.0, -468.0, -472.0, -472.0, -472.0, -472.0, -472.0, -472.0, -472.0, -472.0, -472.0, -472.0, -472.0, -472.0, -472.0, -473.0, -472.0, -462.0, -442.0, -407.0, -347.0, -282.0, -222.0, -171.0, -111.0, -17.0, 46.0, 84.0, 98.0, 99.0, 99.0, 77.0, 32.0, -55.0, -157.0, -265.0, -365.0, -506.0, -577.0, -640.0, -696.0, -750.0, -797.0, -835.0, -858.0, -868.0, -869.0, -869.0]	[-490.0, -490.0, -490.0, -490.0, -490.0, -490.0, -487.0, -471.0, -431.0, -338.0, -224.0, -98.0, 3.0, 67.0, 84.0, 97.0, 105.0, 110.0, 110.0, 110.0, 110.0, 110.0, 107.0, 98.0, 94.0, 94.0, 98.0, 107.0, 116.0, 142.0, 163.0, 179.0, 189.0, 197.0, 202.0, 209.0, 215.0, 221.0, 226.0, 230.0, 231.0, 234.0, 237.0, 237.0, 237.0, 237.0, 237.0, 237.0, 237.0, 237.0, 237.0, 237.0, 237.0, 237.0, 237.0, 237.0, 234.0, 229.0, 227.0, 226.0, 226.0, 226.0, 226.0, 226.0, 226.0, 221.0, 221.0, 221.0, 224.0, 224.0, 227.0, 230.0, 231.0, 231.0, 239.0, 257.0, 282.0, 327.0, 348.0, 366.0, 379.0, 386.0, 387.0, 387.0, 388.0, 388.0, 388.0, 388.0]	[0.013749514037044719, 0.0193784391740337, 0.030110294988844544, 0.042231718136463314, 0.05939190133358352, 0.07554139706189744, 0.0927299109462183, 0.10882786536240019, 0.12612799517228268, 0.14214880831423216, 0.15932981282821856, 0.1758769617008511, 0.192777731717797, 0.20903747805277817, 0.22614475461887196, 0.24243078363360837, 0.2593755856214557, 0.2755428306700196, 0.29272724853944965, 0.3091296721540857, 0.32616765808779746, 0.3421656019054353, 0.35936845175456256, 0.37583163267117925, 0.39275356533471495, 0.4088146557623986, 0.4260509562736843, 0.4424165158998221, 0.45934868857148103, 0.4758610214339569, 0.4927641807880718, 0.5090863911027554, 0.52608819573652, 0.5422284754749853, 0.5594149413227569, 0.5755961810355075, 0.5927942522394005, 0.6091000785527285, 0.626016549882479, 0.6423756241856609, 0.6594170234748162, 0.6758522150339559, 0.6927690277225338, 0.7090929446858354, 0.7261340026452672, 0.7421527677797712, 0.7593829242687207, 0.7756368679692969, 0.7927096698840614, 0.8090704508358613, 0.8261330127716064, 0.842378764442401, 0.8593942224106286, 0.8758420433150604, 0.8927312080049887, 0.9090452263189945, 0.9260367909446359, 0.9435393313178793, 0.9592720592627302, 0.9758519761089701, 0.9927442127955146, 1.0091275217419025, 1.0261272783682216, 1.0421654995006975, 1.0593021307140589, 1.0756639356841333, 1.092794764233986, 1.1088524413644336, 1.126136528502684, 1.1421511976222973, 1.1593414181552362, 1.1758196177252103, 1.1927234597387724, 1.209087654016912, 1.2260130000358913, 1.242404500982957, 1.2593544229748659, 1.2755575079936534, 1.292722128535388, 1.3090388775162864, 1.3261007567925844, 1.3422331858600955, 1.3593773264146876, 1.3758111526549328, 1.3927419600076973, 1.4090508583176415, 1.4261031802452635, 1.442356099927565]
30	animate/a35.jpg	inanimate	animate	right	1.183	[0.0, 0.0, 0.0, 0.0, 0.0, 0.0, 0.0, 0.0, -2.0, -7.0, -17.0, -48.0, -103.0, -182.0, -259.0, -313.0, -335.0, -344.0, -345.0, -343.0, -341.0, -340.0, -340.0, -340.0, -340.0, -340.0, -340.0, -342.0, -348.0, -351.0, -354.0, -359.0, -364.0, -370.0, -377.0, -382.0, -383.0, -385.0, -386.0, -387.0, -387.0, -387.0, -380.0, -341.0, -282.0, -198.0, -100.0, 26.0, 162.0, 297.0, 406.0, 493.0, 550.0, 586.0, 616.0, 644.0, 655.0, 659.0, 662.0, 665.0, 669.0, 677.0, 686.0, 698.0, 705.0, 706.0, 706.0, 711.0, 717.0, 719.0, 719.0, 719.0]	[-490.0, -490.0, -490.0, -490.0, -490.0, -490.0, -490.0, -490.0, -487.0, -467.0, -431.0, -349.0, -235.0, -119.0, -13.0, 56.0, 90.0, 107.0, 118.0, 126.0, 134.0, 134.0, 135.0, 135.0, 135.0, 124.0, 115.0, 111.0, 107.0, 107.0, 107.0, 108.0, 114.0, 122.0, 128.0, 131.0, 133.0, 135.0, 140.0, 143.0, 146.0, 147.0, 152.0, 165.0, 181.0, 205.0, 219.0, 233.0, 233.0, 235.0, 239.0, 239.0, 239.0, 239.0, 239.0, 239.0, 243.0, 244.0, 246.0, 247.0, 250.0, 256.0, 271.0, 289.0, 320.0, 356.0, 390.0, 420.0, 431.0, 434.0, 436.0, 436.0]	[0.00879963708575815, 0.01467671140562743, 0.019655396870803088, 0.032581683568423614, 0.04964492819271982, 0.06608080244041048, 0.08291398847359233, 0.09934064673143439, 0.1162492674193345, 0.1325998083630111, 0.14961253566434607, 0.165728922089329, 0.1828911532938946, 0.19946356079890393, 0.2162858241936192, 0.2324151812645141, 0.24959277248126455, 0.26592829477158375, 0.2829232727526687, 0.29936358431586996, 0.3162943916686345, 0.3326265006326139, 0.34965288123930804, 0.36569383303867653, 0.38288166423444636, 0.3991076185775455, 0.41625414846930653, 0.43260605476098135, 0.4496003500826191, 0.4659239257161971, 0.4829605463310145, 0.4992687619815115, 0.5162289239524398, 0.532603016908979, 0.5495935575454496, 0.5658160985622089, 0.5829005058039911, 0.5990336175600532, 0.6162231554335449, 0.6325641390576493, 0.6496478636399843, 0.6658888366655447, 0.6829305772553198, 0.6992469849064946, 0.7162283095531166, 0.7325884078454692, 0.749734255077783, 0.7657335642143153, 0.7829015980823897, 0.7990186671668198, 0.8162447276699822, 0.8326174553076271, 0.8496202839305624, 0.8656499717035331, 0.8829200642067008, 0.8993064451497048, 0.9162365698139183, 0.9326062254258431, 0.9495919874170795, 0.9656858458183706, 0.9829156610067002, 0.9993665539077483, 1.01624479595921, 1.0325905582576524, 1.049656874849461, 1.066020727797877, 1.0829399297945201, 1.0992751107551157, 1.1162257154355757, 1.132574891060358, 1.1496272129879799, 1.1659531779587269]
31	inanimate/n53.jpg	inanimate	animate	right	1.064	[0.0, 0.0, 0.0, 0.0, 0.0, 0.0, 0.0, -1.0, -1.0, -1.0, -7.0, -42.0, -96.0, -152.0, -191.0, -225.0, -234.0, -241.0, -245.0, -248.0, -248.0, -250.0, -251.0, -254.0, -257.0, -257.0, -257.0, -257.0, -257.0, -258.0, -265.0, -269.0, -271.0, -272.0, -274.0, -279.0, -284.0, -287.0, -288.0, -288.0, -288.0, -271.0, -217.0, -111.0, 25.0, 163.0, 300.0, 426.0, 532.0, 630.0, 659.0, 678.0, 688.0, 692.0, 696.0, 698.0, 701.0, 703.0, 708.0, 712.0, 716.0, 717.0, 717.0, 717.0]	[-490.0, -490.0, -490.0, -490.0, -490.0, -490.0, -490.0, -490.0, -460.0, -392.0, -288.0, -169.0, -50.0, 48.0, 110.0, 158.0, 174.0, 187.0, 193.0, 198.0, 199.0, 201.0, 201.0, 202.0, 202.0, 202.0, 202.0, 202.0, 202.0, 197.0, 188.0, 185.0, 183.0, 182.0, 182.0, 181.0, 181.0, 181.0, 181.0, 181.0, 181.0, 188.0, 208.0, 238.0, 263.0, 284.0, 299.0, 309.0, 311.0, 311.0, 311.0, 311.0, 316.0, 318.0, 322.0, 333.0, 351.0, 367.0, 383.0, 392.0, 401.0, 402.0, 402.0, 402.0]	[0.004305303387809545, 0.009755369945196435, 0.02413573590456508, 0.040406404907116666, 0.057657382742036134, 0.07401475036749616, 0.09094077904592268, 0.10745140525978059, 0.12431326328078285, 0.14068052955553867, 0.1576649261987768, 0.17407963779987767, 0.19098347981343977, 0.20721557817887515, 0.22435050271451473, 0.24068670769338496, 0.2578564482391812, 0.2738356187182944, 0.29097873528371565, 0.3074019802152179, 0.32437340618344024, 0.34071780313388444, 0.3575755651690997, 0.37407834074110724, 0.39106444403296337, 0.40738494766992517, 0.42440040563815273, 0.44072568794945255, 0.4577206659014337, 0.47380121232708916, 0.491013960854616, 0.5073757658246905, 0.524308279826073, 0.5407246980757918, 0.5577278680284508, 0.5740613423404284, 0.5910464216431137, 0.607411639939528, 0.6243673645949457, 0.6406701189116575, 0.6577965101459995, 0.6738453125872184, 0.6909570264979266, 0.7074502447212581, 0.7243499907199293, 0.7407892783230636, 0.7577125763054937, 0.773823842726415, 0.7910116739221849, 0.8074584708374459, 0.8243513901834376, 0.8405104432604276, 0.8577938477392308, 0.8737907675385941, 0.8909547054208815, 0.9072195717599243, 0.9243186563544441, 0.9406531546555925, 0.9576686125947163, 0.9737890950054862, 0.9910199341829866, 1.0074837977590505, 1.024353506451007, 1.0406743514467962]
