trialIndex	stimulus	left_option	right_option	response	response_time	xTrajectory	yTrajectory	tTrajectory
0	inanimate/n12.jpg	inanimate	animate	right	2.843	[0.0, 0.0, 0.0, 0.0, 0.0, 0.0, 0.0, 0.0, 0.0, 0.0, 0.0, 0.0, 0.0, 0.0, 0.0, 0.0, 0.0, 0.0, 0.0, 0.0, 0.0, 0.0, 0.0, 0.0, 0.0, 0.0, 0.0, 0.0, 0.0, 0.0, 0.0, 0.0, 0.0, 0.0, 0.0, 0.0, -2.0, -4.0, -6.0, -12.0, -19.0, -26.0, -26.0, -29.0, -29.0, -34.0, -34.0, -34.0, -34.0, -34.0, -34.0, -34.0, -34.0, -34.0, -34.0, -34.0, -34.0, -34.0, -34.0, -34.0, -34.0, -34.0, -34.0, -34.0, -34.0, -34.0, -34.0, -34.0, -34.0, -35.0, -35.0, -34.0, -32.0, -30.0, -27.0, -21.0, -16.0, -15.0, -15.0, -14.0, -14.0, -12.0, -12.0, -12.0, -12.0, -12.0, -12.0, -11.0, -11.0, -11.0, -11.0, -11.0, -11.0, -11.0, -11.0, -11.0, -11.0, -11.0, -11.0, -11.0, -11.0, -11.0, -11.0, -11.0, -11.0, -10.0, -4.0, 6.0, 20.0, 31.0, 47.0, 59.0, 65.0, 67.0, 72.0, 75.0, 88.0, 102.0, 116.0, 131.0, 154.0, 201.0, 273.0, 350.0, 419.0, 493.0, 610.0, 638.0, 694.0, 738.0, 748.0, 751.0, 751.0, 751.0, 749.0, 744.0, 741.0, 738.0, 736.0, 732.0, 722.0, 716.0, 705.0, 692.0, 674.0, 654.0, 633.0, 609.0, 592.0, 585.0, 585.0, 585.0, 590.0, 608.0, 636.0, 680.0, 729.0, 777.0, 803.0, 813.0, 813.0, 813.0, 813.0, 814.0, 814.0, 813.0, 813.0, 813.0, 813.0, 813.0, 813.0]	[-490.0, -490.0, -490.0, -490.0, -490.0, -490.0, -490.0, -490.0, -490.0, -490.0, -490.0, -490.0, -490.0, -490.0, -490.0, -490.0, -490.0, -490.0, -490.0, -490.0, -490.0, -490.0, -490.0, -490.0, -490.0, -490.0, -490.0, -490.0, -490.0, -490.0, -490.0, -490.0, -490.0, -490.0, -490.0, -490.0, -483.0, -478.0, -477.0, -475.0, -474.0, -474.0, -474.0, -474.0, -474.0, -475.0, -475.0, -475.0, -475.0, -475.0, -475.0, -475.0, -475.0, -475.0, -475.0, -475.0, -475.0, -475.0, -475.0, -475.0, -475.0, -475.0, -475.0, -475.0, -475.0, -475.0, -475.0, -476.0, -476.0, -486.0, -490.0, -494.0, -498.0, -503.0, -504.0, -506.0, -509.0, -510.0, -510.0, -511.0, -511.0, -512.0, -512.0, -512.0, -512.0, -512.0, -512.0, -512.0, -512.0, -512.0, -512.0, -512.0, -512.0, -512.0, -512.0, -512.0, -512.0, -512.0, -512.0, -512.0, -512.0, -512.0, -512.0, -512.0, -512.0, -512.0, -496.0, -472.0, -447.0, -430.0, -411.0, -396.0, -387.0, -383.0, -374.0, -367.0, -344.0, -328.0, -310.0, -295.0, -274.0, -238.0, -193.0, -156.0, -116.0, -91.0, -56.0, -46.0, -21.0, 6.0, 18.0, 25.0, 35.0, 55.0, 79.0, 101.0, 124.0, 143.0, 158.0, 169.0, 189.0, 198.0, 207.0, 215.0, 228.0, 242.0, 258.0, 274.0, 286.0, 290.0, 290.0, 290.0, 303.0, 319.0, 336.0, 357.0, 379.0, 396.0, 403.0, 405.0, 405.0, 405.0, 405.0, 406.0, 411.0, 416.0, 419.0, 419.0, 419.0, 419.0, 419.0]	[0.00989313199534081, 0.015090953325852752, 0.020507227891357616, 0.035173631040379405, 0.05126646548160352, 0.06835121405310929, 0.08477684832178056, 0.10170390098937787, 0.11789094336563721, 0.13474972939002328, 0.1516603980853688, 0.16790205377037637, 0.18501581565942615, 0.2016250871529337, 0.2184726092091296, 0.23456441963207908, 0.2517368908447679, 0.26812839179183356, 0.28520460703293793, 0.3016599372786004, 0.31848697931854986, 0.33458117907866836, 0.3517727649596054, 0.36823014318360947, 0.3851333025377244, 0.4015084194834344, 0.41848394146654755, 0.4347221838252153, 0.45208409492624924, 0.46822164399782196, 0.48536032321862876, 0.5012517710856628, 0.5187461194582283, 0.5347024206421338, 0.5520943690498825, 0.5680936781864148, 0.5854463733267039, 0.6013385038531851, 0.6204456513805781, 0.6348017826967407, 0.6544659859791864, 0.6679872163804248, 0.6877811262384057, 0.7015085218881723, 0.721014687907882, 0.7346028196043335, 0.7541936362395063, 0.7679186425521038, 0.7867499929270707, 0.8014870520273689, 0.8194715548306704, 0.8346066084050108, 0.8529604336654302, 0.8680616952769924, 0.8858246728486847, 0.901465240836842, 0.9183595255308319, 0.9345919652259909, 0.9517323510954157, 0.9680432974128053, 0.9852352246234659, 1.0015444642631337, 1.0184414796240162, 1.0345995086827315, 1.0517101985751651, 1.0682000034721568, 1.0851212534762453, 1.1014601891220082, 1.1183298978139646, 1.1346101241360884, 1.1515757474699058, 1.1680218616966158, 1.185026396997273, 1.2015127885679249, 1.2184323318942916, 1.2346883235732093, 1.251734501507599, 1.268212701077573, 1.285124735091813, 1.3012557988113258, 1.3183842380531132, 1.3345627470989712, 1.351726343651535, 1.3679116793500725, 1.385073910583742, 1.4012455929478165, 1.4183904161909595, 1.4345904292131308, 1.4517260364373215, 1.46792980414466, 1.4851708833302837, 1.501268496416742, 1.5183348130085506, 1.534713684610324, 1.5515813453239389, 1.567926424962934, 1.585167504119454, 1.6015405730868224, 1.6182802338444162, 1.6347536547400523, 1.6516598860907834, 1.668202256289078, 1.6849866316770203, 1.7043033577792812, 1.7183113292849157, 1.7372225516010076, 1.7516558242205065, 1.7707998357363977, 1.7850839457532857, 1.8040258880646434, 1.818323992745718, 1.83724955105572, 1.8515503864036873, 1.870478675380582, 1.8849320866575, 1.9025302003137767, 1.9183390455436893, 1.935789703275077, 1.9516494071576744, 1.967962742812233, 1.9850744566938374, 2.0012809550680686, 2.0181004877958912, 2.037211731338175, 2.0515180280199274, 2.0708811754302587, 2.0845689764246345, 2.101483741105767, 2.118166740547167, 2.1351825398451183, 2.1514771021611523, 2.1684331681462936, 2.184576519881375, 2.2017138337832876, 2.218212854670128, 2.2350299980607815, 2.2513252430362627, 2.268407943629427, 2.2845680206955876, 2.301668470609002, 2.3181848994863685, 2.334990778879728, 2.3512938745261636, 2.368324692477472, 2.384643489465816, 2.401673966058297, 2.4179398564156145, 2.4351720609120093, 2.451293567341054, 2.4684301985544153, 2.4846834595664404, 2.501618362904992, 2.51796617321088, 2.535054676438449, 2.5512174841715023, 2.5684015607112087, 2.584520336444257, 2.601674717006972, 2.6178672207170166, 2.6350492492492776, 2.651207278307993, 2.668359610863263, 2.6845582585665397, 2.7016832844528835, 2.7178996815055143, 2.7350977526803035, 2.7512731897295453, 2.7683883169665933, 2.7845763833611272, 2.8017003852583002, 2.817906542302808]
1	animate/a38.jpg	inanimate	animate	right	1.22	[0.0, -1.0, -1.0, -1.0, -1.0, -1.0, -1.0, -1.0, -1.0, -1.0, -1.0, -1.0, -1.0, -1.0, -1.0, -1.0, -1.0, -1.0, -1.0, -1.0, -1.0, -1.0, -1.0, -1.0, -1.0, -1.0, -1.0, -1.0, -1.0, -1.0, -1.0, -1.0, -1.0, -1.0, -1.0, -1.0, -1.0, -1.0, -1.0, -1.0, -1.0, -1.0, -1.0, -1.0, -1.0, 7.0, 16.0, 32.0, 55.0, 90.0, 138.0, 184.0, 242.0, 305.0, 390.0, 438.0, 484.0, 524.0, 558.0, 592.0, 627.0, 656.0, 680.0, 711.0, 737.0, 763.0, 792.0, 805.0, 814.0, 821.0, 828.0, 834.0, 838.0, 838.0]	[-490.0, -490.0, -490.0, -490.0, -490.0, -490.0, -490.0, -490.0, -490.0, -490.0, -490.0, -490.0, -490.0, -490.0, -490.0, -490.0, -490.0, -490.0, -490.0, -490.0, -490.0, -490.0, -490.0, -490.0, -490.0, -490.0, -490.0, -490.0, -490.0, -490.0, -490.0, -490.0, -490.0, -490.0, -490.0, -490.0, -490.0, -490.0, -490.0, -490.0, -490.0, -490.0, -490.0, -490.0, -488.0, -472.0, -459.0, -440.0, -412.0, -379.0, -339.0, -298.0, -243.0, -184.0, -107.0, -66.0, -27.0, 7.0, 41.0, 81.0, 122.0, 154.0, 182.0, 221.0, 253.0, 285.0, 325.0, 346.0, 363.0, 380.0, 394.0, 407.0, 415.0, 416.0]	[0.013700157287530601, 0.018427621544105932, 0.025538273883285, 0.042160174722084776, 0.059001211426220834, 0.07687853561947122, 0.09229621305712499, 0.10937379364622757, 0.12573867058381438, 0.1426766459189821, 0.15904869086807594, 0.17603718349710107, 0.1921627859119326, 0.20922705449629575, 0.22548748351982795, 0.24263708540820517, 0.2591470289626159, 0.27620993222808465, 0.29218227602541447, 0.3093598672421649, 0.3257916455040686, 0.34262585555552505, 0.35912282843491994, 0.37604783309507184, 0.3922048381646164, 0.4093643387022894, 0.425668799696723, 0.4425740070291795, 0.4591143292200286, 0.4759987152647227, 0.4922717736044433, 0.509298495540861, 0.5254991912515834, 0.5427952250465751, 0.5591030993673485, 0.5759168294316623, 0.5922134397551417, 0.6092780496692285, 0.6254685054009315, 0.64281061917427, 0.658844744291855, 0.6760247248457745, 0.6922022099024616, 0.7092965157935396, 0.725698598078452, 0.7426867493777536, 0.7590758609876502, 0.7758991483715363, 0.7922152146929875, 0.8093221499293577, 0.82574539486086, 0.8426997541682795, 0.8588919165486004, 0.8759087398357224, 0.8921087528869975, 0.9092808827408589, 0.9255064957833383, 0.9425738363643177, 0.9587888680689503, 0.9759152593032923, 0.9921224403369706, 1.0092505382199306, 1.0254580606124364, 1.042595374485245, 1.0588998354796786, 1.0759221201005857, 1.0921562664443627, 1.1093007483286783, 1.125552644021809, 1.142671184585197, 1.1591176401707344, 1.1758446716121398, 1.1922279805585276, 1.2093171664746478]
2	inanimate/n48.jpg	inanimate	animate	left	1.345	[0.0, 0.0, 0.0, 0.0, 0.0, 0.0, 0.0, 0.0, 0.0, 0.0, 0.0, 0.0, 0.0, 0.0, 0.0, 0.0, 0.0, 0.0, 0.0, 0.0, 0.0, 0.0, 0.0, 0.0, 0.0, 0.0, 0.0, 0.0, 0.0, 0.0, 0.0, 0.0, 0.0, 0.0, 0.0, 0.0, 0.0, 0.0, 0.0, 0.0, 3.0, 10.0, 14.0, 16.0, 16.0, 10.0, -10.0, -24.0, -24.0, -17.0, -8.0, -3.0, 0.0, 1.0, -2.0, -25.0, -85.0, -165.0, -230.0, -288.0, -349.0, -418.0, -500.0, -576.0, -642.0, -724.0, -775.0, -805.0, -818.0, -824.0, -824.0, -824.0, -824.0, -824.0, -824.0, -824.0, -824.0, -817.0, -812.0, -807.0, -804.0, -804.0]	[-490.0, -490.0, -490.0, -490.0, -490.0, -490.0, -490.0, -490.0, -490.0, -490.0, -490.0, -490.0, -490.0, -490.0, -490.0, -490.0, -490.0, -490.0, -490.0, -490.0, -490.0, -490.0, -490.0, -490.0, -490.0, -490.0, -490.0, -490.0, -490.0, -490.0, -490.0, -490.0, -490.0, -490.0, -490.0, -490.0, -490.0, -490.0, -490.0, -490.0, -476.0, -447.0, -424.0, -406.0, -380.0, -350.0, -305.0, -258.0, -212.0, -162.0, -130.0, -109.0, -94.0, -81.0, -66.0, -48.0, -17.0, 15.0, 45.0, 76.0, 111.0, 147.0, 189.0, 224.0, 249.0, 273.0, 285.0, 294.0, 298.0, 302.0, 302.0, 302.0, 302.0, 306.0, 318.0, 332.0, 347.0, 375.0, 390.0, 403.0, 410.0, 412.0]	[0.006057025166228414, 0.011322771810228005, 0.019680314202560112, 0.027104993059765548, 0.04381700584781356, 0.06097275172942318, 0.0771591114171315, 0.09417968938942067, 0.11047629971290007, 0.12775970419170335, 0.14384639461059123, 0.16100282318075188, 0.17741616943385452, 0.19419064617250115, 0.21065860573435202, 0.22768362102215178, 0.2466197606700007, 0.26084447870380245, 0.2798734609677922, 0.29422208297182806, 0.31359000905649737, 0.32763211385463364, 0.3446346011478454, 0.3610008434334304, 0.37802722404012457, 0.3943733276973944, 0.4112761456926819, 0.42766696398030035, 0.4438417183700949, 0.4605598751222715, 0.47945095878094435, 0.49407162331044674, 0.5137914638617076, 0.5272290676657576, 0.5443144989258144, 0.5606640158803202, 0.5800838246068452, 0.594077118759742, 0.6122708587790839, 0.6272045258083381, 0.6468567824049387, 0.6605899807182141, 0.6789735019556247, 0.693892491661245, 0.7112038854684215, 0.7272250399400946, 0.7454238999343943, 0.7604702069074847, 0.7779358832922298, 0.7941727603320032, 0.8112749168940354, 0.8273817459703423, 0.8445828891708516, 0.8607422835775651, 0.8776454429025762, 0.8941434398002457, 0.9112186310521793, 0.9274626760743558, 0.9442760648089461, 0.9605808671331033, 0.977480271802051, 0.9938622154004406, 1.0110363932908513, 1.0271623370354064, 1.0442545949481428, 1.060655311885057, 1.0776154738559853, 1.0940578334557358, 1.1111548700137064, 1.1271729524887633, 1.1443201650399715, 1.160744092630921, 1.1775233480439056, 1.194058550230693, 1.210980141593609, 1.2271258826367557, 1.2441881032427773, 1.2607239881181158, 1.2776466034410987, 1.2937855178606696, 1.3108951837639324, 1.3276669298356865]
3	inanimate/n17.jpg	inanimate	animate	left	1.25	[0.0, 0.0, 0.0, 0.0, 0.0, 0.0, 0.0, 0.0, 0.0, 0.0, 0.0, 0.0, 0.0, 0.0, 0.0, 0.0, 0.0, 0.0, 0.0, 0.0, 0.0, 0.0, 0.0, 0.0, 0.0, 0.0, 0.0, 0.0, 0.0, 0.0, 0.0, 0.0, 0.0, 0.0, 0.0, 0.0, 0.0, 0.0, 0.0, 0.0, 0.0, 0.0, 0.0, 0.0, 0.0, 1.0, 2.0, 3.0, 3.0, 3.0, 1.0, -25.0, -76.0, -144.0, -221.0, -298.0, -379.0, -501.0, -540.0, -601.0, -649.0, -692.0, -701.0, -715.0, -721.0, -722.0, -722.0, -724.0, -728.0, -730.0, -735.0, -741.0, -745.0, -748.0, -750.0, -750.0]	[-490.0, -490.0, -490.0, -490.0, -490.0, -490.0, -490.0, -490.0, -490.0, -490.0, -490.0, -490.0, -490.0, -490.0, -490.0, -490.0, -490.0, -490.0, -490.0, -490.0, -490.0, -490.0, -490.0, -490.0, -490.0, -490.0, -490.0, -490.0, -490.0, -490.0, -490.0, -490.0, -490.0, -490.0, -490.0, -490.0, -490.0, -490.0, -490.0, -490.0, -490.0, -490.0, -490.0, -490.0, -489.0, -486.0, -483.0, -474.0, -469.0, -455.0, -396.0, -335.0, -244.0, -144.0, -30.0, 76.0, 192.0, 363.0, 413.0, 495.0, 540.0, 540.0, 540.0, 540.0, 540.0, 540.0, 540.0, 540.0, 540.0, 540.0, 540.0, 540.0, 538.0, 535.0, 534.0, 534.0]	[0.007627157698152587, 0.012636563129490241, 0.01743195267044939, 0.030620383273344487, 0.04723409208236262, 0.0640730808081571, 0.08029664581408724, 0.09733429044717923, 0.11391113526769914, 0.1307333986624144, 0.1469849530258216, 0.16424173352424987, 0.18050352786667645, 0.19749679914093576, 0.21372309484286234, 0.23069554482935928, 0.24694334450759925, 0.2641345890297089, 0.28031105009722523, 0.29744119598763064, 0.313621753040934, 0.3307928589056246, 0.34695293597178534, 0.36410697517567314, 0.38040529217687435, 0.39750028075650334, 0.41364568046992645, 0.4308365836914163, 0.44698607941973023, 0.46410905732773244, 0.4804664249531925, 0.49729858699720353, 0.5137399225786794, 0.5309052257798612, 0.5471021668345202, 0.5641381047607865, 0.58305444708094, 0.5973597197444178, 0.6165201152907684, 0.6307117240212392, 0.6498192129074596, 0.6639831736392807, 0.6830346838978585, 0.6973877432174049, 0.716393173468532, 0.7307503288029693, 0.7498359723540489, 0.7639886691176798, 0.7809638497419655, 0.7973782200133428, 0.8137891769583803, 0.8304254137619864, 0.8506081021041609, 0.8639412579359487, 0.8833627733110916, 0.897288483538432, 0.9166902015858795, 0.9303285092755686, 0.9484270173416007, 0.9638450361089781, 0.9815254110726528, 0.9971646137128118, 1.0152528817998245, 1.0303189860715065, 1.0481386249593925, 1.063862819573842, 1.0812127840181347, 1.096938685310306, 1.1141190071648452, 1.1302664549148176, 1.1474464354396332, 1.1638645603670739, 1.1809619382838719, 1.1972046179580502, 1.2139753400406335, 1.2303972196532413]
4	animate/a63.jpg	inanimate	animate	right	0.984	[0.0, 0.0, 0.0, 2.0, 4.0, 4.0, 5.0, 5.0, 5.0, 5.0, 5.0, 5.0, 5.0, 5.0, 5.0, 5.0, 5.0, 5.0, 5.0, 5.0, 5.0, 5.0, 5.0, 5.0, 5.0, 5.0, 5.0, 5.0, 5.0, 5.0, 8.0, 21.0, 32.0, 58.0, 95.0, 148.0, 209.0, 276.0, 339.0, 391.0, 426.0, 457.0, 481.0, 510.0, 549.0, 572.0, 591.0, 625.0, 650.0, 667.0, 682.0, 699.0, 716.0, 732.0, 752.0, 782.0, 800.0, 806.0, 806.0]	[-490.0, -492.0, -493.0, -496.0, -498.0, -498.0, -498.0, -498.0, -498.0, -498.0, -498.0, -498.0, -498.0, -498.0, -498.0, -498.0, -498.0, -498.0, -498.0, -498.0, -498.0, -498.0, -498.0, -498.0, -498.0, -498.0, -498.0, -498.0, -498.0, -498.0, -494.0, -475.0, -460.0, -423.0, -371.0, -307.0, -234.0, -154.0, -79.0, -22.0, 16.0, 47.0, 68.0, 94.0, 128.0, 153.0, 178.0, 218.0, 247.0, 266.0, 286.0, 306.0, 329.0, 352.0, 375.0, 408.0, 422.0, 429.0, 429.0]	[0.002057283214526251, 0.007969173515448347, 0.01870990401948802, 0.035823665937641636, 0.0520810229354538, 0.06900671028415672, 0.08533881924813613, 0.10249797845608555, 0.11865600751480088, 0.13576430809916928, 0.15200289178756066, 0.16917194964480586, 0.1853371467150282, 0.20258129786816426, 0.21880315625458024, 0.2358404595288448, 0.25202204057131894, 0.2691914397873916, 0.2853907701501157, 0.3024946333898697, 0.3187523317465093, 0.33578622169443406, 0.35204357869224623, 0.36926417786162347, 0.3853860256203916, 0.4025438195094466, 0.4190158750570845, 0.4357360798458103, 0.452272647380596, 0.46920038270764053, 0.48781703450367786, 0.5025407816283405, 0.5203355031844694, 0.5358569459058344, 0.5527116359444335, 0.569265270140022, 0.5853202165744733, 0.6022800372447819, 0.6187606261228211, 0.6356002975080628, 0.6522583796468098, 0.6690891763719264, 0.6856100425648037, 0.7023107913555577, 0.7188135668984614, 0.7355873609776609, 0.7520075339125469, 0.7690318665117957, 0.7855971060344018, 0.8024422387534287, 0.8186733131005894, 0.8355232244939543, 0.8524714398081414, 0.8686973941512406, 0.88587737470516, 0.9023053982818965, 0.9192181149555836, 0.9356649118708447, 0.9523960392980371]
5	inanimate/n71.jpg	inanimate	animate	left	1.315	[0.0, 0.0, 0.0, 0.0, 0.0, 0.0, 0.0, 0.0, 0.0, 0.0, 0.0, 0.0, 0.0, 0.0, 0.0, 0.0, 0.0, 0.0, 0.0, 0.0, 0.0, 0.0, 0.0, 0.0, 0.0, 1.0, 1.0, 1.0, 1.0, 1.0, 1.0, 2.0, 2.0, 2.0, 2.0, 2.0, 3.0, 3.0, 3.0, 4.0, 4.0, 4.0, 4.0, 4.0, 4.0, 5.0, 7.0, 8.0, 10.0, 11.0, 11.0, 8.0, -14.0, -61.0, -130.0, -192.0, -247.0, -271.0, -276.0, -276.0, -275.0, -273.0, -271.0, -271.0, -284.0, -315.0, -356.0, -410.0, -478.0, -563.0, -631.0, -688.0, -700.0, -705.0, -706.0, -708.0, -708.0, -708.0, -708.0]	[-490.0, -490.0, -490.0, -490.0, -490.0, -490.0, -490.0, -490.0, -490.0, -490.0, -490.0, -490.0, -490.0, -490.0, -490.0, -490.0, -490.0, -490.0, -490.0, -490.0, -490.0, -490.0, -490.0, -490.0, -490.0, -490.0, -490.0, -490.0, -490.0, -490.0, -490.0, -490.0, -490.0, -490.0, -490.0, -488.0, -488.0, -488.0, -487.0, -485.0, -485.0, -485.0, -484.0, -483.0, -482.0, -479.0, -476.0, -472.0, -467.0, -460.0, -446.0, -428.0, -385.0, -295.0, -200.0, -120.0, -58.0, -11.0, 35.0, 59.0, 80.0, 97.0, 114.0, 132.0, 159.0, 201.0, 249.0, 307.0, 367.0, 432.0, 482.0, 528.0, 540.0, 540.0, 540.0, 540.0, 540.0, 540.0, 540.0]	[0.010749536886578426, 0.015614899719366804, 0.022030939115211368, 0.03644475573673844, 0.052711670054122806, 0.06984488797024824, 0.08603466101340018, 0.1029825349978637, 0.11939827058813535, 0.1366198937757872, 0.15281888280878775, 0.1698739354033023, 0.18610159642412327, 0.20307745973696, 0.21968092856695876, 0.2364898799569346, 0.25290459155803546, 0.26995588949648663, 0.2863385157834273, 0.30318433116190135, 0.32173408166272566, 0.33643837278941646, 0.3555994509952143, 0.3697497583925724, 0.38850806347909383, 0.4030642160214484, 0.42199079832062125, 0.43645342558738776, 0.4536579821142368, 0.4699197764566634, 0.48662018388858996, 0.5031854234111961, 0.5194888604164589, 0.5362411504902411, 0.5557094285322819, 0.5694327281671576, 0.5873339456738904, 0.6029908976634033, 0.6202019395132083, 0.6362166086328216, 0.6532542532659136, 0.6695225329312962, 0.686658822814934, 0.703041107772151, 0.7199886404268909, 0.7363664880394936, 0.7532372207206208, 0.7695133510569576, 0.7865697689994704, 0.8030524058849551, 0.8198872985958587, 0.8363559408462606, 0.8532338415388949, 0.8694242972414941, 0.8865622938028537, 0.9030203547154088, 0.9199487727019005, 0.9362897563260049, 0.9530782277288381, 0.9695014726603404, 0.9865043012832757, 1.003173306089593, 1.020103089424083, 1.0361338012153283, 1.0532260591280647, 1.0696431600663345, 1.0865234500961378, 1.102718001784524, 1.1200311022694223, 1.1360925340268295, 1.1531649946409743, 1.1694411249773111, 1.1864753562549595, 1.2027153052622452, 1.219936928449897, 1.236373485357035, 1.253353786014486, 1.269440476433374, 1.2865228356968146]
6	inanimate/n29.jpg	animate	inanimate	right	1.428	[0.0, 0.0, 0.0, 0.0, 0.0, 0.0, 0.0, 0.0, 0.0, 0.0, 0.0, 0.0, 0.0, 0.0, 0.0, 0.0, 0.0, 0.0, 0.0, 0.0, 0.0, 0.0, 0.0, 0.0, 0.0, 0.0, 0.0, 0.0, 0.0, 0.0, 0.0, 0.0, 0.0, 0.0, 0.0, -11.0, -26.0, -46.0, -71.0, -102.0, -135.0, -169.0, -204.0, -245.0, -285.0, -331.0, -379.0, -461.0, -486.0, -549.0, -581.0, -602.0, -620.0, -631.0, -633.0, -633.0, -634.0, -627.0, -600.0, -532.0, -410.0, -265.0, -19.0, 122.0, 217.0, 271.0, 310.0, 332.0, 342.0, 351.0, 368.0, 398.0, 445.0, 524.0, 598.0, 685.0, 732.0, 757.0, 775.0, 790.0, 805.0, 822.0, 839.0, 854.0, 862.0, 862.0]	[-490.0, -491.0, -491.0, -491.0, -491.0, -491.0, -491.0, -491.0, -491.0, -491.0, -491.0, -491.0, -491.0, -491.0, -491.0, -491.0, -491.0, -491.0, -491.0, -491.0, -491.0, -491.0, -491.0, -491.0, -491.0, -491.0, -491.0, -491.0, -491.0, -491.0, -491.0, -491.0, -491.0, -491.0, -491.0, -477.0, -461.0, -442.0, -424.0, -396.0, -358.0, -320.0, -266.0, -194.0, -122.0, -42.0, 28.0, 143.0, 178.0, 259.0, 292.0, 314.0, 328.0, 336.0, 338.0, 338.0, 339.0, 343.0, 346.0, 346.0, 346.0, 346.0, 346.0, 346.0, 348.0, 356.0, 363.0, 366.0, 368.0, 370.0, 372.0, 377.0, 384.0, 397.0, 410.0, 426.0, 433.0, 435.0, 438.0, 439.0, 441.0, 444.0, 446.0, 450.0, 453.0, 453.0]	[0.016504072642419487, 0.021893381868721917, 0.030827777285594493, 0.04802926181582734, 0.06418114688131027, 0.08134303675615229, 0.09758571645943448, 0.1147653556545265, 0.13100189133547246, 0.14801803196314722, 0.1642327223380562, 0.18129016426973976, 0.19754991060472094, 0.2145848245418165, 0.2308923575328663, 0.2480494687333703, 0.26423924177652225, 0.2814120543189347, 0.29757042473647743, 0.31473879993427545, 0.33124498880351894, 0.34796997223747894, 0.3643710305332206, 0.38135201382101513, 0.3979844959685579, 0.4146920714119915, 0.43377976297051646, 0.4479058357537724, 0.4672700071823783, 0.48123531200690195, 0.5006414674280677, 0.5145886816026177, 0.5336296105233487, 0.5479475125321187, 0.5673294332809746, 0.581253778131213, 0.6007206908543594, 0.6146597130282316, 0.632126754760975, 0.648047215945553, 0.6653705564094707, 0.6816094814275857, 0.6983918088371865, 0.7146815925079864, 0.7308877495233901, 0.7476953355944715, 0.7671905789466109, 0.7809053452510852, 0.8005309778673109, 0.8145126667222939, 0.8313028447737452, 0.8478308789781295, 0.867246933048591, 0.8812678752001375, 0.9002343934844248, 0.9144652555405628, 0.9317643613612745, 0.9478114571247716, 0.9657014106342103, 0.9808770828822162, 0.9980294154083822, 1.014274825778557, 1.0324231684789993, 1.0478347019234207, 1.0646446773025673, 1.0809139809862245, 1.098043102887459, 1.1144677131378558, 1.1315801097080112, 1.1479620533355046, 1.1646542687667534, 1.1808979724592064, 1.198020609037485, 1.2142380300501827, 1.2313647626142483, 1.2478187275410164, 1.2647768415044993, 1.2809249719139189, 1.297933603200363, 1.3144773387466557, 1.3313180341210682, 1.3476300044276286, 1.3646836917032488, 1.3811052299570292, 1.3979179360030685, 1.41428042363259]
7	animate/a78.jpg	animate	inanimate	left	1.148	[0.0, 0.0, 0.0, 0.0, 0.0, 0.0, 0.0, 0.0, 0.0, 0.0, 0.0, 0.0, 0.0, 0.0, 0.0, 0.0, 0.0, 0.0, 0.0, 0.0, 0.0, 0.0, 0.0, 0.0, 0.0, 0.0, 0.0, 0.0, 0.0, 0.0, 0.0, 0.0, 0.0, 0.0, 0.0, 0.0, 0.0, 0.0, 0.0, 0.0, 0.0, 0.0, 0.0, -2.0, -14.0, -21.0, -52.0, -74.0, -112.0, -157.0, -211.0, -278.0, -351.0, -415.0, -468.0, -519.0, -577.0, -632.0, -680.0, -729.0, -758.0, -772.0, -781.0, -783.0, -784.0, -784.0, -784.0, -785.0, -785.0]	[-490.0, -490.0, -490.0, -490.0, -490.0, -490.0, -490.0, -490.0, -490.0, -490.0, -490.0, -490.0, -490.0, -490.0, -490.0, -490.0, -490.0, -490.0, -490.0, -490.0, -490.0, -490.0, -490.0, -490.0, -490.0, -490.0, -490.0, -490.0, -490.0, -490.0, -490.0, -490.0, -490.0, -490.0, -490.0, -490.0, -490.0, -490.0, -490.0, -490.0, -490.0, -490.0, -490.0, -484.0, -469.0, -463.0, -437.0, -417.0, -383.0, -330.0, -263.0, -190.0, -123.0, -57.0, 5.0, 71.0, 148.0, 213.0, 269.0, 335.0, 383.0, 413.0, 426.0, 431.0, 435.0, 440.0, 446.0, 446.0, 446.0]	[0.013978889939608052, 0.019192071282304823, 0.02846131453406997, 0.04290585115086287, 0.061082183150574565, 0.07622986607020721, 0.09386689172242768, 0.10975833958946168, 0.1265451043145731, 0.14289120794273913, 0.1599466018669773, 0.17643674809369259, 0.19319176886347122, 0.2096542670915369, 0.2265686904429458, 0.2428369701083284, 0.2599524386751, 0.27638728893361986, 0.29331843758700415, 0.30974373052595183, 0.3265847672300879, 0.34281413492863066, 0.35990024884813465, 0.3761992484796792, 0.393211293121567, 0.4095246287761256, 0.4264622627524659, 0.4427752570773009, 0.45995455494266935, 0.4761402320000343, 0.4932208845857531, 0.5094417189247906, 0.5265339768666308, 0.5428032805211842, 0.5599303544149734, 0.5761402661155444, 0.5933021559903864, 0.6095229903585277, 0.6265538083098363, 0.6428313039650675, 0.6600092365115415, 0.6762990201823413, 0.693127427570289, 0.7097319203894585, 0.7264572451531421, 0.7431644792668521, 0.7598843426967505, 0.7763601529295556, 0.7933175842626952, 0.8121322093065828, 0.8264910712605342, 0.8447691205947194, 0.8598973475163803, 0.8787819458229933, 0.8931527544918936, 0.9107348254765384, 0.9265600547078066, 0.943790893885307, 0.9599096696183551, 0.9765097251220141, 0.9931647352641448, 1.0097231481340714, 1.0265133261855226, 1.0430481870716903, 1.0598472397832666, 1.0762192847614642, 1.0932408866938204, 1.1097457102441695, 1.1263949177227914]
8	inanimate/n28.jpg	inanimate	animate	right	1.235	[0.0, -1.0, -1.0, -1.0, -1.0, -1.0, -1.0, -1.0, -1.0, -1.0, -1.0, -1.0, -1.0, -1.0, -1.0, -1.0, -1.0, -1.0, -1.0, -1.0, -1.0, -1.0, -1.0, -1.0, -1.0, -1.0, -1.0, -1.0, -1.0, -1.0, -1.0, -1.0, -1.0, -1.0, -1.0, -1.0, -1.0, -1.0, -1.0, -1.0, -1.0, -2.0, -2.0, -2.0, -3.0, -3.0, -3.0, -3.0, -3.0, -3.0, 4.0, 10.0, 55.0, 97.0, 138.0, 173.0, 207.0, 254.0, 308.0, 363.0, 420.0, 486.0, 558.0, 632.0, 718.0, 739.0, 799.0, 836.0, 861.0, 872.0, 881.0, 891.0, 900.0, 901.0]	[-490.0, -491.0, -491.0, -491.0, -491.0, -491.0, -491.0, -491.0, -491.0, -491.0, -491.0, -491.0, -491.0, -491.0, -491.0, -491.0, -491.0, -491.0, -491.0, -491.0, -491.0, -491.0, -491.0, -491.0, -491.0, -491.0, -491.0, -491.0, -491.0, -491.0, -491.0, -491.0, -491.0, -491.0, -491.0, -491.0, -491.0, -491.0, -490.0, -489.0, -487.0, -485.0, -483.0, -481.0, -477.0, -474.0, -469.0, -465.0, -461.0, -455.0, -431.0, -421.0, -358.0, -312.0, -264.0, -228.0, -188.0, -131.0, -72.0, -21.0, 19.0, 65.0, 105.0, 148.0, 215.0, 242.0, 344.0, 418.0, 458.0, 483.0, 507.0, 528.0, 540.0, 540.0]	[0.016529672575416043, 0.021953115152427927, 0.03139165963511914, 0.04807807243196294, 0.06476448522880673, 0.08141608201549388, 0.09776252700248733, 0.11473429430043325, 0.1311531018873211, 0.1480323679279536, 0.1649652232590597, 0.1812488629075233, 0.19822540887980722, 0.2145049525424838, 0.2316224691167008, 0.24779790616594255, 0.2650195293535944, 0.28126596371294, 0.29830190163920633, 0.3145002080127597, 0.3316337672586087, 0.34780442563351244, 0.36493491285364144, 0.3811448245542124, 0.39828930646763183, 0.4144968288310338, 0.43176145997131243, 0.44783654509228654, 0.4648598537023645, 0.48146161588374525, 0.49815451400354505, 0.5146037002268713, 0.5315928755444475, 0.5479915444739163, 0.5648687625071034, 0.5814841779938433, 0.5983177053858526, 0.617438164917985, 0.6316741469490808, 0.6506399825739209, 0.6648152073321398, 0.6839336188859306, 0.6981907635636162, 0.7173033724538982, 0.731611034454545, 0.7508069286413956, 0.7648486921098083, 0.7827260163030587, 0.7982232243521139, 0.8172644946025684, 0.8314875059877522, 0.8493921368208248, 0.8649879901786335, 0.8823529732762836, 0.8982017544913106, 0.915733308182098, 0.9316749320423696, 0.948913963191444, 0.9648832350212615, 0.9823502767540049, 0.9982676659419667, 1.0145437962783035, 1.0312274783791509, 1.051264417474158, 1.0646102026221342, 1.0841354833100922, 1.0980649481643923, 1.1151756380859297, 1.1312073738663457, 1.150967833091272, 1.1647484767017886, 1.1818820359185338, 1.1980209503381047, 1.2150005683070049]
9	animate/a13.jpg	inanimate	animate	right	0.962	[0.0, -1.0, -1.0, -1.0, -1.0, -1.0, -1.0, -1.0, -1.0, -1.0, 0.0, 2.0, 4.0, 4.0, 5.0, 5.0, 5.0, 5.0, 5.0, 5.0, 5.0, 5.0, 5.0, 6.0, 7.0, 7.0, 7.0, 8.0, 9.0, 13.0, 20.0, 33.0, 50.0, 70.0, 120.0, 169.0, 231.0, 295.0, 348.0, 388.0, 427.0, 470.0, 510.0, 547.0, 584.0, 610.0, 643.0, 670.0, 694.0, 719.0, 736.0, 747.0, 768.0, 814.0, 860.0, 881.0, 886.0, 886.0, 886.0]	[-490.0, -490.0, -490.0, -490.0, -490.0, -490.0, -490.0, -490.0, -490.0, -490.0, -490.0, -490.0, -489.0, -489.0, -489.0, -489.0, -489.0, -489.0, -489.0, -489.0, -489.0, -489.0, -489.0, -486.0, -484.0, -484.0, -482.0, -481.0, -480.0, -477.0, -472.0, -464.0, -455.0, -444.0, -412.0, -362.0, -287.0, -219.0, -166.0, -125.0, -86.0, -39.0, 2.0, 47.0, 93.0, 126.0, 172.0, 206.0, 241.0, 280.0, 311.0, 329.0, 349.0, 379.0, 399.0, 406.0, 406.0, 406.0, 406.0]	[0.012859795038821176, 0.0184580001514405, 0.02381317608524114, 0.043180078180739656, 0.05756590547389351, 0.07691881290520541, 0.09092064038850367, 0.10910960176261142, 0.12425660199369304, 0.14176323835272342, 0.15768301687785424, 0.1751309439423494, 0.19097426382359117, 0.20802078311680816, 0.22425800145720132, 0.24079627566970885, 0.2576598403684329, 0.27420971987885423, 0.2908411780372262, 0.30723779895924963, 0.3240685956843663, 0.34347884709131904, 0.35716972008231096, 0.37693632330046967, 0.39057326564216055, 0.4087891923263669, 0.42419014443294145, 0.44236988978809677, 0.4573137967963703, 0.47511875836062245, 0.4906896943866741, 0.5078290562669281, 0.5240457946492825, 0.541127471224172, 0.5571407750248909, 0.574338846228784, 0.5908208004548214, 0.6076604718109593, 0.6241898713633418, 0.64100496674655, 0.6575882969191298, 0.6743385390145704, 0.6907395972812083, 0.707702489948133, 0.7238465243426617, 0.7409623342391569, 0.7571544966194779, 0.7742115972214378, 0.7904809008759912, 0.8076810200873297, 0.8238585051440168, 0.8409589550283272, 0.8573272453213576, 0.8742065113619901, 0.8908243161858991, 0.9076609155454207, 0.9240722138201818, 0.9409289518662263, 0.9571921115275472]
10	animate/a22.jpg	animate	inanimate	left	1.396	[0.0, 0.0, 0.0, 0.0, 0.0, 0.0, 0.0, 0.0, 0.0, 0.0, 0.0, 0.0, 0.0, 0.0, 0.0, 0.0, 0.0, 0.0, 0.0, 0.0, 0.0, 0.0, 0.0, 0.0, 0.0, 0.0, 0.0, 0.0, 0.0, 0.0, 0.0, 0.0, 0.0, 2.0, 3.0, 4.0, 8.0, 18.0, 31.0, 55.0, 89.0, 130.0, 186.0, 251.0, 316.0, 401.0, 468.0, 536.0, 593.0, 639.0, 679.0, 706.0, 716.0, 719.0, 722.0, 719.0, 705.0, 654.0, 573.0, 467.0, 343.0, 201.0, 65.0, -75.0, -205.0, -305.0, -386.0, -451.0, -487.0, -522.0, -541.0, -552.0, -559.0, -563.0, -570.0, -577.0, -583.0, -598.0, -626.0, -671.0, -732.0, -804.0, -824.0, -824.0]	[-490.0, -490.0, -490.0, -490.0, -490.0, -490.0, -490.0, -490.0, -490.0, -490.0, -490.0, -490.0, -490.0, -490.0, -490.0, -490.0, -490.0, -490.0, -490.0, -490.0, -490.0, -490.0, -490.0, -489.0, -489.0, -487.0, -486.0, -485.0, -483.0, -482.0, -480.0, -480.0, -478.0, -472.0, -469.0, -465.0, -456.0, -443.0, -424.0, -394.0, -358.0, -320.0, -264.0, -201.0, -145.0, -67.0, 1.0, 77.0, 139.0, 193.0, 241.0, 275.0, 298.0, 315.0, 336.0, 355.0, 372.0, 400.0, 420.0, 438.0, 452.0, 469.0, 473.0, 487.0, 504.0, 519.0, 530.0, 537.0, 538.0, 540.0, 540.0, 540.0, 540.0, 540.0, 540.0, 540.0, 538.0, 530.0, 516.0, 498.0, 474.0, 441.0, 433.0, 433.0]	[0.002881944121327251, 0.010373182944022119, 0.021376057324232534, 0.03737468380131759, 0.05461473896866664, 0.07091715195565484, 0.08778890865505673, 0.10424355621216819, 0.12105080095352605, 0.13758600314031355, 0.1545574291376397, 0.17091001808876172, 0.1877780201321002, 0.20399373449617997, 0.22110408305888996, 0.23735836806008592, 0.2544195646769367, 0.2708946922211908, 0.2878787475347053, 0.3041934485081583, 0.32116316782776266, 0.33745636482490227, 0.3545069800748024, 0.3708933610469103, 0.3878453310171608, 0.404174367984524, 0.42116866327705793, 0.4373427350074053, 0.4544578622444533, 0.47084287786856294, 0.48779450650908984, 0.5042747540865093, 0.5211553854460362, 0.537415473110741, 0.5544090857438277, 0.5709739839367103, 0.5879320979001932, 0.6039904576900881, 0.6211325502372347, 0.6374684138863813, 0.654501621145755, 0.6709214527509175, 0.687699342815904, 0.7041413610859308, 0.7211670590331778, 0.7374544533668086, 0.7545019966200925, 0.7709477695461828, 0.7879144168400671, 0.8040072512812912, 0.8212046397966333, 0.8374739434802905, 0.8543416041648015, 0.8709006996941753, 0.887887827004306, 0.9042520212824456, 0.9211316286528017, 0.9372985323716421, 0.9544525715755299, 0.9707723925530445, 0.9877721491793636, 1.0042725354142021, 1.0212057320750318, 1.0373320171493106, 1.0543979924113955, 1.0709342186164577, 1.0877909566333983, 1.1039721963752527, 1.1210327103035524, 1.137359016604023, 1.1544335251965094, 1.170628418243723, 1.187975652021123, 1.203943899832666, 1.2210286484332755, 1.2372989761061035, 1.2545223059423734, 1.2708236949401908, 1.2876862356206402, 1.303954173985403, 1.3210972905217204, 1.3372952555655502, 1.3544510014471598, 1.3707182571233716]
11	inanimate/n66.jpg	inanimate	animate	left	1.55	[0.0, 0.0, 0.0, 0.0, 0.0, 0.0, 0.0, 0.0, 0.0, 0.0, 0.0, 0.0, 0.0, 0.0, 0.0, 0.0, 0.0, 0.0, 0.0, 2.0, 3.0, 6.0, 12.0, 13.0, 26.0, 41.0, 62.0, 88.0, 114.0, 135.0, 150.0, 157.0, 164.0, 167.0, 170.0, 176.0, 186.0, 205.0, 217.0, 230.0, 235.0, 239.0, 240.0, 244.0, 248.0, 255.0, 257.0, 259.0, 259.0, 259.0, 259.0, 249.0, 232.0, 222.0, 221.0, 221.0, 226.0, 230.0, 233.0, 235.0, 220.0, 168.0, 69.0, -61.0, -205.0, -381.0, -544.0, -679.0, -769.0, -813.0, -830.0, -832.0, -832.0, -832.0, -832.0, -832.0, -832.0, -832.0, -832.0, -832.0, -832.0, -832.0, -835.0, -835.0, -835.0, -835.0, -833.0, -830.0, -830.0, -829.0, -829.0, -829.0, -829.0]	[-490.0, -490.0, -490.0, -490.0, -490.0, -490.0, -490.0, -490.0, -490.0, -490.0, -490.0, -490.0, -490.0, -490.0, -490.0, -490.0, -490.0, -490.0, -490.0, -480.0, -469.0, -454.0, -429.0, -422.0, -394.0, -368.0, -331.0, -276.0, -229.0, -192.0, -168.0, -148.0, -134.0, -126.0, -122.0, -110.0, -96.0, -76.0, -66.0, -55.0, -50.0, -46.0, -44.0, -38.0, -30.0, -22.0, -18.0, -13.0, -13.0, -9.0, -2.0, 14.0, 30.0, 47.0, 55.0, 66.0, 77.0, 89.0, 102.0, 113.0, 133.0, 165.0, 203.0, 238.0, 268.0, 299.0, 325.0, 343.0, 358.0, 362.0, 362.0, 362.0, 362.0, 362.0, 362.0, 362.0, 362.0, 362.0, 362.0, 362.0, 362.0, 367.0, 373.0, 379.0, 386.0, 394.0, 403.0, 409.0, 412.0, 413.0, 413.0, 413.0, 413.0]	[0.004392684670165181, 0.0125829738099128, 0.023983501305337995, 0.04074125271290541, 0.057711996021680534, 0.0740959876566194, 0.09096398967085406, 0.11013940387056209, 0.12422007930581458, 0.14328080555424094, 0.15749460094957612, 0.17656898050336167, 0.19085001852363348, 0.2085730601393152, 0.22432148939697072, 0.24147177394479513, 0.25774619763251394, 0.274165687878849, 0.29078519938047975, 0.30712174565996975, 0.32403582768165506, 0.34342491641291417, 0.35723866935586557, 0.3768639606423676, 0.3905005616543349, 0.40756858489476144, 0.4241508910781704, 0.4432477986556478, 0.45731174875982106, 0.4767615948221646, 0.4907702489872463, 0.5081690240767784, 0.524027021281654, 0.5412346498051193, 0.5575333081360441, 0.5743367981922347, 0.5904600112698972, 0.6077137197717093, 0.6240669913822785, 0.6410500227066223, 0.6574456196394749, 0.6742416003835388, 0.690675426623784, 0.7076308099494781, 0.7238386736426037, 0.7409408302337397, 0.7574142511293758, 0.7742839598213322, 0.7907194927392993, 0.8077574786730111, 0.8240428249991965, 0.8410674989572726, 0.8573129092983436, 0.8742133379855659, 0.8907475161831826, 0.9077947181358468, 0.9238298672426026, 0.940915639832383, 0.9573709700780455, 0.9742577454308048, 0.9905072517867666, 1.0075493337062653, 1.0240807812660933, 1.040904409979703, 1.0572737242619041, 1.0742328622436617, 1.090513429895509, 1.1076056878373493, 1.1240678447356913, 1.1408884014526848, 1.1571447344613262, 1.1741977390483953, 1.1907452292507514, 1.2077931138628628, 1.2240675375214778, 1.2410017582005821, 1.2573048538470175, 1.2742489731754176, 1.2907626713858917, 1.3075893720961176, 1.3237695878196973, 1.3409079257107805, 1.3572475440159906, 1.3742886019463185, 1.3904606256692205, 1.4075853102258407, 1.4238361819006968, 1.4410475651093293, 1.457218223484233, 1.4743166253902018, 1.4908429529459681, 1.5076170883548912, 1.5241174745606259]
12	inanimate/n64.jpg	animate	inanimate	right	1.728	[0.0, 0.0, 0.0, 0.0, 0.0, 0.0, 0.0, 0.0, 0.0, 0.0, 0.0, 0.0, 0.0, 0.0, 0.0, 0.0, 0.0, 0.0, 0.0, 0.0, 0.0, 0.0, 0.0, 0.0, 0.0, 0.0, 0.0, 0.0, 0.0, 0.0, 0.0, 0.0, 0.0, 0.0, 0.0, 0.0, 0.0, 0.0, 0.0, 0.0, 0.0, 0.0, 0.0, 1.0, 2.0, 3.0, 7.0, 11.0, 13.0, 13.0, 12.0, 12.0, 12.0, 16.0, 34.0, 58.0, 104.0, 151.0, 199.0, 248.0, 297.0, 347.0, 386.0, 427.0, 474.0, 518.0, 564.0, 607.0, 646.0, 664.0, 684.0, 705.0, 723.0, 733.0, 741.0, 751.0, 764.0, 780.0, 795.0, 809.0, 823.0, 829.0, 830.0, 830.0, 830.0, 828.0, 827.0, 826.0, 826.0, 826.0, 826.0, 826.0, 826.0, 826.0, 824.0, 824.0, 822.0, 822.0, 822.0, 821.0, 820.0, 819.0, 819.0, 819.0]	[-490.0, -490.0, -490.0, -490.0, -490.0, -490.0, -490.0, -490.0, -490.0, -490.0, -490.0, -490.0, -490.0, -490.0, -490.0, -490.0, -490.0, -490.0, -490.0, -490.0, -490.0, -490.0, -490.0, -490.0, -490.0, -490.0, -490.0, -490.0, -490.0, -490.0, -490.0, -490.0, -490.0, -490.0, -489.0, -488.0, -486.0, -485.0, -483.0, -482.0, -480.0, -479.0, -479.0, -478.0, -474.0, -471.0, -461.0, -443.0, -425.0, -408.0, -389.0, -374.0, -353.0, -318.0, -275.0, -235.0, -188.0, -154.0, -113.0, -69.0, -19.0, 17.0, 46.0, 75.0, 98.0, 118.0, 138.0, 155.0, 167.0, 174.0, 182.0, 189.0, 197.0, 204.0, 211.0, 221.0, 232.0, 246.0, 257.0, 268.0, 284.0, 296.0, 306.0, 316.0, 323.0, 326.0, 328.0, 329.0, 329.0, 329.0, 329.0, 329.0, 329.0, 330.0, 336.0, 339.0, 342.0, 343.0, 346.0, 347.0, 350.0, 353.0, 354.0, 354.0]	[0.0015026168257463723, 0.009904191188979894, 0.017631973925745115, 0.03462012522504665, 0.051168980746297166, 0.06825407064752653, 0.08450323567376472, 0.10146817631903104, 0.11773543199524283, 0.13470242064795457, 0.15092939900932834, 0.16825547014013864, 0.1845339897845406, 0.20152726108790375, 0.21798668731935322, 0.23479188405326568, 0.25120249966857955, 0.2682568696036469, 0.28450671726022847, 0.3014426445879508, 0.3177935268904548, 0.3347209208877757, 0.35106395251932554, 0.3681418744381517, 0.38451903939130716, 0.40140308407717384, 0.4178413476620335, 0.4347499683499336, 0.4512128079077229, 0.46824260186986066, 0.48430266830837354, 0.5012863822921645, 0.5176358992466703, 0.5346557945304085, 0.5512254713685252, 0.5681907533726189, 0.5845385636494029, 0.6014594723237678, 0.6176069200446364, 0.6347589112701826, 0.6511087695835158, 0.6682532514678314, 0.684579557768302, 0.7014257144764997, 0.7177001381351147, 0.7347524600918405, 0.7511842383246403, 0.7681304056604858, 0.7842795600590762, 0.8013656739785802, 0.8179012174950913, 0.8348712781444192, 0.8512805284117348, 0.8681850530847441, 0.8844867834122851, 0.9016083959722891, 0.9177145423891488, 0.9347992909897584, 0.9511542692780495, 0.9682216098881327, 0.9842485669942107, 1.001339118258329, 1.017613541916944, 1.0347194531641435, 1.0511993593827356, 1.068144844059134, 1.084497433010256, 1.1014579363400117, 1.117858653276926, 1.1348041379242204, 1.1511857401928864, 1.168427843367681, 1.1842947152617853, 1.2013849251670763, 1.2175876688561402, 1.2347652600728907, 1.2511383290111553, 1.2681828002969269, 1.284456199966371, 1.3013648206542712, 1.3176153509994037, 1.3347885048715398, 1.351170789799653, 1.3682135544077028, 1.3845439567230642, 1.4014594040636439, 1.4175969531352166, 1.4347980963357259, 1.4510988026449922, 1.4681163085915614, 1.4844968868710566, 1.501397315558279, 1.5176502352405805, 1.534711773158051, 1.5512445860367734, 1.5683266039704904, 1.5842552571266424, 1.6013751630380284, 1.6175850747385994, 1.6347681272600312, 1.6509206950140651, 1.6681522168510128, 1.6843406245461665, 1.7013772451609839]
13	animate/a68.jpg	animate	inanimate	left	3.085	[0.0, -2.0, -2.0, -2.0, -2.0, -2.0, -2.0, -2.0, -2.0, -2.0, -2.0, -2.0, -2.0, -2.0, -3.0, -3.0, -3.0, -3.0, -3.0, -4.0, -4.0, -4.0, -5.0, -5.0, -5.0, -6.0, -6.0, -6.0, -6.0, -6.0, -6.0, -7.0, -7.0, -7.0, -7.0, -7.0, -7.0, -7.0, -7.0, -7.0, -7.0, -7.0, -7.0, -7.0, -7.0, -7.0, -7.0, -7.0, -7.0, -7.0, -7.0, -7.0, -7.0, -7.0, -7.0, -7.0, -6.0, -6.0, -6.0, -6.0, -6.0, -6.0, -6.0, -6.0, -6.0, -6.0, -6.0, -6.0, -6.0, -6.0, -6.0, -6.0, -6.0, -6.0, -6.0, -6.0, -6.0, -6.0, -6.0, -6.0, -6.0, -6.0, -6.0, -6.0, -6.0, -6.0, -6.0, -6.0, -6.0, -6.0, -6.0, -6.0, -6.0, -6.0, -6.0, -6.0, -6.0, -6.0, -6.0, -6.0, -6.0, -6.0, -6.0, -6.0, -6.0, -6.0, -6.0, -6.0, -6.0, -6.0, -6.0, -6.0, -6.0, -6.0, -6.0, -6.0, -6.0, -6.0, -6.0, -6.0, -6.0, -6.0, -6.0, -6.0, -6.0, -6.0, -6.0, -6.0, -6.0, -6.0, -5.0, 0.0, 7.0, 19.0, 31.0, 43.0, 56.0, 73.0, 105.0, 157.0, 195.0, 238.0, 273.0, 303.0, 323.0, 339.0, 363.0, 410.0, 460.0, 510.0, 550.0, 607.0, 634.0, 648.0, 660.0, 669.0, 674.0, 674.0, 672.0, 663.0, 645.0, 609.0, 525.0, 363.0, 225.0, 83.0, -56.0, -186.0, -292.0, -370.0, -409.0, -436.0, -451.0, -456.0, -458.0, -461.0, -471.0, -487.0, -518.0, -555.0, -588.0, -615.0, -640.0, -675.0, -718.0, -754.0]	[-490.0, -490.0, -490.0, -490.0, -490.0, -490.0, -490.0, -490.0, -490.0, -490.0, -490.0, -490.0, -490.0, -490.0, -490.0, -490.0, -490.0, -490.0, -490.0, -490.0, -490.0, -490.0, -490.0, -490.0, -490.0, -488.0, -488.0, -487.0, -487.0, -486.0, -485.0, -483.0, -483.0, -483.0, -481.0, -479.0, -478.0, -474.0, -473.0, -472.0, -471.0, -471.0, -471.0, -471.0, -470.0, -470.0, -468.0, -467.0, -465.0, -464.0, -464.0, -462.0, -462.0, -461.0, -461.0, -459.0, -457.0, -456.0, -455.0, -452.0, -451.0, -450.0, -448.0, -446.0, -443.0, -442.0, -440.0, -437.0, -436.0, -434.0, -433.0, -432.0, -432.0, -432.0, -432.0, -432.0, -432.0, -432.0, -432.0, -432.0, -432.0, -432.0, -432.0, -432.0, -432.0, -432.0, -432.0, -432.0, -432.0, -432.0, -432.0, -432.0, -432.0, -432.0, -432.0, -432.0, -432.0, -432.0, -432.0, -431.0, -431.0, -431.0, -431.0, -431.0, -431.0, -431.0, -431.0, -431.0, -431.0, -431.0, -431.0, -431.0, -431.0, -431.0, -431.0, -431.0, -431.0, -431.0, -431.0, -431.0, -431.0, -431.0, -431.0, -431.0, -431.0, -431.0, -431.0, -431.0, -431.0, -431.0, -430.0, -423.0, -412.0, -393.0, -375.0, -355.0, -338.0, -314.0, -268.0, -199.0, -155.0, -113.0, -80.0, -56.0, -35.0, -15.0, 16.0, 70.0, 132.0, 188.0, 232.0, 293.0, 328.0, 350.0, 371.0, 390.0, 403.0, 414.0, 423.0, 432.0, 440.0, 453.0, 474.0, 501.0, 520.0, 533.0, 540.0, 540.0, 540.0, 540.0, 540.0, 538.0, 534.0, 532.0, 531.0, 528.0, 521.0, 513.0, 504.0, 496.0, 490.0, 486.0, 483.0, 476.0, 466.0, 455.0]	[0.01056535352836363, 0.016625382413621992, 0.022344078170135617, 0.03611857778741978, 0.05303880377323367, 0.06943064605002292, 0.08639865869190544, 0.10253177044796757, 0.1195052444236353, 0.13590937468688935, 0.15299036860233173, 0.169395864213584, 0.18647003147634678, 0.20280043376260437, 0.21968959845253266, 0.23593330214498565, 0.2530204400536604, 0.2694563143013511, 0.2864325189439114, 0.3025123827101197, 0.3195821126573719, 0.3361347228346858, 0.3532628207176458, 0.36920615122653544, 0.38636189710814506, 0.4025547421479132, 0.4196753307187464, 0.43585827710921876, 0.45297988966922276, 0.46919696938130073, 0.48639640590408817, 0.502813506842358, 0.5196927728538867, 0.536107143125264, 0.5531673157238401, 0.5691980275150854, 0.586311106744688, 0.6025111197959632, 0.6196412656863686, 0.6361283399164677, 0.6530977178772446, 0.6694052508682944, 0.6864172954810783, 0.7026292551890947, 0.7196962544403505, 0.7361904966819566, 0.7530892186914571, 0.7693752476770896, 0.7863572549831588, 0.8025446386891417, 0.8195628273242619, 0.8359089309524279, 0.8531162181461696, 0.8694380871311296, 0.8863368091406301, 0.9025115635304246, 0.9197437680268195, 0.9362345969129819, 0.9532159215596039, 0.9693831666081678, 0.9863976005581208, 1.0026812402356882, 1.0197076208423823, 1.0360936604556628, 1.0530302704428323, 1.0694122140703257, 1.086466584005393, 1.1029174769064412, 1.1197994735848624, 1.1358264307200443, 1.1532098458264954, 1.169453890848672, 1.1863969861587975, 1.2024741192581132, 1.2195165425364394, 1.236099872709019, 1.2531146480177995, 1.2692409330920782, 1.2862744817102794, 1.302469374728389, 1.3194588913756888, 1.3358063603227492, 1.3531317487941124, 1.3694597617723048, 1.3863813531061169, 1.402848288678797, 1.4196596294059418, 1.4360586396651343, 1.4532113135501277, 1.4694021106115542, 1.4863380379392765, 1.5024947016499937, 1.5194838769675698, 1.5360259058361407, 1.5531454703886993, 1.5691348808759358, 1.586177304154262, 1.6024776691338047, 1.6196276123519056, 1.6361365318880416, 1.6531096645339858, 1.6694513308466412, 1.68636916752439, 1.7025360712432303, 1.7194955505547114, 1.735811275546439, 1.7529427867557388, 1.7694124529953115, 1.7863593029906042, 1.8024989000696223, 1.8195201606722549, 1.8360867655137554, 1.8531237274582963, 1.8692025672353338, 1.8864572997263167, 1.9025736861512996, 1.919668333401205, 1.9360919196624309, 1.953104646934662, 1.969169492047513, 1.9862460486474447, 2.002772376174107, 2.0197243461734615, 2.0360632818192244, 2.0531173103954643, 2.069406411406817, 2.086352920043282, 2.102498319785809, 2.119625735009322, 2.136253779841354, 2.15313680053805, 2.169139523000922, 2.1863041435426567, 2.2025345352303702, 2.2197056411241647, 2.2359223794774152, 2.253042626718525, 2.269364495674381, 2.2863249990041368, 2.302700115949847, 2.3196630085876677, 2.3361190215218812, 2.3531628101191018, 2.369098289957037, 2.3862591558427084, 2.402891637990251, 2.4196790854039136, 2.4361013063171413, 2.453139974939404, 2.469403817260172, 2.486344864591956, 2.502817602828145, 2.5196968688396737, 2.5360388764820527, 2.5529802651435602, 2.5691038195509464, 2.5862227014440577, 2.6025077064405195, 2.6196839323383756, 2.6361488199036103, 2.6530188699252903, 2.669437677512178, 2.6864043248351663, 2.7025111539114732, 2.7197413104295265, 2.73582663552952, 2.7530462107097264, 2.7691342664766125, 2.7862637297075707, 2.802640211972175, 2.819658741937019, 2.836082328198245, 2.853042490169173, 2.869303260522429, 2.886329641129123, 2.9027464007376693, 2.919777901348425, 2.935824314452475, 2.953036721650278, 2.9691230707394425, 2.9862815472879447, 3.002501698996639, 3.019688506174134, 3.0360608924820554, 3.0531630490440875, 3.0693852487311233]
14	inanimate/n3.jpg	inanimate	animate	left	1.614	[0.0, 0.0, 0.0, 0.0, 0.0, 0.0, 0.0, 0.0, 0.0, 0.0, 0.0, 0.0, 0.0, 0.0, 0.0, 0.0, 0.0, 0.0, 0.0, 0.0, 0.0, 0.0, 0.0, 0.0, 0.0, 0.0, 0.0, 0.0, 0.0, 0.0, 0.0, 0.0, 0.0, -1.0, -1.0, -1.0, -1.0, -2.0, -2.0, -2.0, -2.0, -2.0, -2.0, -2.0, -2.0, -2.0, -2.0, -2.0, -2.0, -2.0, -2.0, -2.0, -2.0, -2.0, -2.0, -2.0, -2.0, -1.0, -1.0, -1.0, -1.0, -1.0, -1.0, -1.0, -1.0, -1.0, -1.0, -10.0, -22.0, -40.0, -76.0, -97.0, -116.0, -140.0, -158.0, -179.0, -202.0, -232.0, -269.0, -324.0, -391.0, -480.0, -577.0, -715.0, -775.0, -816.0, -839.0, -851.0, -857.0, -859.0, -860.0, -860.0, -861.0, -861.0, -862.0, -862.0, -862.0]	[-490.0, -490.0, -490.0, -490.0, -490.0, -490.0, -490.0, -490.0, -490.0, -490.0, -490.0, -490.0, -490.0, -490.0, -490.0, -490.0, -490.0, -490.0, -490.0, -490.0, -490.0, -490.0, -490.0, -490.0, -490.0, -490.0, -490.0, -490.0, -490.0, -490.0, -490.0, -490.0, -490.0, -490.0, -489.0, -487.0, -486.0, -485.0, -485.0, -485.0, -485.0, -485.0, -485.0, -484.0, -483.0, -481.0, -481.0, -480.0, -479.0, -477.0, -475.0, -473.0, -468.0, -465.0, -464.0, -462.0, -459.0, -457.0, -457.0, -456.0, -456.0, -455.0, -453.0, -453.0, -451.0, -446.0, -440.0, -428.0, -411.0, -391.0, -348.0, -329.0, -309.0, -281.0, -265.0, -247.0, -222.0, -185.0, -131.0, -62.0, 12.0, 95.0, 177.0, 291.0, 358.0, 404.0, 432.0, 445.0, 454.0, 460.0, 465.0, 468.0, 470.0, 470.0, 471.0, 471.0, 471.0]	[0.01565278772613965, 0.023361797124380246, 0.0296068285824731, 0.046501113276463, 0.06279601692222059, 0.0797558375634253, 0.09615894383750856, 0.11319692977122031, 0.12955259074806236, 0.1465318673872389, 0.16261787514667958, 0.17960773312370293, 0.19625932991039008, 0.21322222257731482, 0.22953999554738402, 0.24647762955282815, 0.2626892479020171, 0.27964633790543303, 0.2961156627861783, 0.31333592065493576, 0.3295478803338483, 0.34654695430072024, 0.3627090793743264, 0.37971532132360153, 0.39624574486515485, 0.4132065895246342, 0.42948783983592875, 0.4464677991345525, 0.46292893204372376, 0.47982765405322425, 0.49624338967259973, 0.5131762450037058, 0.5295203006244265, 0.546504355937941, 0.5627187049540225, 0.5796696509351023, 0.5962403517914936, 0.613252737763105, 0.629290958866477, 0.6462504381779581, 0.663189096172573, 0.6795345171412919, 0.6965206204622518, 0.7126711401797365, 0.7296893288148567, 0.7461415870347992, 0.7631031143537257, 0.779555372602772, 0.7965725372196175, 0.812705307645956, 0.8298757308511995, 0.8461583465104923, 0.8631618577928748, 0.8794765587663278, 0.8965299047122244, 0.9126087444892619, 0.9296992957242765, 0.9462157246016432, 0.9631782759388443, 0.9795254035561811, 0.9964773735555355, 1.0126459839229938, 1.0308847799315117, 1.0461836734320968, 1.0631284754199442, 1.0795090536994394, 1.0965146129892673, 1.112611884746002, 1.1297816252917983, 1.1461188542598393, 1.1631199762341566, 1.1794886078278068, 1.1964532071433496, 1.2128136467654258, 1.2297942887526006, 1.2461786216881592, 1.263140831666533, 1.279275650071213, 1.2964208146440797, 1.3129741075099446, 1.329810024210019, 1.3461984531604685, 1.3631367698253598, 1.3793722814880311, 1.3964495207474101, 1.41270380577771, 1.4297353063884657, 1.4459936874045525, 1.463155235949671, 1.4792518250178546, 1.4963905042677652, 1.512906933145132, 1.5297626471729018, 1.5461459561192896, 1.563162438076688, 1.5795413096784614, 1.5964885010034777]
15	animate/a74.jpg	inanimate	animate	right	1.13	[0.0, 0.0, 0.0, 0.0, 0.0, 0.0, 0.0, 0.0, 0.0, 0.0, 0.0, 0.0, 0.0, 0.0, 0.0, 0.0, 0.0, 0.0, -1.0, -1.0, -2.0, -2.0, -2.0, -2.0, -3.0, -3.0, -4.0, -5.0, -5.0, -6.0, -6.0, -7.0, -9.0, -13.0, -21.0, -33.0, -51.0, -66.0, -77.0, -83.0, -85.0, -85.0, -73.0, -42.0, 9.0, 85.0, 176.0, 256.0, 324.0, 385.0, 441.0, 505.0, 556.0, 601.0, 632.0, 646.0, 659.0, 671.0, 695.0, 719.0, 755.0, 789.0, 800.0, 804.0, 805.0, 808.0, 810.0, 810.0, 810.0]	[-490.0, -490.0, -490.0, -490.0, -490.0, -490.0, -490.0, -490.0, -490.0, -490.0, -490.0, -490.0, -490.0, -490.0, -490.0, -490.0, -490.0, -490.0, -489.0, -488.0, -487.0, -486.0, -486.0, -486.0, -486.0, -484.0, -484.0, -483.0, -483.0, -481.0, -481.0, -479.0, -476.0, -470.0, -460.0, -449.0, -436.0, -425.0, -414.0, -400.0, -386.0, -359.0, -331.0, -289.0, -235.0, -181.0, -130.0, -82.0, -38.0, 10.0, 65.0, 116.0, 151.0, 176.0, 197.0, 209.0, 228.0, 251.0, 284.0, 329.0, 383.0, 437.0, 457.0, 469.0, 480.0, 491.0, 505.0, 513.0, 516.0]	[0.01313661620952189, 0.019727759499801323, 0.02487165021011606, 0.04112764188903384, 0.05806152120931074, 0.07444380613742396, 0.09145209612324834, 0.1078913836972788, 0.12474607373587787, 0.14090000677970238, 0.15786085143918172, 0.17443462429218926, 0.19139410360367037, 0.20780642586760223, 0.2248133505054284, 0.24125366206862964, 0.25815886943018995, 0.27441213044221513, 0.2915231616643723, 0.3077637933602091, 0.324693576694699, 0.340941376372939, 0.35796639166073874, 0.3744043139158748, 0.39143547319690697, 0.40773891017306596, 0.4247673387872055, 0.44090591184794903, 0.4579384364769794, 0.47417224149103276, 0.4913740673509892, 0.5076778456568718, 0.5247199276054744, 0.5411411245295312, 0.5580121985694859, 0.5743108569004107, 0.5914283734455239, 0.6075973251718096, 0.6247810603817925, 0.6408578521513846, 0.6580180353485048, 0.6744214829523116, 0.691388812934747, 0.7078069378621876, 0.724776657181792, 0.741055859514745, 0.7580621014640201, 0.7742016985430382, 0.7913915777462535, 0.8078718252945691, 0.824674291361589, 0.8412013015768025, 0.8580576982640196, 0.8744191619043704, 0.8913352919043973, 0.9077950594655704, 0.9247384961345233, 0.9411334104079287, 0.9580717270728201, 0.974285734759178, 0.9913848193536978, 1.007754133635899, 1.0247238529555034, 1.040860036679078, 1.0579638999188319, 1.0744209368422162, 1.0913906561327167, 1.1078125357453246, 1.1247819137061015]
16	animate/a14.jpg	inanimate	animate	right	1.198	[0.0, 0.0, 0.0, 0.0, 0.0, 0.0, 0.0, 0.0, 0.0, 0.0, 0.0, 0.0, 0.0, 0.0, 0.0, 0.0, 0.0, 0.0, 0.0, 0.0, 0.0, 0.0, 0.0, 0.0, 0.0, 0.0, 0.0, 0.0, 1.0, 5.0, 11.0, 15.0, 20.0, 21.0, 25.0, 31.0, 38.0, 52.0, 68.0, 86.0, 102.0, 116.0, 132.0, 146.0, 162.0, 183.0, 204.0, 229.0, 259.0, 281.0, 299.0, 321.0, 345.0, 376.0, 413.0, 453.0, 523.0, 545.0, 607.0, 641.0, 660.0, 678.0, 687.0, 691.0, 693.0, 696.0, 702.0, 714.0, 729.0, 748.0, 754.0, 754.0]	[-490.0, -490.0, -490.0, -490.0, -490.0, -490.0, -490.0, -490.0, -490.0, -490.0, -490.0, -490.0, -490.0, -490.0, -490.0, -490.0, -490.0, -490.0, -490.0, -490.0, -490.0, -490.0, -490.0, -490.0, -489.0, -488.0, -486.0, -483.0, -478.0, -473.0, -467.0, -463.0, -458.0, -456.0, -447.0, -437.0, -426.0, -407.0, -385.0, -365.0, -346.0, -330.0, -313.0, -296.0, -281.0, -260.0, -242.0, -220.0, -195.0, -170.0, -153.0, -131.0, -106.0, -62.0, -19.0, 29.0, 107.0, 132.0, 204.0, 250.0, 280.0, 314.0, 337.0, 353.0, 362.0, 374.0, 396.0, 427.0, 460.0, 497.0, 512.0, 515.0]	[0.004939500387990847, 0.01107735326513648, 0.024667874298756942, 0.04179836151888594, 0.05812330250046216, 0.07506673916941509, 0.0912237442098558, 0.10843478605966084, 0.12473037239396945, 0.14177791567635722, 0.158038003341062, 0.1749954346450977, 0.1912114903680049, 0.20844881486846134, 0.22452014530426823, 0.24164346454199404, 0.25815170141868293, 0.2749941034708172, 0.29144226570497267, 0.3084389503346756, 0.32486970457830466, 0.3417871999263298, 0.3581554902193602, 0.37512213754234836, 0.3912859692645725, 0.4084642431116663, 0.42479635210474953, 0.44175651407567784, 0.45805517240660265, 0.4751081769936718, 0.4912006701051723, 0.5083396906557027, 0.5247970689088106, 0.541873284149915, 0.5580739798606373, 0.5750624724896625, 0.5913211948354729, 0.60841447673738, 0.6247554603905883, 0.641753169009462, 0.65809756598901, 0.6751150719355792, 0.6912444290064741, 0.7083387349266559, 0.7247711958480068, 0.7416548992041498, 0.7581194454396609, 0.7750168021011632, 0.7914707670279313, 0.8084043050184846, 0.8246459607034922, 0.8417327572824433, 0.858077495591715, 0.8750581375497859, 0.8913639638922177, 0.9083343658712693, 0.9247658027743455, 0.9418341673735995, 0.9580816257221159, 0.9751462356362026, 0.9915619712555781, 1.0083791146462318, 1.0247852928878274, 1.041725657560164, 1.0582246784470044, 1.0750479658308905, 1.0914084054529667, 1.1084293247549795, 1.124778159050038, 1.1419031849363819, 1.1581158273038454, 1.1751985278970096]
17	animate/a56.jpg	inanimate	animate	right	0.984	[0.0, 0.0, 0.0, 0.0, 0.0, 0.0, 0.0, 0.0, 0.0, 0.0, 0.0, 0.0, 0.0, 0.0, 0.0, 0.0, 0.0, 0.0, 0.0, 0.0, 0.0, 0.0, 0.0, 1.0, 1.0, 3.0, 7.0, 18.0, 32.0, 57.0, 104.0, 136.0, 160.0, 189.0, 212.0, 229.0, 245.0, 258.0, 272.0, 286.0, 303.0, 320.0, 333.0, 357.0, 373.0, 397.0, 432.0, 478.0, 536.0, 605.0, 669.0, 719.0, 754.0, 779.0, 804.0, 841.0, 855.0, 868.0, 872.0]	[-490.0, -508.0, -508.0, -508.0, -508.0, -508.0, -508.0, -508.0, -508.0, -508.0, -508.0, -508.0, -508.0, -508.0, -508.0, -508.0, -508.0, -508.0, -507.0, -504.0, -503.0, -502.0, -500.0, -498.0, -495.0, -492.0, -485.0, -472.0, -453.0, -425.0, -372.0, -336.0, -307.0, -272.0, -244.0, -219.0, -196.0, -172.0, -148.0, -126.0, -101.0, -78.0, -58.0, -24.0, -4.0, 29.0, 71.0, 121.0, 178.0, 237.0, 288.0, 326.0, 355.0, 379.0, 413.0, 470.0, 496.0, 513.0, 521.0]	[0.0028809201321564615, 0.0088764370593708, 0.02090604158001952, 0.03742793179117143, 0.054539645672775805, 0.07088097065570764, 0.08787048727390356, 0.1042305855662562, 0.12115388357779011, 0.13752558719716035, 0.1545345598133281, 0.17092469544149935, 0.18783160945167765, 0.20409476911299862, 0.2211600617156364, 0.23738328539184295, 0.25443867934518494, 0.270887182909064, 0.28792482751305215, 0.30394768866244704, 0.32107749322312884, 0.3376877887058072, 0.35447148146340623, 0.37084796372801065, 0.3878849256725516, 0.40419553066021763, 0.421214401954785, 0.4375942975457292, 0.4544093929580413, 0.4709060245077126, 0.4878351251827553, 0.5039385409327224, 0.5209587775461841, 0.5373789504810702, 0.5543425257783383, 0.5705964694498107, 0.5877460713381879, 0.604204132250743, 0.6211646355804987, 0.6374049259175081, 0.6544804585282691, 0.670939543429995, 0.6879106280684937, 0.7042256703716703, 0.7210998164082412, 0.7373295254365075, 0.7544504553370643, 0.7708805269212462, 0.787945136835333, 0.8040482112555765, 0.8211312531784642, 0.8377043433720246, 0.8545126121025532, 0.8708621290570591, 0.8879209363367409, 0.9042253973020706, 0.9210951059940271, 0.9373449536797125, 0.9545256168930791]
18	animate/a1.jpg	animate	inanimate	left	1.515	[0.0, 0.0, 0.0, 0.0, 0.0, 0.0, 0.0, 0.0, 0.0, 0.0, 0.0, 0.0, 0.0, 0.0, 0.0, 0.0, 0.0, 0.0, 0.0, 0.0, 0.0, 0.0, 0.0, 0.0, 0.0, 1.0, 1.0, 4.0, 4.0, 5.0, 7.0, 11.0, 18.0, 32.0, 50.0, 83.0, 138.0, 189.0, 238.0, 285.0, 330.0, 391.0, 406.0, 454.0, 477.0, 493.0, 516.0, 542.0, 580.0, 622.0, 661.0, 696.0, 726.0, 753.0, 757.0, 761.0, 761.0, 761.0, 761.0, 761.0, 748.0, 671.0, 515.0, 310.0, 54.0, -245.0, -701.0, -914.0, -960.0, -960.0, -960.0, -960.0, -960.0, -960.0, -960.0, -960.0, -960.0, -960.0, -960.0, -960.0, -960.0, -960.0, -950.0, -930.0, -915.0, -907.0, -902.0, -891.0, -883.0, -883.0, -883.0]	[-490.0, -490.0, -490.0, -490.0, -490.0, -490.0, -490.0, -490.0, -490.0, -490.0, -490.0, -490.0, -490.0, -490.0, -490.0, -490.0, -490.0, -490.0, -490.0, -490.0, -490.0, -490.0, -490.0, -490.0, -490.0, -491.0, -490.0, -487.0, -487.0, -485.0, -482.0, -478.0, -471.0, -457.0, -437.0, -399.0, -348.0, -296.0, -239.0, -185.0, -122.0, -37.0, -18.0, 37.0, 71.0, 93.0, 126.0, 162.0, 212.0, 261.0, 300.0, 330.0, 356.0, 380.0, 384.0, 388.0, 388.0, 388.0, 388.0, 388.0, 388.0, 388.0, 388.0, 388.0, 388.0, 388.0, 390.0, 390.0, 390.0, 390.0, 390.0, 390.0, 390.0, 390.0, 390.0, 390.0, 390.0, 390.0, 390.0, 390.0, 390.0, 391.0, 397.0, 405.0, 412.0, 415.0, 418.0, 423.0, 426.0, 426.0, 426.0]	[0.003913794265827164, 0.009387412806972861, 0.023109347093850374, 0.03940152010181919, 0.056542588659795, 0.07301327888853848, 0.0899509128939826, 0.10631169384578243, 0.12325001051067375, 0.13959201812394895, 0.1566023560881149, 0.17303515833918937, 0.18995231235749088, 0.20613116273307241, 0.223231271316763, 0.23937359903356992, 0.2564221663051285, 0.2729676085000392, 0.2900243677722756, 0.30607487689121626, 0.3232087774667889, 0.3393876278423704, 0.35653176839696243, 0.37312431455939077, 0.38999572992906906, 0.4063206709106453, 0.423285270226188, 0.4395474058983382, 0.4565417011908721, 0.473000786092598, 0.490044916048646, 0.5061725664418191, 0.5232303497032262, 0.5395348106976599, 0.5565011166909244, 0.5729649802378844, 0.5898865715716965, 0.6062579338613432, 0.6232754398079123, 0.6394495115382597, 0.6564967134909239, 0.67297013438656, 0.6899296136980411, 0.706143621384399, 0.7233399859105702, 0.7394229216733947, 0.7565080116037279, 0.7726926646428183, 0.7899026825034525, 0.806306471436983, 0.8232669747667387, 0.8395506144152023, 0.8565749470435549, 0.8729702026466839, 0.8899979486013763, 0.9062897802505177, 0.9232984115369618, 0.9395397258922458, 0.9565541598421987, 0.9729698954324704, 0.9899580467608757, 1.006313707708614, 1.0232079924026038, 1.0396752693050075, 1.0565760392928496, 1.073091102851322, 1.0899922141979914, 1.1062912138586398, 1.1232728798349854, 1.1397831646900158, 1.1565620787732769, 1.1729989770392422, 1.1900076083256863, 1.2062752053316217, 1.223322407255182, 1.2396954762225505, 1.25654026758275, 1.2729327925189864, 1.2899694131338038, 1.3060277729236986, 1.3231370974972378, 1.3394350731396116, 1.3565696563746314, 1.3729287306778133, 1.3900759432290215, 1.406345929543022, 1.4232992648612708, 1.4394316939578857, 1.4565027891949285, 1.4729632394446526, 1.4899384200980421]
19	inanimate/n67.jpg	animate	inanimate	right	1.198	[0.0, 0.0, 0.0, 0.0, 0.0, 0.0, 0.0, 0.0, 0.0, 0.0, 0.0, 0.0, 0.0, 0.0, 0.0, 0.0, 0.0, 0.0, 0.0, 0.0, 0.0, 0.0, 0.0, 0.0, 0.0, 0.0, 0.0, 1.0, 3.0, 8.0, 10.0, 11.0, 12.0, 13.0, 15.0, 20.0, 28.0, 40.0, 51.0, 71.0, 79.0, 102.0, 117.0, 135.0, 157.0, 185.0, 215.0, 258.0, 308.0, 364.0, 423.0, 467.0, 501.0, 531.0, 551.0, 574.0, 603.0, 627.0, 648.0, 666.0, 682.0, 697.0, 707.0, 712.0, 716.0, 716.0, 720.0, 722.0, 726.0, 729.0, 731.0, 731.0]	[-490.0, -490.0, -490.0, -490.0, -490.0, -490.0, -490.0, -490.0, -490.0, -490.0, -490.0, -490.0, -490.0, -490.0, -490.0, -490.0, -490.0, -490.0, -490.0, -490.0, -490.0, -490.0, -490.0, -490.0, -490.0, -490.0, -490.0, -487.0, -482.0, -477.0, -474.0, -471.0, -469.0, -467.0, -464.0, -457.0, -446.0, -432.0, -420.0, -397.0, -392.0, -372.0, -355.0, -339.0, -321.0, -297.0, -272.0, -235.0, -193.0, -147.0, -101.0, -61.0, -18.0, 26.0, 54.0, 86.0, 125.0, 165.0, 202.0, 232.0, 259.0, 280.0, 299.0, 308.0, 318.0, 324.0, 333.0, 338.0, 345.0, 350.0, 356.0, 356.0]	[0.003560173121513799, 0.008455231960397214, 0.022367288824170828, 0.03896120033459738, 0.0559537889494095, 0.0722387939458713, 0.089141270640539, 0.10554028089973144, 0.12256120020174421, 0.13896191713865846, 0.15589511379948817, 0.1722507747472264, 0.18921400874387473, 0.20555294436053373, 0.22254826367134228, 0.23903055922710337, 0.2559753612149507, 0.27224603021750227, 0.2892430561769288, 0.3053399866039399, 0.32252508713281713, 0.3389299000846222, 0.3559313633595593, 0.37226756833842956, 0.3892116876668297, 0.405380980722839, 0.422549355920637, 0.43891525687649846, 0.4560631521162577, 0.47226896780193783, 0.48919090046547353, 0.5057124493469018, 0.5225254967517685, 0.5387849017570261, 0.5559194849920459, 0.5722300899506081, 0.5892206305870786, 0.6053148303471971, 0.622507440217305, 0.6389375118014868, 0.655905865773093, 0.6719847055501305, 0.6891172407777049, 0.7054926990531385, 0.7225351223314647, 0.7388918072974775, 0.7559478839102667, 0.7722127502493095, 0.7892271841992624, 0.8056118584645446, 0.8225375458132476, 0.8388891107751988, 0.8559025207068771, 0.8722185870283283, 0.889151783689158, 0.9056941538874526, 0.9225201719382312, 0.9388901689089835, 0.9559196215122938, 0.9722459278127644, 0.9891466978297103, 1.0053258895350154, 1.0225314700801391, 1.0389267256832682, 1.0560387809237, 1.0722838499350473, 1.0892569825809915, 1.105664867500309, 1.1224393442389555, 1.1388772664940916, 1.1558698551380076, 1.1719899962190539]
20	animate/a28.jpg	inanimate	animate	right	1.599	[0.0, 0.0, 0.0, 0.0, 0.0, 0.0, 0.0, 0.0, 0.0, 3.0, 9.0, 15.0, 21.0, 27.0, 27.0, 27.0, 27.0, 27.0, 28.0, 36.0, 52.0, 72.0, 96.0, 106.0, 113.0, 117.0, 119.0, 119.0, 120.0, 120.0, 120.0, 121.0, 121.0, 121.0, 121.0, 123.0, 124.0, 128.0, 132.0, 136.0, 137.0, 139.0, 141.0, 148.0, 155.0, 167.0, 185.0, 197.0, 204.0, 207.0, 211.0, 213.0, 214.0, 216.0, 217.0, 218.0, 219.0, 219.0, 219.0, 219.0, 220.0, 223.0, 228.0, 233.0, 242.0, 255.0, 272.0, 294.0, 317.0, 336.0, 362.0, 375.0, 391.0, 405.0, 417.0, 426.0, 433.0, 442.0, 458.0, 482.0, 513.0, 555.0, 640.0, 728.0, 833.0, 925.0, 959.0, 959.0, 959.0, 959.0, 959.0, 959.0, 959.0, 959.0, 959.0, 959.0]	[-490.0, -490.0, -490.0, -490.0, -490.0, -490.0, -490.0, -490.0, -490.0, -489.0, -488.0, -486.0, -485.0, -485.0, -485.0, -485.0, -485.0, -485.0, -484.0, -478.0, -460.0, -432.0, -394.0, -375.0, -362.0, -354.0, -350.0, -349.0, -349.0, -349.0, -347.0, -347.0, -346.0, -346.0, -344.0, -342.0, -340.0, -331.0, -320.0, -313.0, -310.0, -307.0, -301.0, -289.0, -277.0, -261.0, -236.0, -219.0, -208.0, -202.0, -196.0, -191.0, -188.0, -184.0, -178.0, -174.0, -169.0, -168.0, -168.0, -166.0, -164.0, -157.0, -146.0, -136.0, -120.0, -100.0, -74.0, -34.0, 8.0, 42.0, 87.0, 111.0, 138.0, 164.0, 188.0, 209.0, 230.0, 247.0, 271.0, 296.0, 322.0, 346.0, 391.0, 426.0, 470.0, 499.0, 516.0, 519.0, 521.0, 521.0, 521.0, 521.0, 521.0, 521.0, 521.0, 521.0]	[0.004306327406084165, 0.009676521964138374, 0.023503928241552785, 0.04045965286786668, 0.05692385777365416, 0.07379459048388526, 0.0901724380964879, 0.10714079206809402, 0.12347085305373184, 0.14037435373757035, 0.1566050867550075, 0.17367310999543406, 0.19013731490122154, 0.20719782885862514, 0.22344528720714152, 0.24047098515438847, 0.25677305678254925, 0.2737485787656624, 0.29016260770731606, 0.3071930842997972, 0.3234760413179174, 0.34049661926110275, 0.3568751495331526, 0.3738080048642587, 0.39015513251069933, 0.4072545584058389, 0.4235033821023535, 0.44053795470972545, 0.456770735734608, 0.47376195903052576, 0.490207049268065, 0.5072723418707028, 0.5235027335584164, 0.5404646022070665, 0.5567103539069649, 0.5737684784980956, 0.5901729500910733, 0.6072669146815315, 0.6232494984869845, 0.6404178737138864, 0.6565909214259591, 0.6737098033190705, 0.690153869567439, 0.7072686554747634, 0.7235744817880914, 0.7404895877989475, 0.7567380701366346, 0.773721442790702, 0.7901832583593205, 0.8071905243268702, 0.8232874547538813, 0.8403466033341829, 0.8565428617002908, 0.8736989489407279, 0.8899962419236545, 0.9071680304477923, 0.9233089928748086, 0.9404145627631806, 0.9566036531468853, 0.9737849990196992, 0.9901754759484902, 1.0074039258179255, 1.0232622643525247, 1.0404381488915533, 1.0567436338751577, 1.0737717211595736, 1.090169024770148, 1.1071967707248405, 1.1234933810483199, 1.1404535430192482, 1.156869961268967, 1.1737676592892967, 1.190012728300644, 1.2072804314666428, 1.2236371164326556, 1.240444019815186, 1.2569024220574647, 1.2737096667988226, 1.289899098512251, 1.307063377724262, 1.3235299719381146, 1.3404740912665147, 1.3567874269210733, 1.3737363249238115, 1.3901558151701465, 1.407190729107242, 1.4232429449039046, 1.4403536347963382, 1.4568390023487154, 1.4737196337082423, 1.4901660892937798, 1.5071337606059387, 1.5233324083092157, 1.5404362715489697, 1.5566956765542272, 1.573725470516365]
21	animate/a76.jpg	animate	inanimate	left	1.333	[0.0, 0.0, 0.0, 0.0, 0.0, 0.0, 0.0, -2.0, -2.0, -2.0, -2.0, -3.0, -3.0, -3.0, -3.0, -3.0, -3.0, -3.0, -3.0, -3.0, -3.0, -3.0, -2.0, -2.0, 1.0, 2.0, 5.0, 7.0, 9.0, 12.0, 14.0, 18.0, 20.0, 22.0, 27.0, 30.0, 36.0, 42.0, 49.0, 61.0, 73.0, 88.0, 100.0, 114.0, 125.0, 142.0, 160.0, 178.0, 194.0, 220.0, 246.0, 281.0, 329.0, 384.0, 422.0, 447.0, 465.0, 483.0, 489.0, 487.0, 470.0, 382.0, 268.0, 132.0, -33.0, -211.0, -371.0, -507.0, -605.0, -668.0, -690.0, -692.0, -692.0, -692.0, -692.0, -692.0, -692.0, -692.0, -692.0, -692.0, -692.0]	[-490.0, -490.0, -490.0, -490.0, -490.0, -490.0, -490.0, -487.0, -486.0, -484.0, -483.0, -481.0, -480.0, -479.0, -479.0, -477.0, -474.0, -470.0, -465.0, -461.0, -454.0, -449.0, -444.0, -441.0, -435.0, -428.0, -419.0, -412.0, -405.0, -398.0, -390.0, -382.0, -377.0, -371.0, -362.0, -354.0, -345.0, -333.0, -322.0, -305.0, -289.0, -270.0, -255.0, -240.0, -227.0, -207.0, -186.0, -164.0, -147.0, -122.0, -100.0, -70.0, -28.0, 23.0, 64.0, 98.0, 123.0, 157.0, 185.0, 208.0, 228.0, 260.0, 290.0, 316.0, 351.0, 393.0, 425.0, 446.0, 465.0, 475.0, 480.0, 480.0, 480.0, 480.0, 480.0, 480.0, 480.0, 480.0, 480.0, 480.0, 480.0]	[0.010971540003083646, 0.016946576943155378, 0.023358178994385526, 0.03678554279031232, 0.05380748605239205, 0.07016109902178869, 0.08710180502384901, 0.10359980189241469, 0.12046575592830777, 0.1368357528699562, 0.15378328555379994, 0.17016591181163676, 0.1871028631576337, 0.20320388957043178, 0.22019818486296572, 0.23678902437677607, 0.2539573995745741, 0.2698730821139179, 0.28709299862384796, 0.3036449261417147, 0.32049415484652855, 0.33682011981727555, 0.35389121508342214, 0.37017622007988393, 0.38710156606975943, 0.4034664430364501, 0.4203791597101372, 0.4368129859503824, 0.45394483851850964, 0.46987690503010526, 0.4870357229083311, 0.5032528026204091, 0.5203481325297616, 0.5368693400523625, 0.5538189207145479, 0.5701858456886839, 0.587096173025202, 0.6033832260000054, 0.6204263319377787, 0.6368372888828162, 0.6538414828537498, 0.6700295492191799, 0.6871180524758529, 0.7034392387722619, 0.7203932567790616, 0.7368540483294055, 0.7537971436686348, 0.7701855726190843, 0.787102726608282, 0.803415720933117, 0.8204352748871315, 0.8367892291862518, 0.853951801720541, 0.8698886469064746, 0.8870372247765772, 0.9036304536275566, 0.9203400770493317, 0.9369165805692319, 0.9538658199016936, 0.9701300035812892, 0.9870840215589851, 1.0035413997829892, 1.0204230551607907, 1.0367275161261205, 1.0538248940429185, 1.069898955145618, 1.0870396823738702, 1.10349228195264, 1.1203797399648465, 1.1365493743505795, 1.1537716802267823, 1.1701164185069501, 1.1871646444487851, 1.203269766876474, 1.2202244675136171, 1.23680028837407, 1.2538051650044508, 1.2701693592825904, 1.2871254252677318, 1.3035589101782534, 1.3205238508235198]
22	inanimate/n52.jpg	inanimate	animate	left	1.217	[0.0, 0.0, 0.0, 0.0, 0.0, 0.0, 0.0, 0.0, 0.0, 0.0, 0.0, 0.0, 0.0, 0.0, 0.0, 0.0, 0.0, 0.0, 0.0, 0.0, 0.0, 0.0, 0.0, 0.0, -1.0, 0.0, 0.0, 1.0, 3.0, 3.0, 5.0, 7.0, 10.0, 16.0, 22.0, 32.0, 46.0, 84.0, 122.0, 164.0, 208.0, 248.0, 299.0, 351.0, 422.0, 477.0, 525.0, 557.0, 589.0, 619.0, 652.0, 663.0, 666.0, 660.0, 628.0, 550.0, 426.0, 275.0, 95.0, -75.0, -250.0, -401.0, -584.0, -661.0, -694.0, -708.0, -708.0, -708.0, -708.0, -708.0, -708.0, -708.0, -708.0]	[-490.0, -490.0, -490.0, -490.0, -490.0, -490.0, -490.0, -490.0, -490.0, -490.0, -490.0, -490.0, -490.0, -490.0, -490.0, -490.0, -490.0, -490.0, -490.0, -490.0, -490.0, -490.0, -490.0, -490.0, -490.0, -486.0, -486.0, -483.0, -481.0, -480.0, -477.0, -472.0, -466.0, -457.0, -446.0, -434.0, -417.0, -370.0, -331.0, -289.0, -256.0, -224.0, -184.0, -143.0, -92.0, -43.0, -2.0, 26.0, 60.0, 97.0, 142.0, 166.0, 187.0, 209.0, 242.0, 290.0, 342.0, 390.0, 434.0, 483.0, 522.0, 540.0, 540.0, 540.0, 540.0, 540.0, 540.0, 540.0, 540.0, 540.0, 540.0, 540.0, 540.0]	[0.015008009388111532, 0.02086699305800721, 0.02843400786514394, 0.0452842605591286, 0.062324635830009356, 0.07862636615755036, 0.09574934406555258, 0.11181589582702145, 0.12890747108031064, 0.1453638253151439, 0.16231033398071304, 0.17842023505363613, 0.19555925560416654, 0.2117555139993783, 0.22886995854787529, 0.24528330483008176, 0.2623107094259467, 0.27867217306629755, 0.29561765771359205, 0.31213954792474397, 0.32905192326870747, 0.34531371761113405, 0.3623011862509884, 0.37866094321361743, 0.39560574520146474, 0.4118282862182241, 0.4289219094789587, 0.44532535708276555, 0.46229848969960585, 0.4783899588219356, 0.4955788140068762, 0.5117760963912588, 0.5289355969289318, 0.5454015084833372, 0.5623302678286564, 0.5786132248176727, 0.5956706667493563, 0.6117648665094748, 0.628916857735021, 0.6453189400199335, 0.6622948033036664, 0.6783657924097497, 0.6955481623008382, 0.7117727513250429, 0.7288288279087283, 0.7453326274699066, 0.7623204374394845, 0.7784293145232368, 0.7956229483825155, 0.8117656174581498, 0.8288469527033158, 0.8453722562408075, 0.8622641515976284, 0.8784689432941377, 0.8955656385514885, 0.9119233475066721, 0.9288739521580283, 0.9452876397699583, 0.9623061697056983, 0.9785478253907058, 0.9955882006615866, 1.011971850937698, 1.0288715969654731, 1.0450852633221075, 1.06231439585099, 1.0786256834981032, 1.0955561494920403, 1.111838765151333, 1.128971641708631, 1.1453522199881263, 1.1623403712874278, 1.1786212802981026, 1.1956811115669552]
23	inanimate/n21.jpg	inanimate	animate	left	1.333	[0.0, 0.0, 0.0, 0.0, 0.0, 0.0, 0.0, 0.0, 0.0, 0.0, 0.0, 0.0, 0.0, 0.0, 0.0, 0.0, 0.0, 0.0, 0.0, 0.0, 0.0, 0.0, 0.0, 0.0, -2.0, -2.0, -2.0, -2.0, -2.0, -2.0, -2.0, -2.0, -2.0, -2.0, -3.0, -3.0, -3.0, -3.0, -3.0, -3.0, -1.0, 5.0, 9.0, 13.0, 14.0, 14.0, 12.0, -5.0, -42.0, -134.0, -228.0, -335.0, -440.0, -551.0, -644.0, -713.0, -759.0, -781.0, -786.0, -787.0, -787.0, -787.0, -787.0, -787.0, -787.0, -787.0, -787.0, -787.0, -787.0, -787.0, -787.0, -787.0, -787.0, -787.0, -785.0, -783.0, -780.0, -780.0, -780.0, -780.0]	[-490.0, -490.0, -490.0, -490.0, -490.0, -490.0, -490.0, -490.0, -490.0, -490.0, -490.0, -490.0, -490.0, -490.0, -490.0, -490.0, -488.0, -487.0, -487.0, -485.0, -482.0, -481.0, -479.0, -476.0, -474.0, -473.0, -473.0, -473.0, -472.0, -471.0, -470.0, -470.0, -469.0, -467.0, -463.0, -459.0, -459.0, -451.0, -443.0, -436.0, -426.0, -408.0, -392.0, -380.0, -372.0, -357.0, -331.0, -292.0, -240.0, -150.0, -70.0, 9.0, 84.0, 155.0, 206.0, 245.0, 275.0, 291.0, 296.0, 296.0, 296.0, 296.0, 296.0, 296.0, 296.0, 296.0, 296.0, 296.0, 296.0, 296.0, 296.0, 296.0, 296.0, 309.0, 336.0, 359.0, 376.0, 380.0, 380.0, 380.0]	[0.005115287000080571, 0.009927743230946362, 0.025446796615142375, 0.042133892071433365, 0.05904899805318564, 0.0754210430313833, 0.09243581831105985, 0.10874812994734384, 0.12568439860478975, 0.14223188880714588, 0.15907633886672556, 0.17544735979754478, 0.19246520710294135, 0.20881301737972535, 0.22573290206491947, 0.24222065895446576, 0.259053503657924, 0.2754951805691235, 0.2924491985759232, 0.30861780894338153, 0.32575921883108094, 0.3418837972567417, 0.35895523385261185, 0.3753931561077479, 0.39237584607326426, 0.40848677116446197, 0.4255455784150399, 0.44208282860927284, 0.4590842919133138, 0.4751720063504763, 0.4923635922023095, 0.5087827411480248, 0.5257439271081239, 0.5421361107146367, 0.5590573607187252, 0.5754348670016043, 0.5924274556455202, 0.6087684392696247, 0.6257241639250424, 0.6418917503324337, 0.6589413415931631, 0.6753789225185756, 0.6924227111157961, 0.7087339987629093, 0.7257610620581545, 0.7418784724723082, 0.7590072530147154, 0.7754281086090486, 0.7924524412374012, 0.8086176382785197, 0.8255941842508037, 0.8421751251153182, 0.8590124071633909, 0.8753919614246115, 0.8923787474050187, 0.9087931176763959, 0.9256884263595566, 0.9421536552545149, 0.9589834279613569, 0.9751557930139825, 0.9923282642266713, 1.0085839145758655, 1.025609953852836, 1.0420782547444105, 1.0590452433971222, 1.0754541523347143, 1.0923665276786778, 1.108521484740777, 1.1256311506440397, 1.1421110568626318, 1.1590766801964492, 1.1753767038462684, 1.1924266364367213, 1.2084566655685194, 1.2256216274399776, 1.2423073575773742, 1.259002645034343, 1.2754549032542855, 1.2923450919624884, 1.3087263529014308]
24	animate/a69.jpg	animate	inanimate	left	1.647	[0.0, 0.0, 0.0, 0.0, 0.0, 0.0, 0.0, 0.0, 0.0, 0.0, 0.0, 0.0, 0.0, 0.0, 0.0, 0.0, 0.0, 0.0, 0.0, 0.0, 0.0, 0.0, 0.0, 0.0, 0.0, 0.0, 0.0, 0.0, 0.0, 0.0, 0.0, 0.0, 0.0, 0.0, 0.0, 0.0, 0.0, 0.0, 0.0, 0.0, 0.0, 3.0, 8.0, 15.0, 21.0, 26.0, 33.0, 40.0, 50.0, 61.0, 73.0, 126.0, 184.0, 250.0, 315.0, 372.0, 406.0, 429.0, 446.0, 454.0, 456.0, 450.0, 431.0, 331.0, 193.0, -8.0, -233.0, -468.0, -692.0, -879.0, -960.0, -960.0, -960.0, -960.0, -960.0, -960.0, -960.0, -960.0, -960.0, -960.0, -960.0, -960.0, -960.0, -960.0, -960.0, -960.0, -960.0, -960.0, -960.0, -960.0, -960.0, -952.0, -942.0, -938.0, -935.0, -935.0, -935.0, -935.0, -935.0]	[-490.0, -490.0, -490.0, -490.0, -490.0, -490.0, -490.0, -490.0, -490.0, -490.0, -490.0, -490.0, -490.0, -490.0, -490.0, -490.0, -490.0, -490.0, -490.0, -490.0, -490.0, -490.0, -490.0, -490.0, -490.0, -490.0, -490.0, -490.0, -490.0, -490.0, -490.0, -490.0, -490.0, -490.0, -490.0, -490.0, -490.0, -490.0, -490.0, -490.0, -490.0, -485.0, -472.0, -449.0, -421.0, -404.0, -392.0, -372.0, -342.0, -304.0, -274.0, -200.0, -133.0, -69.0, -5.0, 44.0, 84.0, 115.0, 143.0, 167.0, 188.0, 203.0, 220.0, 254.0, 292.0, 344.0, 388.0, 422.0, 459.0, 488.0, 506.0, 519.0, 523.0, 523.0, 523.0, 523.0, 523.0, 523.0, 523.0, 523.0, 523.0, 523.0, 523.0, 523.0, 523.0, 523.0, 523.0, 523.0, 523.0, 523.0, 523.0, 520.0, 512.0, 509.0, 508.0, 508.0, 508.0, 508.0, 508.0]	[0.015271859912900254, 0.02102093430585228, 0.028862722276244313, 0.04583960957825184, 0.06265402230201289, 0.0789468779694289, 0.09593366394983605, 0.11203434903291054, 0.12914674560306594, 0.1453744066238869, 0.16243799254880287, 0.17893906144308858, 0.19597022072412074, 0.21229174835025333, 0.22926112634013407, 0.24583967786747962, 0.26265340790268965, 0.2786899223574437, 0.2956995776621625, 0.3122603798401542, 0.32928607778740115, 0.3454475202015601, 0.36250598612241447, 0.3788944150728639, 0.39587573969038203, 0.4120317207707558, 0.4291738133179024, 0.4454690583224874, 0.46249031892511994, 0.478952475823462, 0.49591741646872833, 0.5121474668267183, 0.5292376767611131, 0.545364644494839, 0.5624302784272004, 0.5789746966329403, 0.5959048212971538, 0.6120949356700294, 0.629239417554345, 0.6455513878609054, 0.6625706004851963, 0.6789464000903536, 0.6960693779983558, 0.7120604951342102, 0.7291046250902582, 0.7453940674022306, 0.7623712960630655, 0.7790358635247685, 0.7960147988342214, 0.812258161167847, 0.82927566714352, 0.8456842347222846, 0.8625348287750967, 0.8789297430485021, 0.8961179155739956, 0.9120977687416598, 0.9291630613151938, 0.9454552343231626, 0.962536228238605, 0.9789543531660456, 0.9959879017842468, 1.0122828054300044, 1.0292675434029661, 1.0454894017602783, 1.062578929006122, 1.0788506220269483, 1.0959271785977762, 1.1120538050308824, 1.1291276309348177, 1.1457092544587795, 1.162610365805449, 1.1788882027904037, 1.195957932737656, 1.212263759050984, 1.229136198409833, 1.2456826645939145, 1.2625158506562002, 1.2789244182349648, 1.2959357802174054, 1.3123559531231876, 1.3292010858422145, 1.3454096321947873, 1.3624865301244427, 1.3786834711791016, 1.395789382426301, 1.412331411265768, 1.4291792746516876, 1.4456970688479487, 1.4625026069115847, 1.4787626946053933, 1.4959914857754484, 1.512055648228852, 1.5291479061415885, 1.5453390445036348, 1.5624865983845666, 1.578937149984995, 1.5959741119295359, 1.6123181675502565, 1.6292657002049964]
25	inanimate/n55.jpg	animate	inanimate	right	1.216	[0.0, 0.0, 0.0, 0.0, 0.0, 0.0, 0.0, 0.0, 0.0, 0.0, 0.0, 0.0, 0.0, 0.0, 0.0, 0.0, 0.0, 0.0, 0.0, 0.0, 0.0, 0.0, 0.0, 0.0, 0.0, 0.0, 0.0, 0.0, 0.0, 0.0, 0.0, 0.0, 0.0, -1.0, -9.0, -20.0, -32.0, -41.0, -57.0, -74.0, -94.0, -105.0, -105.0, -94.0, -77.0, -52.0, -14.0, 46.0, 119.0, 193.0, 276.0, 361.0, 447.0, 535.0, 586.0, 639.0, 696.0, 734.0, 761.0, 778.0, 796.0, 811.0, 822.0, 834.0, 842.0, 855.0, 860.0, 862.0, 869.0, 892.0, 903.0, 905.0, 905.0, 905.0]	[-490.0, -490.0, -490.0, -490.0, -490.0, -490.0, -490.0, -490.0, -490.0, -490.0, -490.0, -490.0, -490.0, -490.0, -490.0, -490.0, -490.0, -490.0, -490.0, -490.0, -490.0, -490.0, -490.0, -490.0, -490.0, -490.0, -490.0, -490.0, -490.0, -490.0, -490.0, -490.0, -488.0, -484.0, -476.0, -467.0, -458.0, -449.0, -430.0, -409.0, -380.0, -353.0, -335.0, -312.0, -292.0, -258.0, -219.0, -172.0, -128.0, -87.0, -41.0, 6.0, 44.0, 81.0, 104.0, 132.0, 162.0, 184.0, 197.0, 208.0, 221.0, 237.0, 257.0, 276.0, 293.0, 320.0, 342.0, 362.0, 393.0, 447.0, 488.0, 504.0, 513.0, 521.0]	[0.009951977845048532, 0.01524127647280693, 0.021180814772378653, 0.034815709106624126, 0.05178269775933586, 0.06813767604762688, 0.08513640868477523, 0.10153166428790428, 0.1185085515899118, 0.13483724722755142, 0.15188001183560118, 0.16830359809682705, 0.18521802144823596, 0.20154705841559917, 0.21847923108725809, 0.23486902535660192, 0.25180836601066403, 0.26834493354544975, 0.285148764931364, 0.30154675120138563, 0.3185127158649266, 0.3348775928025134, 0.35190499742748216, 0.3679165945504792, 0.38510681508341804, 0.4015713613189291, 0.4185653153108433, 0.43483530162484385, 0.451808434270788, 0.4682654711941723, 0.48515156385838054, 0.5015393101493828, 0.5186032374040224, 0.5345656825811602, 0.5518504523788579, 0.5681767587084323, 0.5851853899948765, 0.6015301282750443, 0.6184872182784602, 0.6345660580263939, 0.6517197559296619, 0.6680757582071237, 0.6850424055301119, 0.7015421090763994, 0.7186572363134474, 0.734656204120256, 0.7517184247262776, 0.7683130188961513, 0.785093980957754, 0.8014957219129428, 0.8186419104458764, 0.8347883341775741, 0.8517819468106609, 0.8682324984110892, 0.8851097164151724, 0.9015268173534423, 0.9185808459587861, 0.9346040484088007, 0.951763207645854, 0.9680813219456468, 0.9851077025523409, 1.0013988515420351, 1.0184593654994387, 1.0349201570497826, 1.0518164897512179, 1.0682868386502378, 1.0851906806637999, 1.1015248376352247, 1.1186420128506143, 1.134640980657423, 1.1518185718741734, 1.168048963561887, 1.1850193655409385, 1.2012323492381256]
26	inanimate/n42.jpg	inanimate	animate	left	1.229	[0.0, 0.0, 0.0, 0.0, 0.0, 0.0, 0.0, 0.0, 0.0, 0.0, 0.0, 0.0, 0.0, 0.0, 0.0, 0.0, 0.0, 0.0, 0.0, 0.0, 0.0, 0.0, 0.0, 0.0, 0.0, 0.0, 0.0, 0.0, -1.0, -1.0, -1.0, -2.0, -2.0, -2.0, -3.0, -3.0, -3.0, -3.0, -3.0, -3.0, -3.0, -3.0, -7.0, -18.0, -28.0, -29.0, -29.0, -31.0, -33.0, -35.0, -38.0, -45.0, -79.0, -123.0, -198.0, -286.0, -389.0, -482.0, -546.0, -592.0, -629.0, -652.0, -666.0, -675.0, -690.0, -700.0, -715.0, -732.0, -748.0, -758.0, -769.0, -783.0, -786.0, -786.0]	[-490.0, -490.0, -490.0, -490.0, -490.0, -490.0, -490.0, -490.0, -490.0, -490.0, -490.0, -490.0, -490.0, -490.0, -490.0, -490.0, -490.0, -490.0, -490.0, -490.0, -490.0, -490.0, -490.0, -490.0, -490.0, -490.0, -490.0, -489.0, -489.0, -488.0, -488.0, -487.0, -486.0, -486.0, -485.0, -485.0, -482.0, -482.0, -478.0, -473.0, -468.0, -461.0, -447.0, -425.0, -408.0, -404.0, -400.0, -387.0, -372.0, -357.0, -337.0, -310.0, -245.0, -194.0, -128.0, -58.0, 14.0, 81.0, 134.0, 177.0, 220.0, 251.0, 273.0, 286.0, 306.0, 317.0, 334.0, 355.0, 373.0, 386.0, 399.0, 419.0, 423.0, 423.0]	[0.012155488191638142, 0.017776562657672912, 0.024852399044902995, 0.039482279535150155, 0.056320244271773845, 0.07270321185933426, 0.08983608841663226, 0.10616683206171729, 0.12291297817137092, 0.13926761512993835, 0.1563349557109177, 0.17270495268166997, 0.18964497599517927, 0.20595933563890867, 0.22301746023003943, 0.23935468919808045, 0.2564175924635492, 0.2724940429034177, 0.2895559221797157, 0.30600988707737997, 0.3229676597402431, 0.33914753410499543, 0.3563336586521473, 0.3726705462904647, 0.38967098557623103, 0.40599490256863646, 0.42293594987131655, 0.43919876823201776, 0.45629170880420133, 0.4727108577208128, 0.48973689702688716, 0.5059833313571289, 0.5229639733443037, 0.539130877063144, 0.5562835509481374, 0.5727187425363809, 0.589749219128862, 0.6059871201578062, 0.6229459168098401, 0.6393442444095854, 0.6563777930277865, 0.6727238966559526, 0.6897369652870111, 0.705863933020737, 0.7229111349734012, 0.7393968438555021, 0.7563890911696944, 0.7726696588215418, 0.7897100340924226, 0.8059902604145464, 0.8229487157368567, 0.8392712673812639, 0.8563270026643295, 0.8726840289600659, 0.8898708361375611, 0.9058431799639948, 0.9229313418909442, 0.9391852855624165, 0.9562925621285103, 0.9724171405541711, 0.9896288650634233, 1.0060094433429185, 1.022955610678764, 1.0394406369014177, 1.0563465269224253, 1.0726741985417902, 1.0898156084294897, 1.105787269596476, 1.1228907915065065, 1.1394123403879348, 1.1562953610555269, 1.172796088620089, 1.1896398559911177, 1.206002684950363]
27	inanimate/n48.jpg	animate	inanimate	right	1.232	[0.0, 0.0, 0.0, 0.0, 0.0, 0.0, 0.0, 0.0, 0.0, 0.0, 0.0, 0.0, 0.0, 0.0, 0.0, 0.0, 0.0, 0.0, 0.0, -1.0, -2.0, -3.0, -4.0, -4.0, -4.0, -4.0, -4.0, -4.0, -4.0, -4.0, -4.0, -4.0, -3.0, -1.0, 2.0, 6.0, 13.0, 20.0, 28.0, 38.0, 51.0, 63.0, 79.0, 91.0, 103.0, 114.0, 124.0, 133.0, 145.0, 167.0, 195.0, 226.0, 263.0, 301.0, 370.0, 401.0, 437.0, 460.0, 470.0, 475.0, 481.0, 485.0, 489.0, 494.0, 499.0, 512.0, 531.0, 583.0, 629.0, 675.0, 718.0, 750.0, 761.0, 764.0, 764.0]	[-490.0, -490.0, -490.0, -490.0, -490.0, -490.0, -490.0, -490.0, -490.0, -490.0, -490.0, -490.0, -490.0, -490.0, -490.0, -490.0, -490.0, -490.0, -490.0, -487.0, -485.0, -482.0, -479.0, -479.0, -477.0, -474.0, -471.0, -467.0, -464.0, -456.0, -449.0, -442.0, -435.0, -427.0, -420.0, -411.0, -399.0, -388.0, -375.0, -360.0, -343.0, -327.0, -305.0, -287.0, -269.0, -249.0, -229.0, -214.0, -193.0, -163.0, -126.0, -91.0, -58.0, -28.0, 24.0, 47.0, 73.0, 89.0, 97.0, 101.0, 106.0, 112.0, 123.0, 139.0, 159.0, 181.0, 212.0, 267.0, 306.0, 338.0, 364.0, 383.0, 389.0, 390.0, 390.0]	[0.006756075454177335, 0.011599934310652316, 0.017012454190989956, 0.028620853583561257, 0.0465957990672905, 0.062124751100782305, 0.0784367214073427, 0.09544671804178506, 0.11192389359348454, 0.12888405559351668, 0.14502058064681478, 0.16221796919126064, 0.1786483821051661, 0.19541227753506973, 0.21187272775569, 0.22878612711792812, 0.24509502542787232, 0.2621770433324855, 0.27860950425383635, 0.29544746899046004, 0.3118966552137863, 0.3289578518306371, 0.3450619502400514, 0.36230473607429303, 0.3785754050768446, 0.39554751373361796, 0.41163352149305865, 0.4288735766604077, 0.4451923736487515, 0.4622235329297837, 0.47865838315919973, 0.4955270678619854, 0.5119236888131127, 0.5290712426940445, 0.5451255064690486, 0.5622242497338448, 0.5785993666795548, 0.5954854593437631, 0.6119175789353903, 0.6289279168995563, 0.644987300678622, 0.6621130092535168, 0.6784079128992744, 0.6954458988329861, 0.7119503810536116, 0.7290177216636948, 0.7452020333730616, 0.7622748352878261, 0.7786158189410344, 0.7954746049654204, 0.8118439192476217, 0.8288320705469232, 0.8449675716110505, 0.8622591680905316, 0.8785312024410814, 0.8954975084052421, 0.9119521559914574, 0.9290034539299086, 0.9450628377089743, 0.9622008342703339, 0.9786059885227587, 0.9955207532038912, 1.0119351234752685, 1.0287795735057443, 1.0452413890743628, 1.0622544577054214, 1.0784432067594025, 1.0954808513633907, 1.1118774722854141, 1.128925698227249, 1.1449393433576915, 1.1620851905900054, 1.178643603459932, 1.1955675841018092, 1.2119672770495526]
28	inanimate/n73.jpg	inanimate	animate	left	1.396	[0.0, 0.0, 0.0, 0.0, 0.0, 0.0, 0.0, 0.0, 0.0, 0.0, 0.0, 0.0, 0.0, 0.0, 0.0, 0.0, 0.0, 0.0, 0.0, 0.0, 0.0, -1.0, -1.0, -1.0, -1.0, -1.0, -1.0, -1.0, -1.0, -1.0, -1.0, -1.0, -1.0, -1.0, -1.0, -1.0, -1.0, -1.0, -1.0, 8.0, 27.0, 69.0, 127.0, 201.0, 281.0, 375.0, 468.0, 559.0, 660.0, 694.0, 717.0, 729.0, 734.0, 732.0, 701.0, 623.0, 501.0, 344.0, 145.0, -166.0, -267.0, -504.0, -626.0, -720.0, -767.0, -786.0, -788.0, -788.0, -788.0, -788.0, -788.0, -788.0, -788.0, -788.0, -788.0, -788.0, -788.0, -788.0, -788.0, -788.0, -788.0, -788.0, -788.0, -788.0, -788.0]	[-490.0, -490.0, -490.0, -490.0, -490.0, -490.0, -490.0, -490.0, -490.0, -490.0, -490.0, -490.0, -490.0, -490.0, -490.0, -490.0, -490.0, -490.0, -490.0, -489.0, -489.0, -488.0, -486.0, -485.0, -483.0, -482.0, -482.0, -481.0, -481.0, -481.0, -480.0, -480.0, -480.0, -479.0, -479.0, -478.0, -470.0, -466.0, -461.0, -442.0, -416.0, -367.0, -300.0, -226.0, -146.0, -71.0, 2.0, 79.0, 180.0, 227.0, 264.0, 291.0, 314.0, 337.0, 364.0, 395.0, 420.0, 439.0, 466.0, 504.0, 518.0, 540.0, 540.0, 540.0, 540.0, 540.0, 540.0, 540.0, 540.0, 540.0, 540.0, 540.0, 540.0, 540.0, 540.0, 540.0, 540.0, 540.0, 540.0, 540.0, 540.0, 540.0, 540.0, 540.0, 540.0]	[0.009724991279654205, 0.01521499382215552, 0.02078964695101604, 0.03441771466168575, 0.051356372656300664, 0.06759154298924841, 0.08473227021750063, 0.10090088061406277, 0.11803273318218999, 0.13444505544612184, 0.1514557347400114, 0.16766018510679714, 0.18470226702629589, 0.20106509598554112, 0.21798293266328983, 0.2344321189157199, 0.25137043558061123, 0.2676711418898776, 0.284696498507401, 0.301062740792986, 0.31809048674767837, 0.33442361970082857, 0.3513697870366741, 0.36777869597426616, 0.3847610446100589, 0.4010719909274485, 0.4181546915206127, 0.43443013916839845, 0.45133329852251336, 0.46782173807150684, 0.48471636409522034, 0.5010757797281258, 0.5180895310186315, 0.5344124239927623, 0.5514278819318861, 0.5675913723243866, 0.5847225422330666, 0.6010758138436358, 0.6181687544449233, 0.6343322448374238, 0.6513217614556197, 0.6677999610255938, 0.6846119844121858, 0.7011106639693025, 0.7181070072692819, 0.7344541348866187, 0.7513873315474484, 0.7678491471451707, 0.7847727864573244, 0.8011018234537914, 0.8180773454078007, 0.8343149051070213, 0.8513692750420887, 0.8678768292593304, 0.884686804638477, 0.9011496442253701, 0.9182067448273301, 0.9344791204784997, 0.9513812558434438, 0.9676201808615588, 0.9847144867526367, 1.000961945101153, 1.0180931150098331, 1.034338525350904, 1.0513638819684274, 1.067603831004817, 1.084754456882365, 1.1010677925369237, 1.1180709624895826, 1.1344201381143648, 1.1514147747366223, 1.1676980730844662, 1.184706021711463, 1.2010340346896555, 1.2180122873105574, 1.2344290469191037, 1.2513864782231394, 1.267536315281177, 1.2846435918763746, 1.301002324820729, 1.3179068494937383, 1.3343683237326331, 1.3512946937407833, 1.3678210212674458, 1.3846842446364462]
29	inanimate/n72.jpg	inanimate	animate	left	1.533	[0.0, -2.0, -2.0, -2.0, -2.0, -2.0, -2.0, -2.0, -2.0, -2.0, -2.0, -2.0, -2.0, -2.0, -2.0, -2.0, -2.0, -2.0, -2.0, -2.0, -2.0, -2.0, -2.0, -2.0, -2.0, -2.0, -2.0, -2.0, -2.0, -2.0, -2.0, -2.0, -2.0, -2.0, -2.0, -2.0, -2.0, -3.0, -3.0, -4.0, -5.0, -6.0, -8.0, -9.0, -9.0, -9.0, -6.0, 19.0, 38.0, 59.0, 89.0, 132.0, 172.0, 214.0, 246.0, 267.0, 270.0, 269.0, 242.0, 218.0, 104.0, -23.0, -161.0, -332.0, -497.0, -643.0, -765.0, -857.0, -894.0, -912.0, -914.0, -914.0, -915.0, -917.0, -919.0, -919.0, -919.0, -919.0, -919.0, -919.0, -919.0, -919.0, -919.0, -919.0, -919.0, -919.0, -912.0, -907.0, -899.0, -896.0, -896.0, -896.0]	[-490.0, -494.0, -494.0, -494.0, -494.0, -494.0, -494.0, -494.0, -494.0, -494.0, -494.0, -494.0, -494.0, -494.0, -494.0, -494.0, -494.0, -494.0, -494.0, -494.0, -494.0, -494.0, -494.0, -494.0, -494.0, -494.0, -494.0, -494.0, -494.0, -494.0, -494.0, -494.0, -494.0, -494.0, -494.0, -494.0, -494.0, -493.0, -490.0, -487.0, -482.0, -478.0, -472.0, -464.0, -458.0, -447.0, -435.0, -393.0, -361.0, -327.0, -285.0, -232.0, -174.0, -117.0, -73.0, -31.0, -7.0, 12.0, 41.0, 56.0, 101.0, 143.0, 179.0, 214.0, 240.0, 261.0, 278.0, 293.0, 305.0, 310.0, 311.0, 311.0, 311.0, 314.0, 318.0, 318.0, 318.0, 318.0, 318.0, 318.0, 318.0, 318.0, 318.0, 318.0, 318.0, 335.0, 352.0, 369.0, 393.0, 408.0, 409.0, 409.0]	[0.007032213965430856, 0.01333390673971735, 0.028977546753594652, 0.04596808739006519, 0.062328185682417825, 0.07925933433580212, 0.09561704329098575, 0.11254716795519926, 0.12890829023672268, 0.14592135886778124, 0.16246884907013737, 0.1792641471256502, 0.19562390408827923, 0.2126728126895614, 0.2289895616704598, 0.24595928099006414, 0.2622046913311351, 0.2792723732709419, 0.29545941564720124, 0.3126707988267299, 0.3289913024636917, 0.34706284521962516, 0.36234023471479304, 0.379270700737834, 0.395628068363294, 0.41263499297201633, 0.42898689926369116, 0.4459627625765279, 0.46233037021011114, 0.4792236308858264, 0.4955011265410576, 0.512640829780139, 0.5289807894150726, 0.5459133034164552, 0.5622566763777286, 0.5792240063601639, 0.5954158273816574, 0.6125483626092318, 0.6288316609570757, 0.6458938815630972, 0.6621372438967228, 0.6792008298216388, 0.6954387308505829, 0.712636802054476, 0.728937849693466, 0.7459376063197851, 0.762435261887731, 0.7793012159236241, 0.7956271808943711, 0.8125883668544702, 0.828876443876652, 0.8459028244833462, 0.8623178774141707, 0.8792568767385092, 0.8955814763903618, 0.9126143423200119, 0.9289553259441163, 0.9459079786029179, 0.962128130311612, 0.9791934229142498, 0.9956415851484053, 1.01263997645583, 1.0288529601530172, 1.0459684287197888, 1.0623773376573808, 1.0792494356574025, 1.0956122646166477, 1.1126898452057503, 1.1288519702793565, 1.1459008788806386, 1.1622244545142166, 1.1791682325128932, 1.1956235627585556, 1.2126339007227216, 1.2290704576298594, 1.2459722516359761, 1.262321768590482, 1.2792508692655247, 1.295658071525395, 1.3126195988443214, 1.3289551211637445, 1.3460490857250988, 1.3623566187161487, 1.3792375914053991, 1.395571748376824, 1.4126872169435956, 1.4289083926414605, 1.445885962632019, 1.4623511915269773, 1.4792625428526662, 1.4955912384903058, 1.5126152297889348]
30	animate/a37.jpg	animate	inanimate	left	1.964	[0.0, 0.0, 0.0, 0.0, 0.0, 0.0, 0.0, 0.0, 0.0, 0.0, 0.0, 0.0, 0.0, 0.0, 0.0, 0.0, 0.0, 0.0, 0.0, 0.0, 0.0, 0.0, 0.0, 0.0, 0.0, 0.0, 0.0, 0.0, 0.0, 0.0, 0.0, 1.0, 5.0, 9.0, 13.0, 15.0, 15.0, 15.0, 18.0, 22.0, 28.0, 38.0, 47.0, 56.0, 63.0, 70.0, 76.0, 83.0, 92.0, 102.0, 121.0, 138.0, 157.0, 177.0, 201.0, 228.0, 262.0, 287.0, 314.0, 330.0, 339.0, 349.0, 372.0, 385.0, 394.0, 397.0, 399.0, 394.0, 365.0, 278.0, 127.0, -83.0, -322.0, -707.0, -934.0, -960.0, -960.0, -960.0, -960.0, -960.0, -960.0, -960.0, -960.0, -960.0, -960.0, -960.0, -960.0, -960.0, -960.0, -960.0, -960.0, -960.0, -960.0, -960.0, -960.0, -960.0, -960.0, -960.0, -960.0, -960.0, -960.0, -960.0, -960.0, -960.0, -960.0, -960.0, -960.0, -960.0, -960.0, -960.0, -960.0, -960.0, -960.0, -960.0, -960.0, -960.0, -960.0, -956.0, -956.0]	[-490.0, -490.0, -490.0, -490.0, -490.0, -490.0, -490.0, -490.0, -490.0, -490.0, -490.0, -490.0, -490.0, -490.0, -490.0, -491.0, -491.0, -491.0, -491.0, -491.0, -491.0, -491.0, -491.0, -491.0, -491.0, -491.0, -491.0, -491.0, -489.0, -482.0, -477.0, -467.0, -459.0, -448.0, -438.0, -434.0, -434.0, -434.0, -430.0, -423.0, -411.0, -398.0, -385.0, -374.0, -365.0, -357.0, -351.0, -341.0, -331.0, -316.0, -299.0, -288.0, -273.0, -256.0, -236.0, -213.0, -184.0, -159.0, -124.0, -100.0, -73.0, -52.0, -10.0, 15.0, 38.0, 64.0, 88.0, 107.0, 134.0, 178.0, 239.0, 301.0, 359.0, 427.0, 461.0, 484.0, 498.0, 504.0, 506.0, 506.0, 506.0, 506.0, 506.0, 506.0, 506.0, 506.0, 506.0, 506.0, 506.0, 506.0, 506.0, 506.0, 506.0, 506.0, 506.0, 506.0, 506.0, 506.0, 506.0, 506.0, 506.0, 506.0, 506.0, 506.0, 506.0, 506.0, 506.0, 506.0, 506.0, 506.0, 506.0, 506.0, 506.0, 506.0, 506.0, 506.0, 504.0, 500.0, 500.0]	[0.011830334202386439, 0.01735412870766595, 0.02407019992824644, 0.038649904483463615, 0.055650685098953545, 0.07185581812518649, 0.08890643340419047, 0.10536039830185473, 0.12227072566747665, 0.13857552796253003, 0.1556384312279988, 0.17197054022108205, 0.18886789688258432, 0.2050842939352151, 0.22216323984321207, 0.23860184475779533, 0.2556053560692817, 0.27173846779624, 0.2888402830285486, 0.30503517607576214, 0.3222626019269228, 0.3385677455808036, 0.355622115515871, 0.37190234183799475, 0.3888805944880005, 0.40506456486764364, 0.4222247480938677, 0.4386715449800249, 0.4556876856076997, 0.47193719196366146, 0.4889550392399542, 0.5053199162066448, 0.5223234274890274, 0.5383991952694487, 0.5555730318010319, 0.5720563513750676, 0.5888990947569255, 0.6053288250113837, 0.6222330083546694, 0.6387241785705555, 0.655888116452843, 0.671975489531178, 0.688979342172388, 0.7055015737132635, 0.7222466958046425, 0.7386310287402011, 0.7556761826854199, 0.7720079503196757, 0.788904283021111, 0.8053759972390253, 0.8222682339255698, 0.8386099002382252, 0.855710691481363, 0.8720083257940132, 0.8888964664656669, 0.9052828474086709, 0.9222440333978739, 0.9385662437125575, 0.9556079843314365, 0.9719431652920321, 0.988910836604191, 1.0053798201843165, 1.0222730808600318, 1.038637616467895, 1.0556715064158197, 1.0719042874407023, 1.088913942745421, 1.1054385636234656, 1.1222618510073517, 1.1386417465982959, 1.1556408205651678, 1.1719493775453884, 1.1889774648298044, 1.2053822777816094, 1.222159143857425, 1.2386417807429098, 1.2555903373868205, 1.2718917263846379, 1.288985690975096, 1.3052935652958695, 1.322211743274238, 1.3386360122240148, 1.3556907234888058, 1.3719525178312324, 1.3888416825211607, 1.405333535396494, 1.4223117880464997, 1.438678712991532, 1.4556689122982789, 1.4719276346440893, 1.48882294332725, 1.50530762822018, 1.5221476409351453, 1.5385992164956406, 1.5555662051483523, 1.5720597647014074, 1.5889120654028375, 1.6053042490093503, 1.6222353976627346, 1.6386105146375485, 1.6556167565868236, 1.6719434042170178, 1.6889506701845676, 1.7053370511275716, 1.7221852558432147, 1.738659359398298, 1.7556427320523653, 1.7718953103758395, 1.788863323017722, 1.8050459280784708, 1.822152863314841, 1.8385662095679436, 1.8555547022260725, 1.8716758672962897, 1.8887452558847144, 1.9053374607174192, 1.9222013667749707, 1.938648163661128, 1.9556028643273748]
31	inanimate/n42.jpg	animate	inanimate	right	1.145	[0.0, 0.0, 0.0, 0.0, 0.0, 0.0, 0.0, 0.0, 0.0, -6.0, -20.0, -27.0, -28.0, -28.0, -28.0, -28.0, -28.0, -28.0, -28.0, -28.0, -28.0, -28.0, -28.0, -28.0, -28.0, -28.0, -29.0, -29.0, -29.0, -29.0, -27.0, -25.0, -19.0, -11.0, -3.0, 7.0, 17.0, 33.0, 46.0, 61.0, 78.0, 96.0, 129.0, 153.0, 177.0, 204.0, 223.0, 244.0, 268.0, 301.0, 346.0, 385.0, 431.0, 484.0, 563.0, 606.0, 641.0, 670.0, 699.0, 733.0, 756.0, 768.0, 773.0, 777.0, 781.0, 788.0, 788.0, 793.0, 793.0]	[-490.0, -491.0, -491.0, -491.0, -491.0, -491.0, -491.0, -491.0, -491.0, -492.0, -491.0, -491.0, -490.0, -490.0, -490.0, -490.0, -490.0, -490.0, -490.0, -490.0, -490.0, -490.0, -490.0, -490.0, -490.0, -490.0, -490.0, -485.0, -483.0, -480.0, -476.0, -471.0, -463.0, -454.0, -442.0, -431.0, -418.0, -403.0, -392.0, -380.0, -366.0, -353.0, -330.0, -315.0, -303.0, -287.0, -278.0, -268.0, -255.0, -236.0, -210.0, -183.0, -151.0, -112.0, -45.0, 2.0, 53.0, 101.0, 159.0, 242.0, 313.0, 374.0, 410.0, 438.0, 460.0, 482.0, 486.0, 494.0, 495.0]	[0.014257076429203153, 0.020414385275216773, 0.026610264758346602, 0.04339873616117984, 0.060432626109104604, 0.07677224441431463, 0.09380715835141018, 0.11025532058556564, 0.12720080526196398, 0.1435673888772726, 0.16055758818401955, 0.17666202792315744, 0.19380173116223887, 0.21020483743632212, 0.2272687646909617, 0.24354079901240766, 0.2605214409995824, 0.27693956592702307, 0.29386525324662216, 0.3102591435308568, 0.3273223881260492, 0.34358486512792297, 0.36050133645767346, 0.3766409335366916, 0.393729095463641, 0.40999839911819436, 0.42725449695717543, 0.44359274994349107, 0.4605880692251958, 0.4769304181972984, 0.4937769162352197, 0.5102213238133118, 0.5272282484511379, 0.5435361227719113, 0.560511303396197, 0.5768987083574757, 0.5938199583324604, 0.6102305739477742, 0.6272299892443698, 0.6435685835313052, 0.6605198708712123, 0.6768366198521107, 0.6938428618013859, 0.7102193440950941, 0.727224220696371, 0.7435017163807061, 0.7604946463543456, 0.7769144779304042, 0.7937766773102339, 0.8101821728923824, 0.8272529268288054, 0.8436369184346404, 0.8605455391225405, 0.8768817440723069, 0.893797532771714, 0.9101900577079505, 0.9273502409050707, 0.943508269963786, 0.9604325919644907, 0.976927516865544, 0.9937579722318333, 1.0102433398133144, 1.027223299111938, 1.0435765707516111, 1.0605114740610588, 1.076709097775165, 1.0938310516648926, 1.110194563283585, 1.1271489226201084]
32	animate/a48.jpg	inanimate	animate	right	1.181	[0.0, 0.0, 0.0, 0.0, 0.0, 0.0, 0.0, 0.0, 0.0, 0.0, 0.0, 0.0, 0.0, 0.0, 0.0, 0.0, 0.0, 0.0, 0.0, 0.0, 0.0, 0.0, -1.0, -1.0, -1.0, -1.0, -1.0, -1.0, -1.0, -1.0, -1.0, 1.0, 1.0, 2.0, 3.0, 3.0, 5.0, 7.0, 9.0, 16.0, 23.0, 30.0, 41.0, 59.0, 69.0, 80.0, 88.0, 100.0, 114.0, 129.0, 149.0, 184.0, 229.0, 278.0, 319.0, 353.0, 428.0, 477.0, 515.0, 557.0, 588.0, 621.0, 648.0, 672.0, 695.0, 717.0, 729.0, 736.0, 737.0, 737.0, 737.0]	[-490.0, -491.0, -491.0, -491.0, -491.0, -491.0, -491.0, -491.0, -491.0, -491.0, -491.0, -491.0, -491.0, -491.0, -491.0, -491.0, -491.0, -491.0, -491.0, -491.0, -491.0, -491.0, -491.0, -491.0, -491.0, -489.0, -488.0, -486.0, -485.0, -484.0, -482.0, -480.0, -479.0, -477.0, -476.0, -474.0, -472.0, -469.0, -466.0, -459.0, -452.0, -444.0, -437.0, -427.0, -421.0, -415.0, -409.0, -400.0, -389.0, -371.0, -351.0, -316.0, -271.0, -217.0, -164.0, -115.0, -28.0, 33.0, 90.0, 151.0, 202.0, 257.0, 305.0, 350.0, 394.0, 438.0, 470.0, 484.0, 487.0, 487.0, 487.0]	[0.001146265014540404, 0.00660384088405408, 0.017419664683984593, 0.03392278155661188, 0.05116727406857535, 0.06743623639340512, 0.08440595571300946, 0.10063907806761563, 0.11774225864792243, 0.13411498625646345, 0.1510806095902808, 0.16747654785285704, 0.18434216055902652, 0.20063365087844431, 0.21760268750949763, 0.2340283217781689, 0.2511427663557697, 0.2674806779832579, 0.2844090959697496, 0.3008360955864191, 0.3177576869202312, 0.33410925188218243, 0.35127523774281144, 0.3673093628603965, 0.3843575888022315, 0.40054633785621263, 0.41768808907363564, 0.4341468326456379, 0.4512257785827387, 0.46743671427248046, 0.48435318560223095, 0.5007938385242596, 0.5176471632439643, 0.5341342374449596, 0.5511759780638386, 0.5672698364942335, 0.5843242064293008, 0.6008146939857397, 0.6176560720195994, 0.6341626022476703, 0.6511654308706056, 0.6674449745332822, 0.6843809018610045, 0.7008505681005772, 0.7177465594431851, 0.734116897743661, 0.7511337210307829, 0.7674405713332817, 0.7843816186650656, 0.8008191995904781, 0.8176424869743641, 0.8341319505125284, 0.8511163471557666, 0.86748054146301, 0.8843912101292517, 0.900542753865011, 0.9176930384128354, 0.9341272059828043, 0.9511122852854896, 0.9673962662927806, 0.984415137587348, 1.0008219985174946, 1.0176879525533877, 1.0340989094693214, 1.0511136847781017, 1.0674591057177167, 1.0844131237245165, 1.1009534459153656, 1.1177705893060192, 1.1341300049389247, 1.1512499108212069]
