trialIndex	stimulus	isAnimate	left_option	right_option	response	response_time	xTrajectory	yTrajectory	tTrajectory
0	铅笔	False	animate	inanimate	right	2.094	[0.0, 0.0, 0.0, 0.0, 0.0, 0.0, 0.0, 0.0, 0.0, 0.0, 0.0, 0.0, 0.0, 0.0, 0.0, 0.0, 0.0, 0.0, 0.0, 0.0, 0.0, 0.0, 0.0, 0.0, 0.0, 0.0, 0.0, 0.0, 0.0, 0.0, 0.0, 0.0, 0.0, 0.0, 0.0, 0.0, 0.0, 0.0, 0.0, 0.0, 0.0, 0.0, 0.0, 0.0, 0.0, 0.0, 0.0, 0.0, 0.0, 0.0, 0.0, 0.0, 0.0, 0.0, 0.0, -2.0, -8.0, -11.0, -25.0, -40.0, -57.0, -77.0, -89.0, -97.0, -97.0, -104.0, -104.0, -104.0, -104.0, -104.0, -104.0, -104.0, -105.0, -105.0, -105.0, -105.0, -105.0, -105.0, -105.0, -105.0, -107.0, -107.0, -107.0, -108.0, -108.0, -108.0, -108.0, -103.0, -45.0, -27.0, 19.0, 64.0, 95.0, 110.0, 163.0, 213.0, 276.0, 354.0, 434.0, 526.0, 684.0, 747.0, 854.0, 959.0, 959.0, 959.0, 959.0, 959.0, 959.0, 956.0, 945.0, 928.0, 910.0, 896.0, 881.0, 870.0, 863.0, 861.0, 843.0, 829.0, 819.0, 817.0, 817.0, 817.0, 817.0]	[-490.0, -490.0, -490.0, -490.0, -490.0, -490.0, -490.0, -490.0, -490.0, -490.0, -490.0, -490.0, -490.0, -490.0, -490.0, -490.0, -490.0, -490.0, -490.0, -490.0, -490.0, -490.0, -490.0, -490.0, -490.0, -490.0, -490.0, -490.0, -490.0, -490.0, -490.0, -489.0, -489.0, -489.0, -489.0, -487.0, -487.0, -487.0, -486.0, -486.0, -486.0, -486.0, -486.0, -485.0, -485.0, -483.0, -481.0, -478.0, -474.0, -468.0, -463.0, -455.0, -444.0, -428.0, -410.0, -386.0, -370.0, -363.0, -345.0, -333.0, -329.0, -327.0, -333.0, -338.0, -338.0, -340.0, -340.0, -340.0, -340.0, -340.0, -340.0, -340.0, -341.0, -341.0, -341.0, -341.0, -341.0, -341.0, -341.0, -341.0, -341.0, -341.0, -343.0, -343.0, -343.0, -343.0, -343.0, -342.0, -332.0, -328.0, -317.0, -311.0, -307.0, -302.0, -286.0, -265.0, -237.0, -204.0, -170.0, -131.0, -54.0, -29.0, 31.0, 113.0, 171.0, 197.0, 269.0, 298.0, 320.0, 337.0, 354.0, 368.0, 383.0, 391.0, 398.0, 402.0, 403.0, 403.0, 403.0, 403.0, 403.0, 404.0, 404.0, 404.0, 404.0]	[0.006889914558996679, 0.012187065654870821, 0.028981686789848027, 0.04653167846117867, 0.06343859824119136, 0.07833028636741801, 0.09655304592342873, 0.11357704301735794, 0.12829635783964477, 0.14746187990203907, 0.1632031465487671, 0.1783364986331435, 0.1968794288004574, 0.21338050331905833, 0.22871729003418295, 0.2465659483204945, 0.2635476200903213, 0.2786662948437879, 0.297356339653561, 0.3133116222634271, 0.3289235235988599, 0.34676228322132374, 0.3669586317737412, 0.3785141284697602, 0.3998693034900498, 0.4133748371859838, 0.4289676238586253, 0.4467036421647208, 0.46608966552230413, 0.47825614877910994, 0.5002762410222203, 0.5136923453992495, 0.5321352649170876, 0.546668211771248, 0.5672676749218226, 0.57849685700603, 0.5989959681737673, 0.6133770217184065, 0.6312465013361361, 0.6467355226923246, 0.6652405648674176, 0.6785191119342926, 0.6993407830486831, 0.713356609989205, 0.7315353375524865, 0.7466980442986824, 0.7650935184919945, 0.7785161082010745, 0.7983059288235381, 0.8134181182449538, 0.8297802701199544, 0.8465288112602138, 0.8639047229626158, 0.8783659898272163, 0.8968167600123707, 0.9136482451394841, 0.9285781625912932, 0.9466565381717373, 0.9635289832931448, 0.9785855353893567, 0.996885094933532, 1.0133278014600364, 1.028697697503958, 1.0466337371090049, 1.0635447528911754, 1.0786234916504327, 1.0969210031944385, 1.1134422163740965, 1.1286294991150498, 1.1465262853944296, 1.1635475518232852, 1.1784911226059194, 1.1968927407997398, 1.2175181452785182, 1.228276970108709, 1.2467690416197001, 1.2636360254073224, 1.278609974851861, 1.2968559450710018, 1.3228935299612203, 1.3289221582654136, 1.3555724363850459, 1.3634391443756613, 1.3782386725160904, 1.3968891226668347, 1.4131649172213656, 1.4287153785680857, 1.453924206265583, 1.4634327273088275, 1.4782636581112456, 1.4968902149321366, 1.513186489484724, 1.5284041508875816, 1.5502354858290346, 1.5636560275379452, 1.578453507680024, 1.5969510405229812, 1.6159086906209268, 1.6286868431052426, 1.6494211329008976, 1.6634717758352053, 1.6785047759367444, 1.6973934767138417, 1.7136764392671466, 1.7286210340498656, 1.7488443479323905, 1.7635459134235134, 1.7784075642211974, 1.7968689157369226, 1.815521755219379, 1.8288061049515818, 1.848880256193297, 1.863545640357188, 1.8783888591569848, 1.896988791982949, 1.9136605331368628, 1.9286546212442772, 1.9484959831916058, 1.9634730046363984, 1.980838676337953, 1.9967260336270556, 2.014158606652927, 2.0286625401768106, 2.0473191343262442, 2.063817819509495]
1	蝴蝶	True	inanimate	animate	right	1.073	[0.0, 0.0, 0.0, 0.0, 0.0, 0.0, 0.0, 0.0, 0.0, 0.0, 1.0, 9.0, 21.0, 34.0, 50.0, 54.0, 63.0, 64.0, 68.0, 71.0, 79.0, 93.0, 109.0, 131.0, 155.0, 179.0, 216.0, 227.0, 262.0, 289.0, 316.0, 343.0, 377.0, 406.0, 432.0, 446.0, 457.0, 465.0, 466.0, 469.0, 469.0, 465.0, 465.0, 397.0, 367.0, 319.0, 284.0, 274.0, 274.0, 292.0, 315.0, 372.0, 503.0, 592.0, 641.0, 813.0, 851.0, 898.0, 919.0, 928.0, 930.0, 930.0, 930.0, 930.0]	[-490.0, -490.0, -490.0, -490.0, -490.0, -490.0, -490.0, -490.0, -490.0, -490.0, -490.0, -487.0, -480.0, -473.0, -465.0, -464.0, -458.0, -458.0, -456.0, -453.0, -448.0, -437.0, -425.0, -410.0, -392.0, -372.0, -337.0, -324.0, -281.0, -242.0, -204.0, -167.0, -123.0, -81.0, -45.0, -21.0, -1.0, 16.0, 19.0, 29.0, 38.0, 49.0, 49.0, 82.0, 90.0, 110.0, 129.0, 152.0, 160.0, 194.0, 211.0, 238.0, 282.0, 307.0, 320.0, 363.0, 372.0, 387.0, 400.0, 406.0, 407.0, 407.0, 407.0, 407.0]	[0.010549314465606585, 0.022324629788272432, 0.03423204109094513, 0.05394369639179786, 0.06941701641881082, 0.08438686986301036, 0.10603047150289058, 0.12512943357614859, 0.13417510669933108, 0.15631603092151636, 0.16897642342701147, 0.18442926345596788, 0.20235233239691297, 0.22078228125246824, 0.2341338736405305, 0.2559136672571185, 0.26914101433249016, 0.2877897578164266, 0.3022998353389994, 0.32167118136749195, 0.33430358454461384, 0.35411286116323026, 0.369184773258894, 0.3871313941945118, 0.40242107691847195, 0.42071927112920093, 0.4343425648039556, 0.4535224228638981, 0.4690462602156913, 0.48492883883773175, 0.5024317265178979, 0.5194127156191826, 0.5343538970701047, 0.552651067280749, 0.5690763658094511, 0.5844285125240276, 0.6023734267946566, 0.6192349492503126, 0.6343266586736718, 0.6526074448865984, 0.6689228341019771, 0.6841852101642871, 0.7125800426510978, 0.7187158496053598, 0.7344335642555961, 0.7525723558264872, 0.7777723088584025, 0.7840480624545307, 0.8099108847072785, 0.8190825098081405, 0.8340230085923395, 0.8524980134388898, 0.8750973482492554, 0.8841662320337491, 0.908464382553575, 0.919203751387613, 0.9341029488459753, 0.9527175590010302, 0.969341854830418, 0.9843560816025274, 1.0061601098805113, 1.019322262302012, 1.034426942389473, 1.0527271846003714]
2	鸽子	True	animate	inanimate	left	1.12	[0.0, 0.0, 0.0, 0.0, 0.0, 0.0, 0.0, 0.0, 0.0, 0.0, 0.0, 0.0, 0.0, 0.0, 0.0, 0.0, 2.0, 2.0, 2.0, 2.0, 2.0, 2.0, 2.0, 2.0, 2.0, 2.0, 2.0, 8.0, 8.0, 8.0, 8.0, 14.0, 28.0, 45.0, 58.0, 85.0, 94.0, 139.0, 186.0, 231.0, 265.0, 297.0, 309.0, 310.0, 301.0, 296.0, 285.0, 273.0, 261.0, 190.0, 106.0, 3.0, -93.0, -188.0, -307.0, -442.0, -572.0, -675.0, -796.0, -796.0, -819.0, -835.0, -842.0, -842.0, -842.0, -842.0, -842.0, -842.0]	[-490.0, -490.0, -490.0, -490.0, -490.0, -490.0, -490.0, -490.0, -490.0, -488.0, -479.0, -459.0, -454.0, -436.0, -429.0, -424.0, -419.0, -415.0, -414.0, -414.0, -414.0, -419.0, -424.0, -424.0, -424.0, -426.0, -426.0, -438.0, -442.0, -448.0, -449.0, -446.0, -436.0, -411.0, -383.0, -322.0, -297.0, -220.0, -154.0, -94.0, -47.0, 2.0, 33.0, 60.0, 82.0, 88.0, 103.0, 113.0, 119.0, 145.0, 168.0, 181.0, 187.0, 191.0, 203.0, 224.0, 246.0, 274.0, 320.0, 320.0, 338.0, 361.0, 372.0, 373.0, 374.0, 374.0, 374.0, 374.0]	[0.011649431611658656, 0.015969345540725044, 0.023440789598680567, 0.034604094360474846, 0.052400528657017276, 0.06641362493246561, 0.08447493385028793, 0.1014200829577021, 0.11612574444734491, 0.1346645786179579, 0.15331741810041422, 0.16626657855704252, 0.18661379641707754, 0.2013143379099347, 0.21616233537497465, 0.23475714820233406, 0.2524801958443277, 0.26642331879702397, 0.285700115508007, 0.3013799421642034, 0.31907261114429275, 0.33462921648970223, 0.3521065041732072, 0.3664015417343762, 0.4000737279875466, 0.40602999363727577, 0.41599282927018066, 0.43477059673205076, 0.451032396624214, 0.46608143938829016, 0.48448135091530276, 0.5010414760890853, 0.5194482142815104, 0.5343371717390255, 0.5525848486249743, 0.5661357796470838, 0.585687690976556, 0.6009835176992055, 0.6171169762783393, 0.634390829331096, 0.651627477056536, 0.6662007012346294, 0.6854860312778328, 0.7010279592905135, 0.7164128739987063, 0.7343594949361432, 0.7512882600476587, 0.7662854201535083, 0.7845689370333275, 0.80087886491674, 0.8163958756013017, 0.8345244271749834, 0.8513740029648034, 0.8660342671300896, 0.884588802629878, 0.9008226131936681, 0.9164618211907509, 0.9436841738788644, 0.9501299114454014, 0.9660199993995775, 0.9845363055719645, 1.0093239280085982, 1.0160116708666465, 1.0412351758950535, 1.051083323549392, 1.0660514703267836, 1.0846019098280522, 1.1073671326103067]
3	观众	True	animate	inanimate	left	1.256	[0.0, 0.0, 0.0, 0.0, 0.0, 0.0, 0.0, 2.0, 3.0, 3.0, 7.0, 9.0, 14.0, 20.0, 22.0, 25.0, 25.0, 25.0, 25.0, 25.0, 25.0, 17.0, 12.0, 9.0, 18.0, 85.0, 110.0, 151.0, 208.0, 241.0, 263.0, 345.0, 399.0, 465.0, 528.0, 578.0, 614.0, 633.0, 645.0, 650.0, 655.0, 655.0, 656.0, 656.0, 656.0, 644.0, 598.0, 494.0, 354.0, 71.0, -40.0, -328.0, -402.0, -559.0, -589.0, -629.0, -633.0, -633.0, -633.0, -633.0, -633.0, -633.0, -633.0, -633.0, -633.0, -633.0, -633.0, -633.0, -640.0, -660.0, -688.0, -734.0, -763.0, -776.0, -776.0, -776.0]	[-490.0, -490.0, -490.0, -490.0, -490.0, -490.0, -490.0, -485.0, -478.0, -468.0, -450.0, -430.0, -408.0, -389.0, -385.0, -385.0, -387.0, -389.0, -389.0, -391.0, -391.0, -397.0, -398.0, -397.0, -381.0, -340.0, -322.0, -284.0, -199.0, -136.0, -104.0, 11.0, 83.0, 161.0, 231.0, 290.0, 335.0, 360.0, 381.0, 394.0, 407.0, 415.0, 416.0, 416.0, 416.0, 416.0, 404.0, 383.0, 366.0, 366.0, 366.0, 389.0, 396.0, 423.0, 431.0, 448.0, 450.0, 450.0, 450.0, 450.0, 450.0, 450.0, 450.0, 450.0, 450.0, 450.0, 450.0, 450.0, 451.0, 442.0, 433.0, 421.0, 421.0, 420.0, 420.0, 420.0]	[0.014735425751496223, 0.021146347324247472, 0.035406227558269165, 0.053306768502807245, 0.0699747549915628, 0.08599659759056522, 0.10327898397372337, 0.1211559729235887, 0.1351840878614894, 0.15683110283498536, 0.17038339918872225, 0.18520682065900473, 0.20342684954812285, 0.2200282760495611, 0.2352790467793966, 0.25363560898040305, 0.2776453328824573, 0.2851003929426952, 0.31095263386487204, 0.32011572563351365, 0.3350695364151761, 0.3533250639666221, 0.37036715172507684, 0.38511274920711003, 0.40360721005163214, 0.4200956552376738, 0.43551811660472595, 0.4534456228793715, 0.4702136200176028, 0.4853275161040074, 0.5035338916641194, 0.5200325768473704, 0.535511016872988, 0.5531753551913425, 0.5703867442534829, 0.5855777816614136, 0.6035428345949185, 0.6199264904662414, 0.6355018691410805, 0.653195220787893, 0.6704793138378591, 0.6850798446794215, 0.707376758207829, 0.7197811507576262, 0.7355753240626655, 0.7533553743614902, 0.773532949584478, 0.7850379289538978, 0.8060196853730304, 0.8198167176851712, 0.8385839038146514, 0.853207645319344, 0.8726066393428482, 0.8851786265295232, 0.906606846872819, 0.9198795912743662, 0.9386071827448177, 0.953139446930436, 0.9716526811043877, 0.9853131801064592, 1.0057771339470492, 1.019846208879244, 1.0386366056736733, 1.0533934671548195, 1.0723330265882396, 1.0853600110312982, 1.1049139703609399, 1.1199561864614225, 1.1382188820116426, 1.1532389114472608, 1.171506385662724, 1.1850853060113877, 1.204835190641461, 1.2200692360420362, 1.2361006359715248, 1.2531249744006345]
4	钉子	False	inanimate	animate	left	1.219	[0.0, 0.0, 0.0, 0.0, 0.0, 0.0, 0.0, 3.0, 4.0, 7.0, 17.0, 24.0, 27.0, 27.0, 27.0, 27.0, 22.0, 14.0, 11.0, -7.0, -10.0, -10.0, -1.0, 14.0, 34.0, 50.0, 77.0, 115.0, 173.0, 286.0, 325.0, 453.0, 520.0, 563.0, 582.0, 589.0, 591.0, 591.0, 591.0, 591.0, 591.0, 591.0, 583.0, 555.0, 544.0, 543.0, 543.0, 558.0, 581.0, 614.0, 646.0, 669.0, 681.0, 682.0, 682.0, 671.0, 630.0, 546.0, 414.0, 223.0, 0.0, -206.0, -378.0, -538.0, -665.0, -741.0, -773.0, -777.0, -777.0, -777.0, -777.0, -777.0, -777.0]	[-490.0, -490.0, -490.0, -490.0, -490.0, -490.0, -490.0, -481.0, -476.0, -466.0, -436.0, -410.0, -406.0, -402.0, -402.0, -402.0, -401.0, -405.0, -407.0, -409.0, -405.0, -401.0, -382.0, -365.0, -333.0, -293.0, -231.0, -147.0, -55.0, 77.0, 117.0, 225.0, 282.0, 319.0, 338.0, 344.0, 345.0, 345.0, 345.0, 345.0, 345.0, 345.0, 343.0, 329.0, 327.0, 327.0, 327.0, 336.0, 346.0, 357.0, 364.0, 372.0, 376.0, 377.0, 377.0, 377.0, 370.0, 357.0, 340.0, 318.0, 298.0, 291.0, 291.0, 291.0, 311.0, 321.0, 332.0, 336.0, 343.0, 343.0, 344.0, 344.0, 344.0]	[0.009978605230571702, 0.014772972412174568, 0.0184085131259053, 0.03704565127918613, 0.053399611153508886, 0.07040176291957323, 0.09672094776033191, 0.10369199723754718, 0.11881579198961845, 0.1370986262027145, 0.1629645204557164, 0.16859413016027247, 0.19270488871188718, 0.20360366018576315, 0.21843800431997806, 0.23706831580784637, 0.2599420825699781, 0.2685412917689973, 0.29390986343969416, 0.3037190990999079, 0.3184899552452407, 0.33708306140579225, 0.3561953354765137, 0.36868403734479216, 0.39024879099815735, 0.4037567140258034, 0.41861119682471326, 0.4370541163443704, 0.45330635890422855, 0.4688127882564004, 0.48955288071738323, 0.5036154703175271, 0.518681579746044, 0.5370275606146606, 0.5562176586736314, 0.568763363198741, 0.5901639355470252, 0.6036387492458744, 0.6187789279956633, 0.6370665408758214, 0.6560951882947847, 0.6687760607965174, 0.6888444093710859, 0.7036876281708828, 0.7215110277957137, 0.7371560384599434, 0.7556187553091149, 0.7688273290550569, 0.7882324670754315, 0.8038918137372093, 0.8215732187200047, 0.837021280081899, 0.8547835810513789, 0.8688891786441673, 0.8883052393302933, 0.9036720633739606, 0.9198318046164786, 0.936816207051379, 0.9541491107593174, 0.9689199669046502, 0.9875591530581005, 1.0037151396336412, 1.0189597663647874, 1.0366783766748995, 1.053334416497819, 1.0685118005749246, 1.08837978651718, 1.1046617250722193, 1.1215584048550227, 1.1366292929487827, 1.154852393839974, 1.1689057674411742, 1.1876261909128516]
5	飞机	False	animate	inanimate	right	0.935	[0.0, 0.0, 0.0, 0.0, 0.0, 0.0, 0.0, -1.0, -2.0, -4.0, -4.0, -4.0, -5.0, -6.0, -6.0, -6.0, -6.0, -6.0, -6.0, -3.0, 1.0, 1.0, 1.0, 0.0, 0.0, 4.0, 14.0, 27.0, 56.0, 92.0, 119.0, 260.0, 300.0, 386.0, 454.0, 515.0, 561.0, 619.0, 631.0, 647.0, 657.0, 659.0, 659.0, 659.0, 659.0, 662.0, 666.0, 681.0, 685.0, 696.0, 700.0, 703.0, 704.0, 704.0, 704.0, 704.0, 704.0]	[-490.0, -490.0, -490.0, -490.0, -488.0, -484.0, -480.0, -474.0, -464.0, -456.0, -445.0, -433.0, -422.0, -407.0, -397.0, -397.0, -396.0, -396.0, -396.0, -409.0, -436.0, -459.0, -462.0, -463.0, -462.0, -449.0, -428.0, -399.0, -331.0, -262.0, -226.0, -55.0, -16.0, 58.0, 121.0, 169.0, 210.0, 252.0, 261.0, 277.0, 287.0, 290.0, 290.0, 290.0, 290.0, 301.0, 311.0, 332.0, 338.0, 352.0, 357.0, 360.0, 361.0, 361.0, 361.0, 361.0, 361.0]	[0.01069816990820982, 0.01488496385900362, 0.01848432324550231, 0.037151498725506826, 0.053581575923089986, 0.069507162537775, 0.08703633287950652, 0.10487202050171618, 0.11887794877839042, 0.13794926285663678, 0.1538605134737736, 0.16930345483888232, 0.1870483478105598, 0.2043966115161311, 0.21890293437354558, 0.23721102724994125, 0.2535789817884506, 0.268984376492881, 0.2870624107417825, 0.30395840785786277, 0.3188487306506431, 0.3373182741652272, 0.35371899669917184, 0.368974887427612, 0.3871065109997289, 0.403979297454498, 0.4188761055793293, 0.43717634778840875, 0.4535255289993074, 0.46881964905514906, 0.4968714416008879, 0.5028062032542948, 0.5186631818814931, 0.5372057707172644, 0.5534136399510317, 0.5690190559544135, 0.594748416895527, 0.6036804260384088, 0.6186007861597318, 0.6371177749988419, 0.6534300922139664, 0.6690693002128683, 0.6867609451928729, 0.7038733476056223, 0.7186288437533221, 0.737180648588037, 0.7615218071005074, 0.7686464565504139, 0.786752138794327, 0.8037669198911317, 0.818641200019556, 0.837204951516469, 0.8595878810301656, 0.8686741728124616, 0.8929484300042532, 0.9037990734850609, 0.9186515082838014]
6	火焰	False	inanimate	animate	left	1.505	[0.0, 0.0, 0.0, 0.0, 0.0, 0.0, 0.0, 0.0, -1.0, -2.0, -4.0, -11.0, -18.0, -28.0, -37.0, -44.0, -46.0, -44.0, -30.0, -16.0, -9.0, -9.0, -9.0, 2.0, 34.0, 64.0, 84.0, 87.0, 97.0, 102.0, 105.0, 120.0, 140.0, 154.0, 245.0, 273.0, 331.0, 391.0, 469.0, 493.0, 553.0, 565.0, 583.0, 587.0, 587.0, 585.0, 566.0, 555.0, 510.0, 412.0, 120.0, 120.0, -134.0, -220.0, -374.0, -486.0, -613.0, -632.0, -651.0, -651.0, -651.0, -651.0, -651.0, -651.0, -651.0, -651.0, -651.0, -651.0, -651.0, -651.0, -651.0, -651.0, -651.0, -653.0, -653.0, -645.0, -634.0, -629.0, -629.0, -631.0, -633.0, -634.0, -641.0, -648.0, -663.0, -677.0, -684.0, -691.0, -699.0, -704.0]	[-490.0, -490.0, -490.0, -490.0, -490.0, -490.0, -490.0, -490.0, -489.0, -487.0, -481.0, -471.0, -459.0, -437.0, -421.0, -405.0, -397.0, -393.0, -395.0, -402.0, -405.0, -405.0, -405.0, -408.0, -419.0, -421.0, -424.0, -421.0, -410.0, -393.0, -361.0, -295.0, -234.0, -201.0, -70.0, -34.0, 33.0, 101.0, 202.0, 235.0, 311.0, 330.0, 359.0, 377.0, 385.0, 387.0, 391.0, 392.0, 399.0, 415.0, 417.0, 417.0, 417.0, 417.0, 417.0, 424.0, 443.0, 448.0, 454.0, 454.0, 454.0, 454.0, 454.0, 454.0, 454.0, 454.0, 454.0, 454.0, 454.0, 454.0, 454.0, 454.0, 454.0, 450.0, 427.0, 389.0, 348.0, 322.0, 309.0, 302.0, 300.0, 300.0, 301.0, 311.0, 326.0, 338.0, 347.0, 354.0, 363.0, 370.0]	[0.009481282648266642, 0.015526294950177544, 0.020022336850161082, 0.03574653683244833, 0.05191720073889883, 0.06717479813596583, 0.08704790407682594, 0.10203004552022321, 0.11996813312543964, 0.13534280783460417, 0.15374954602702928, 0.1670410637580062, 0.186955471026522, 0.2021226151045994, 0.21843698031989334, 0.23520907345846354, 0.252832451782524, 0.2670018786975561, 0.28576462749697384, 0.3020892327094771, 0.31767963004858757, 0.3354508056836494, 0.35231130413922074, 0.36721937626134604, 0.385681751777156, 0.40235281026434677, 0.4174052663620387, 0.43529317797583644, 0.4522683644136123, 0.4674201484940568, 0.4855835160597053, 0.5019791185950453, 0.5174193292932614, 0.5425988023307582, 0.5521141500394151, 0.5670027661653876, 0.5854487576834799, 0.6104954520760657, 0.6171374562745768, 0.6424456119566457, 0.6520742823122418, 0.6670045410974126, 0.6854747672787198, 0.7071791262424085, 0.7171914552000089, 0.7417046456830576, 0.7521361319013522, 0.7670227000289742, 0.7856557421819161, 0.8124425536097988, 0.8213953840822796, 0.8417333859433711, 0.8521232295042864, 0.8672091362623178, 0.8852554265158687, 0.9053589324194036, 0.9172526903894322, 0.9439722591614554, 0.9510149886264117, 0.9672003298637719, 0.9851981507927121, 1.0026286758184142, 1.0173903159648034, 1.0357110381719394, 1.0520134567232162, 1.067173091469158, 1.085516341672701, 1.1034988026021892, 1.1174255415589869, 1.136446338312453, 1.1522999036078545, 1.1697874312903878, 1.1855304046021047, 1.2032049829194875, 1.2175478071385442, 1.2365163799004222, 1.2522624252142123, 1.268213270492197, 1.2856093208556558, 1.3029169659021136, 1.3174307980916637, 1.3359542722646438, 1.3521321041698684, 1.36771430951012, 1.3853554371653445, 1.4024398502497206, 1.417544189005639, 1.4351576686658518, 1.4553939532124787, 1.470464499974696]
7	河流	False	inanimate	animate	left	1.048	[0.0, 0.0, 0.0, 0.0, 0.0, 0.0, 0.0, 0.0, 5.0, 11.0, 18.0, 23.0, 28.0, 30.0, 31.0, 31.0, 28.0, 28.0, 28.0, 28.0, 28.0, 22.0, 13.0, 10.0, 9.0, 11.0, 27.0, 36.0, 62.0, 80.0, 109.0, 152.0, 199.0, 267.0, 337.0, 432.0, 466.0, 509.0, 545.0, 552.0, 563.0, 564.0, 564.0, 553.0, 542.0, 511.0, 430.0, 252.0, 178.0, -77.0, -249.0, -331.0, -549.0, -648.0, -691.0, -711.0, -711.0, -711.0, -711.0, -711.0, -711.0, -711.0, -711.0, -711.0]	[-490.0, -490.0, -490.0, -490.0, -490.0, -490.0, -490.0, -484.0, -474.0, -458.0, -443.0, -416.0, -393.0, -370.0, -348.0, -346.0, -344.0, -344.0, -344.0, -344.0, -344.0, -351.0, -362.0, -365.0, -367.0, -361.0, -351.0, -347.0, -331.0, -317.0, -292.0, -254.0, -200.0, -131.0, -60.0, 23.0, 51.0, 91.0, 135.0, 147.0, 179.0, 198.0, 203.0, 224.0, 231.0, 245.0, 266.0, 294.0, 304.0, 315.0, 330.0, 344.0, 373.0, 394.0, 406.0, 414.0, 414.0, 414.0, 414.0, 414.0, 414.0, 414.0, 414.0, 414.0]	[0.007927533577458235, 0.02435351477470249, 0.029497407229428063, 0.04562574580995715, 0.06253061759161938, 0.07719122309026716, 0.0958904838989838, 0.11358520087924262, 0.1276471078126633, 0.1460780806664843, 0.16242896854237188, 0.17859109911842097, 0.19570145353100088, 0.21301148790917068, 0.2276150907509873, 0.24591260229499312, 0.2623566741549439, 0.2776897062049102, 0.29546702583684237, 0.3123531242890749, 0.32747316437598784, 0.3454388999762159, 0.36224853977364546, 0.377351171862756, 0.39547153143757896, 0.41303073910603416, 0.4273012006706267, 0.4464428294049867, 0.46218409605171473, 0.4778796240389056, 0.49556853835383663, 0.5124280128093233, 0.5274528209120035, 0.5457711537856085, 0.5621756309865305, 0.5775557670276612, 0.595794569248028, 0.6125929450481635, 0.6272501372131956, 0.6458207153773401, 0.6721392175513756, 0.6774592379770183, 0.7044481187040219, 0.7123574933557393, 0.7274188241171942, 0.7456944903315161, 0.7700967475011566, 0.777329258266036, 0.8021714940259699, 0.8123855509493296, 0.827278263075641, 0.8457815985839261, 0.8665315897087567, 0.8774173905185307, 0.9024927569043939, 0.9146360294998885, 0.9272684326770104, 0.9457820081843238, 0.9717721477481973, 0.977325640133131, 1.0069912564049446, 1.013056748703093, 1.027166783627763, 1.0453410738591629]
8	苹果	False	inanimate	animate	left	1.031	[0.0, 0.0, 0.0, 0.0, 0.0, 0.0, 0.0, 0.0, 0.0, 0.0, 0.0, 0.0, 0.0, 0.0, 0.0, 1.0, 8.0, 14.0, 19.0, 32.0, 37.0, 48.0, 69.0, 91.0, 116.0, 151.0, 190.0, 237.0, 287.0, 367.0, 394.0, 478.0, 491.0, 502.0, 535.0, 561.0, 570.0, 582.0, 582.0, 582.0, 582.0, 582.0, 578.0, 477.0, 339.0, 159.0, -53.0, -262.0, -445.0, -612.0, -729.0, -805.0, -833.0, -840.0, -840.0, -842.0, -844.0, -847.0, -850.0, -851.0, -851.0, -851.0, -851.0]	[-490.0, -490.0, -490.0, -490.0, -490.0, -490.0, -490.0, -490.0, -490.0, -490.0, -490.0, -490.0, -490.0, -490.0, -482.0, -462.0, -442.0, -420.0, -397.0, -359.0, -341.0, -301.0, -244.0, -195.0, -148.0, -99.0, -53.0, -8.0, 34.0, 92.0, 107.0, 154.0, 161.0, 166.0, 184.0, 199.0, 204.0, 211.0, 211.0, 211.0, 211.0, 211.0, 212.0, 227.0, 248.0, 270.0, 283.0, 295.0, 314.0, 338.0, 356.0, 369.0, 379.0, 382.0, 382.0, 384.0, 388.0, 392.0, 397.0, 398.0, 398.0, 398.0, 398.0]	[0.012606871447133017, 0.016743830741688726, 0.023579029575557797, 0.04299338359487592, 0.05884285288993851, 0.07512240211144672, 0.09220647386246128, 0.10955200690113998, 0.1241156737505662, 0.14236505730150384, 0.15865279852187086, 0.17408140388943139, 0.19219493679702282, 0.20899092326362734, 0.2237453954130615, 0.2423446455723024, 0.2586484294570255, 0.27411936014868843, 0.29220763439479924, 0.3073850184719049, 0.3240413996300049, 0.3423293538417056, 0.35894375100542675, 0.37413615374680376, 0.39199846536394034, 0.40912964110793837, 0.42381994259994826, 0.44222121946040716, 0.4665606713060697, 0.4737689474095532, 0.5003103402123088, 0.5087750641014281, 0.5237268268829212, 0.5422267490594095, 0.5646154812384339, 0.5738147543343075, 0.5979521368808491, 0.6090058736626816, 0.6237654658089014, 0.6422855266482657, 0.6630321044412995, 0.6738677292596549, 0.6920485048231058, 0.7088987632796488, 0.7238252673996612, 0.7421903629310691, 0.7608063384213892, 0.7741125334832759, 0.7942904500396253, 0.8091009008458059, 0.8239594796432357, 0.842445748488899, 0.8604265027533984, 0.8741498070776288, 0.8934849717770703, 0.908981843798756, 0.9265386621354992, 0.9421997154640849, 0.9599306137715757, 0.9741355393471167, 0.9931839840955945, 1.0088914587486215, 1.0265127890743315]
9	石头	False	inanimate	animate	left	0.78	[0.0, 0.0, 0.0, 0.0, 0.0, 0.0, 0.0, 0.0, 0.0, 0.0, 0.0, 0.0, 0.0, 0.0, 0.0, 0.0, 0.0, 0.0, 0.0, 0.0, 0.0, 0.0, 0.0, -13.0, -24.0, -89.0, -120.0, -185.0, -261.0, -337.0, -412.0, -535.0, -535.0, -581.0, -644.0, -692.0, -706.0, -726.0, -729.0, -736.0, -742.0, -748.0, -750.0, -751.0, -751.0, -751.0, -751.0, -751.0]	[-490.0, -490.0, -490.0, -490.0, -490.0, -490.0, -490.0, -490.0, -490.0, -490.0, -490.0, -490.0, -490.0, -490.0, -490.0, -490.0, -490.0, -490.0, -490.0, -490.0, -490.0, -487.0, -461.0, -407.0, -379.0, -269.0, -231.0, -151.0, -76.0, -8.0, 55.0, 158.0, 158.0, 198.0, 253.0, 302.0, 319.0, 345.0, 350.0, 362.0, 373.0, 389.0, 393.0, 396.0, 396.0, 396.0, 396.0, 396.0]	[0.012007831550363335, 0.01693975604212028, 0.022187413813298917, 0.04269403431317187, 0.05752257578205899, 0.07546339405416802, 0.0907285007815517, 0.10807574048703827, 0.12249741269260994, 0.14197559603599075, 0.1574209267328115, 0.17358476397384948, 0.19082175303265103, 0.20787715278856922, 0.222713203589592, 0.2410383631286095, 0.2575483123109734, 0.27282673103763955, 0.2908378639622242, 0.30773420241348504, 0.3224064132427884, 0.34101487939915387, 0.35752960724676086, 0.3724926340273669, 0.40087278918326774, 0.4067850228420866, 0.4229024387568643, 0.4408944570204767, 0.45748496085434454, 0.472931315553069, 0.5007260841412062, 0.506408259172531, 0.5225666350816027, 0.5408894052870892, 0.5663463822766062, 0.5724647812312469, 0.5983815341423906, 0.6074801139220654, 0.6225062873581919, 0.6408959588861762, 0.6641311975872668, 0.6725034201590461, 0.690450723763206, 0.7076259314981144, 0.7229323395513347, 0.7428815628136363, 0.7572093683684216, 0.772727403053068]
10	家庭	True	animate	inanimate	left	1.233	[0.0, 0.0, 0.0, 0.0, 0.0, 0.0, 0.0, 0.0, -5.0, -8.0, -11.0, -17.0, -25.0, -33.0, -47.0, -57.0, -66.0, -75.0, -84.0, -94.0, -119.0, -129.0, -168.0, -181.0, -221.0, -249.0, -280.0, -310.0, -342.0, -372.0, -401.0, -423.0, -440.0, -460.0, -482.0, -501.0, -509.0, -533.0, -548.0, -566.0, -585.0, -606.0, -625.0, -640.0, -655.0, -664.0, -676.0, -691.0, -697.0, -702.0, -703.0, -703.0, -702.0, -678.0, -666.0, -632.0, -559.0, -465.0, -351.0, -327.0, -325.0, -325.0, -336.0, -364.0, -420.0, -507.0, -610.0, -756.0, -794.0, -856.0, -895.0, -898.0, -898.0, -898.0]	[-490.0, -490.0, -490.0, -490.0, -490.0, -490.0, -490.0, -489.0, -475.0, -473.0, -461.0, -440.0, -419.0, -395.0, -364.0, -339.0, -319.0, -299.0, -276.0, -251.0, -200.0, -184.0, -129.0, -112.0, -65.0, -37.0, -8.0, 21.0, 48.0, 73.0, 97.0, 116.0, 132.0, 146.0, 166.0, 180.0, 186.0, 207.0, 218.0, 233.0, 246.0, 262.0, 273.0, 280.0, 288.0, 294.0, 302.0, 313.0, 317.0, 321.0, 321.0, 321.0, 324.0, 332.0, 334.0, 340.0, 347.0, 347.0, 347.0, 347.0, 348.0, 348.0, 348.0, 348.0, 348.0, 359.0, 374.0, 397.0, 410.0, 427.0, 440.0, 441.0, 441.0, 441.0]	[0.00862726679406478, 0.019999126187030924, 0.026501183743675938, 0.04959237980256148, 0.06170220173589769, 0.07683452982018935, 0.09519314001954626, 0.11394735548674362, 0.12689788127499924, 0.14556266742329171, 0.16170295266965695, 0.17941644297934545, 0.19521914961478615, 0.2132248212092236, 0.22704199218424037, 0.24614641559128358, 0.26182214624896005, 0.27697836766128603, 0.2947628552938113, 0.3138464573694364, 0.326652940517306, 0.3473442223203165, 0.3614655212422804, 0.3797248034607037, 0.39489945687091677, 0.4134092777112528, 0.42684347275098844, 0.44642917607598065, 0.46152839483147545, 0.47961701041094784, 0.4946442078471591, 0.5124836501363461, 0.5266240637229203, 0.5451973725521384, 0.5612772418080567, 0.5770485457833274, 0.5947446280970325, 0.6117665771907923, 0.6266108199906739, 0.6451131315006933, 0.661336702065455, 0.6769468967340799, 0.6946818910400907, 0.7117854187890771, 0.7268300242212717, 0.745010458451361, 0.7718542725360749, 0.778062442142982, 0.8025817766265391, 0.8116841110731912, 0.8265669245320169, 0.8451320413641952, 0.8682689760826179, 0.8765353853377746, 0.8946233182505239, 0.9117244566659792, 0.9265045288102556, 0.9450075229851791, 0.9671719992020371, 0.9767091922421969, 0.9948019038201892, 1.0116675222743652, 1.0267025703760737, 1.0450659592424927, 1.0619298710298608, 1.0769164498051396, 1.0974408196361765, 1.1116675905414013, 1.1265674706646678, 1.1450383795126982, 1.1655405626806896, 1.1767700860982586, 1.196188194782735, 1.2117454827948677]
11	农民	True	animate	inanimate	left	0.899	[0.0, 0.0, 0.0, 0.0, 0.0, 0.0, 0.0, 0.0, 0.0, 0.0, -3.0, -5.0, -9.0, -20.0, -32.0, -37.0, -60.0, -79.0, -97.0, -133.0, -148.0, -179.0, -206.0, -235.0, -235.0, -266.0, -266.0, -284.0, -312.0, -350.0, -367.0, -418.0, -432.0, -473.0, -507.0, -530.0, -548.0, -564.0, -570.0, -572.0, -582.0, -592.0, -604.0, -619.0, -631.0, -640.0, -653.0, -670.0, -678.0, -696.0, -701.0, -701.0, -701.0, -701.0, -701.0]	[-490.0, -490.0, -490.0, -490.0, -490.0, -490.0, -490.0, -490.0, -490.0, -490.0, -480.0, -468.0, -446.0, -401.0, -363.0, -339.0, -265.0, -214.0, -166.0, -84.0, -57.0, -2.0, 48.0, 97.0, 97.0, 137.0, 137.0, 156.0, 180.0, 212.0, 225.0, 264.0, 275.0, 304.0, 329.0, 345.0, 358.0, 369.0, 372.0, 373.0, 381.0, 389.0, 397.0, 405.0, 411.0, 417.0, 425.0, 432.0, 436.0, 441.0, 441.0, 441.0, 441.0, 441.0, 441.0]	[0.011915671566384844, 0.016505921450516325, 0.021948821853584377, 0.040886333288653987, 0.05727237849168887, 0.07329626909086073, 0.09050322082111961, 0.10736508461013727, 0.12214106075407472, 0.14084578289657657, 0.15703214813402155, 0.1726614574654377, 0.19050397175487888, 0.20742488619907817, 0.2221230383584043, 0.24074208584715961, 0.2571946910393308, 0.2724679897655733, 0.2905149626858474, 0.30574525341944536, 0.3223313199214317, 0.34059026080649346, 0.36787064014970383, 0.3736046978374361, 0.4005307732422807, 0.4060859722940222, 0.4221337562230474, 0.4405954490721342, 0.4643556583505415, 0.4720875396978954, 0.49801350860616367, 0.5071858163737488, 0.5221280218229367, 0.5405811813416221, 0.5568067999047344, 0.5724487385687098, 0.5964018011472945, 0.6073889779381716, 0.6221383300890011, 0.6406802362580493, 0.6613192940676527, 0.6723720068494003, 0.6915969209003379, 0.707390411538654, 0.7223776729806559, 0.7406526565282547, 0.7590829467171716, 0.7724925657621498, 0.7919652877717454, 0.8073331358154974, 0.8251159167793958, 0.8406943674544891, 0.858569308404185, 0.8725820633462718, 0.8915257187800307]
12	奶牛	True	animate	inanimate	left	0.834	[0.0, 0.0, 0.0, 0.0, 0.0, 0.0, 0.0, 0.0, -1.0, -7.0, -12.0, -25.0, -31.0, -46.0, -50.0, -66.0, -76.0, -90.0, -102.0, -117.0, -137.0, -161.0, -183.0, -227.0, -241.0, -284.0, -319.0, -332.0, -364.0, -406.0, -445.0, -486.0, -513.0, -543.0, -583.0, -605.0, -618.0, -644.0, -659.0, -675.0, -692.0, -712.0, -730.0, -745.0, -759.0, -762.0, -767.0, -767.0, -767.0, -767.0]	[-490.0, -490.0, -490.0, -490.0, -490.0, -490.0, -490.0, -490.0, -485.0, -465.0, -445.0, -412.0, -401.0, -364.0, -355.0, -320.0, -296.0, -264.0, -234.0, -198.0, -161.0, -119.0, -84.0, -25.0, -3.0, 49.0, 90.0, 103.0, 129.0, 162.0, 190.0, 218.0, 235.0, 255.0, 279.0, 291.0, 298.0, 310.0, 319.0, 328.0, 339.0, 351.0, 361.0, 370.0, 381.0, 385.0, 389.0, 389.0, 389.0, 389.0]	[0.006001389909215504, 0.010580375794233987, 0.027124458303660504, 0.04543323384496034, 0.062160270990716526, 0.07669116984470747, 0.09920619533477293, 0.11162424121539516, 0.12745561984775122, 0.1453691314563912, 0.16833096220398147, 0.17649053414606897, 0.19822527176984295, 0.21147719484179106, 0.22727205081173452, 0.2453507677273592, 0.26223857284458063, 0.27698519432669855, 0.29561687114801316, 0.3121490069934225, 0.32712636976975773, 0.3448739934083278, 0.36357188888359815, 0.3769255292718299, 0.39896064017739263, 0.4122173419145838, 0.42681514208925364, 0.4453556829248555, 0.4650502715649054, 0.47694573620174197, 0.49854052718183084, 0.5121532395260147, 0.5272889809421031, 0.5453199111980211, 0.564460857265658, 0.5769615057979536, 0.5972189530075411, 0.6121567211248475, 0.6271955238917144, 0.6447874995556049, 0.6620917312702659, 0.6769902460600861, 0.6990277462991799, 0.7121503040598327, 0.7296456824060442, 0.7453333597295568, 0.7630215913777647, 0.7769988476593426, 0.7961769990524772, 0.8186107872243156]
13	乌鸦	True	inanimate	animate	left	0.858	[0.0, 0.0, 0.0, 0.0, 0.0, 0.0, 0.0, 0.0, 0.0, 0.0, 0.0, 0.0, 0.0, -1.0, -4.0, -5.0, -10.0, -16.0, -20.0, -29.0, -34.0, -45.0, -63.0, -111.0, -111.0, -164.0, -179.0, -192.0, -255.0, -321.0, -342.0, -382.0, -416.0, -453.0, -493.0, -551.0, -570.0, -611.0, -643.0, -655.0, -705.0, -741.0, -768.0, -792.0, -807.0, -820.0, -826.0, -826.0, -826.0, -826.0, -826.0, -826.0]	[-490.0, -490.0, -490.0, -490.0, -490.0, -490.0, -490.0, -490.0, -490.0, -490.0, -490.0, -490.0, -490.0, -489.0, -478.0, -474.0, -458.0, -442.0, -433.0, -408.0, -398.0, -376.0, -345.0, -276.0, -276.0, -209.0, -189.0, -174.0, -105.0, -45.0, -28.0, 6.0, 35.0, 65.0, 95.0, 137.0, 151.0, 186.0, 210.0, 221.0, 264.0, 296.0, 326.0, 356.0, 379.0, 399.0, 412.0, 414.0, 414.0, 414.0, 414.0, 414.0]	[0.007145197714635287, 0.011541228963324102, 0.01635846547469555, 0.032062526794106816, 0.04782973477085761, 0.06375668671898893, 0.08120291307386651, 0.09824192883388605, 0.11312064629419183, 0.13153455248539103, 0.147806251041402, 0.1632918590639747, 0.18118420801147295, 0.19818704244244145, 0.21315621322173683, 0.23149673275838722, 0.2481841752432956, 0.2629393300576339, 0.29139218920317944, 0.29823694536753464, 0.3131627668208239, 0.3315227423536271, 0.3573480179456965, 0.3629766036519868, 0.39082086556663853, 0.3979209390217875, 0.4129604244553775, 0.43143884263372456, 0.4521618684302666, 0.4629005545975815, 0.4810410528352804, 0.49824186056684994, 0.5128942740666389, 0.5313877109092573, 0.5542495310073718, 0.5630050708477938, 0.586814432117535, 0.5980210862035165, 0.612923355660314, 0.6314632138310117, 0.6518763090134598, 0.6631205097601196, 0.6829987357014033, 0.6982686210958491, 0.7129538025892543, 0.7314404127682792, 0.748048665933311, 0.7633141139940562, 0.7837681691707985, 0.7981028013909963, 0.8130525161723199, 0.8314473076989088]
14	婴儿	True	inanimate	animate	right	0.955	[0.0, 0.0, 0.0, 0.0, 0.0, 0.0, 0.0, 0.0, 0.0, 0.0, 2.0, 8.0, 11.0, 13.0, 17.0, 20.0, 23.0, 30.0, 33.0, 41.0, 45.0, 50.0, 58.0, 63.0, 69.0, 76.0, 86.0, 94.0, 103.0, 116.0, 125.0, 142.0, 157.0, 164.0, 191.0, 213.0, 242.0, 274.0, 304.0, 329.0, 351.0, 391.0, 391.0, 442.0, 464.0, 486.0, 562.0, 610.0, 654.0, 713.0, 724.0, 744.0, 755.0, 762.0, 762.0, 763.0, 763.0, 763.0]	[-490.0, -490.0, -490.0, -490.0, -490.0, -490.0, -490.0, -490.0, -490.0, -490.0, -488.0, -473.0, -469.0, -464.0, -453.0, -449.0, -438.0, -421.0, -414.0, -382.0, -358.0, -342.0, -301.0, -273.0, -246.0, -220.0, -192.0, -162.0, -137.0, -102.0, -89.0, -59.0, -39.0, -30.0, 2.0, 24.0, 50.0, 74.0, 95.0, 115.0, 131.0, 160.0, 160.0, 197.0, 211.0, 225.0, 267.0, 293.0, 314.0, 343.0, 349.0, 364.0, 374.0, 381.0, 382.0, 382.0, 382.0, 382.0]	[0.004300526197766885, 0.013615511274110759, 0.02341826160045457, 0.04818813470592431, 0.058561594269122, 0.07338672240621236, 0.0914661219867412, 0.10822763379292155, 0.12338385520706652, 0.14215138266990834, 0.15928460641225684, 0.1792686456683441, 0.19193381684090127, 0.20944967518516933, 0.22363616876282322, 0.2414786830522644, 0.2582207388604729, 0.2737309228814411, 0.29162873315908655, 0.3086069915952976, 0.3234130050677777, 0.3419470605713286, 0.3581658524708473, 0.3737122178172285, 0.39159091343208274, 0.40853572120795434, 0.42353595331405813, 0.44198911283092457, 0.45833385670812277, 0.47376007274215226, 0.49163364835840184, 0.5085798214659007, 0.523586880239236, 0.5418884877817618, 0.5582608796539716, 0.5736836823562044, 0.591483188651182, 0.6085454150725127, 0.6236053805023403, 0.6418428173892607, 0.6682722528785234, 0.6736062679683528, 0.7012064765913237, 0.7084198726934119, 0.7233712941415433, 0.7417933923316014, 0.7581439388741273, 0.7736257922315417, 0.7981246467170422, 0.8084687516184204, 0.8233058264195279, 0.841813940594875, 0.8595987695589429, 0.8734654338586552, 0.8953237341283966, 0.9084838385497278, 0.9233215960175585, 0.9419164088430989]
15	鸽子	True	inanimate	animate	right	1.069	[0.0, 0.0, 0.0, 0.0, 0.0, 0.0, 0.0, 0.0, 0.0, 0.0, -3.0, -6.0, -9.0, -11.0, -13.0, -16.0, -21.0, -29.0, -36.0, -46.0, -51.0, -62.0, -70.0, -82.0, -92.0, -103.0, -124.0, -140.0, -140.0, -140.0, -140.0, -140.0, -140.0, -140.0, -140.0, -139.0, -129.0, -124.0, -113.0, -110.0, -103.0, -91.0, -73.0, -44.0, 63.0, 63.0, 252.0, 299.0, 388.0, 463.0, 551.0, 570.0, 619.0, 633.0, 650.0, 664.0, 676.0, 677.0, 680.0, 681.0, 682.0, 684.0, 687.0, 687.0, 687.0]	[-490.0, -490.0, -490.0, -490.0, -490.0, -490.0, -490.0, -490.0, -490.0, -490.0, -487.0, -474.0, -459.0, -440.0, -430.0, -410.0, -393.0, -370.0, -348.0, -315.0, -305.0, -282.0, -268.0, -253.0, -243.0, -242.0, -245.0, -252.0, -252.0, -252.0, -252.0, -252.0, -252.0, -252.0, -252.0, -254.0, -263.0, -269.0, -271.0, -271.0, -271.0, -265.0, -251.0, -231.0, -142.0, -142.0, 5.0, 39.0, 101.0, 158.0, 239.0, 259.0, 319.0, 334.0, 354.0, 372.0, 388.0, 392.0, 398.0, 400.0, 402.0, 408.0, 414.0, 415.0, 415.0]	[0.016115777514642105, 0.020258539474525605, 0.028162794125819346, 0.046707089628398535, 0.06527220645875786, 0.07853129752948007, 0.09826001949659258, 0.11352000622537162, 0.1311543072151835, 0.14678190988161077, 0.16405712826599483, 0.17858597911981633, 0.20502667860819201, 0.21351290649363364, 0.2287486585591978, 0.24654714085590967, 0.263011692712098, 0.27826587677554926, 0.2983803053430165, 0.31315491615350766, 0.3311773130790243, 0.346487475799222, 0.3646627900307067, 0.37820006772017223, 0.39780590970622143, 0.4130921790983848, 0.4292259790108801, 0.4464861787328118, 0.4634408851725311, 0.47815610399447905, 0.49678948748078255, 0.5133018259948585, 0.5285027620684559, 0.5465596336525778, 0.5634303721071774, 0.5781561722596962, 0.5967759024169936, 0.6130708116343158, 0.6283690276904963, 0.6464211206093751, 0.6634253203737899, 0.6781944698541338, 0.6967599280196737, 0.7226084142748732, 0.7281707813253888, 0.756730136450642, 0.7623119594973105, 0.7781645007926272, 0.7966739802996017, 0.821520653393236, 0.82821590558342, 0.8528407120484189, 0.8632749289336061, 0.8781515983955615, 0.8965835952494672, 0.9128395924744837, 0.9284603684754984, 0.9470824879645079, 0.9645751356456458, 0.97816258932653, 0.9966887941645837, 1.0130509460377652, 1.0285433807275695, 1.0466719323012512, 1.063386340114448]
16	电话	False	animate	inanimate	right	1.152	[0.0, 0.0, 0.0, 0.0, 0.0, 0.0, 0.0, 0.0, 0.0, 0.0, 0.0, 0.0, 0.0, 0.0, 0.0, 0.0, 0.0, 0.0, 0.0, 0.0, 0.0, 0.0, 0.0, 2.0, 13.0, 26.0, 48.0, 80.0, 133.0, 171.0, 200.0, 230.0, 251.0, 268.0, 281.0, 288.0, 291.0, 292.0, 293.0, 293.0, 293.0, 291.0, 281.0, 262.0, 226.0, 179.0, 62.0, 13.0, -90.0, -184.0, -279.0, -298.0, -316.0, -316.0, -309.0, -237.0, -143.0, -35.0, 173.0, 249.0, 412.0, 542.0, 649.0, 670.0, 684.0, 684.0, 684.0, 684.0, 684.0, 684.0]	[-490.0, -490.0, -490.0, -490.0, -490.0, -490.0, -490.0, -489.0, -488.0, -487.0, -486.0, -486.0, -486.0, -486.0, -486.0, -486.0, -486.0, -486.0, -486.0, -486.0, -486.0, -484.0, -473.0, -467.0, -444.0, -415.0, -368.0, -310.0, -227.0, -172.0, -131.0, -87.0, -48.0, -16.0, 7.0, 28.0, 44.0, 58.0, 70.0, 81.0, 97.0, 106.0, 118.0, 129.0, 144.0, 161.0, 198.0, 213.0, 243.0, 266.0, 295.0, 299.0, 308.0, 316.0, 322.0, 350.0, 375.0, 387.0, 408.0, 410.0, 419.0, 437.0, 451.0, 456.0, 457.0, 457.0, 457.0, 457.0, 457.0, 457.0]	[0.011509484969792538, 0.01629292948564398, 0.02383673619806359, 0.03903357627132209, 0.055704976093693404, 0.0708919175012852, 0.08916485304871458, 0.10567582623116323, 0.12082590364479984, 0.13880768190938397, 0.15581392967396823, 0.17089164443495974, 0.18880140137844137, 0.20541409187535464, 0.22042831864746404, 0.23865380887036736, 0.2589286640759383, 0.2706616540745017, 0.28975754414750554, 0.3053312161573558, 0.3209755441530433, 0.33893479442122043, 0.35555123958511103, 0.3706767410039902, 0.38900633787670813, 0.4053285537574993, 0.4208298631110665, 0.4386269800743321, 0.45566838516606367, 0.47065632927478873, 0.4890760381313157, 0.5055136246592156, 0.5208056967148877, 0.5386338750067807, 0.5556769867635012, 0.5705475122267671, 0.589022858406679, 0.6054430369367765, 0.6208214663129183, 0.6386455486044724, 0.6556582817011076, 0.6704748765059776, 0.6889662653502455, 0.7053055478936585, 0.7207911559180502, 0.7431945654279843, 0.7554958753280516, 0.7703892701192672, 0.7888676882994332, 0.8052820641642029, 0.8206058802170446, 0.8432055563589529, 0.8555683062495518, 0.870408111717552, 0.8889186152246111, 0.9093074757456634, 0.9206100444826006, 0.9443142751042615, 0.9555806625139667, 0.9704300253124529, 0.9890538514682703, 1.0090699760512507, 1.0206162567483261, 1.0424632930189546, 1.0556169121082348, 1.0706062215504062, 1.0890569917337416, 1.1076753565557738, 1.1206822023359564, 1.14098299887155]
17	船长	True	animate	inanimate	left	1.03	[0.0, 0.0, 0.0, 0.0, 0.0, 0.0, 0.0, 0.0, 0.0, 0.0, 0.0, 0.0, 0.0, -1.0, -8.0, -13.0, -17.0, -27.0, -30.0, -34.0, -38.0, -39.0, -42.0, -42.0, -42.0, -42.0, -42.0, -42.0, -42.0, -38.0, -31.0, -31.0, -21.0, -11.0, 13.0, 36.0, 75.0, 127.0, 181.0, 222.0, 235.0, 234.0, 217.0, 150.0, 58.0, 7.0, -177.0, -296.0, -403.0, -497.0, -567.0, -628.0, -672.0, -700.0, -706.0, -711.0, -712.0, -712.0, -712.0, -712.0, -712.0, -712.0, -712.0]	[-490.0, -490.0, -490.0, -490.0, -490.0, -490.0, -490.0, -490.0, -490.0, -490.0, -482.0, -473.0, -457.0, -439.0, -420.0, -402.0, -385.0, -361.0, -354.0, -340.0, -330.0, -324.0, -318.0, -318.0, -318.0, -318.0, -318.0, -318.0, -319.0, -335.0, -343.0, -343.0, -342.0, -340.0, -330.0, -314.0, -285.0, -248.0, -199.0, -149.0, -108.0, -84.0, -64.0, -39.0, -12.0, 2.0, 53.0, 88.0, 133.0, 189.0, 230.0, 283.0, 321.0, 354.0, 362.0, 371.0, 372.0, 372.0, 372.0, 372.0, 372.0, 372.0, 372.0]	[0.014610497772082454, 0.020019947514811065, 0.027773332858487265, 0.046146620388753945, 0.06303032950745546, 0.07795239629376738, 0.09629462249722565, 0.1127772650179395, 0.12816149705940916, 0.1460978779978177, 0.1629225364595186, 0.1776916859398625, 0.19612948545909603, 0.21278484261711128, 0.22822402931524266, 0.24604640493998886, 0.263000428712985, 0.2776879995399213, 0.29607255106930097, 0.3127494122218195, 0.3281715322573291, 0.3461038171972177, 0.362934619657608, 0.37765325181317166, 0.3961207473275863, 0.41274094715663523, 0.4281927631873259, 0.446019234810592, 0.46290123726248567, 0.4777055440699769, 0.4960880475991871, 0.5127635434200783, 0.5281535781268758, 0.5461001990643126, 0.5628832148668153, 0.5777486203296576, 0.596249225172869, 0.6127281130266056, 0.6282324943804269, 0.6459548593556974, 0.6628604138040828, 0.6776879312728852, 0.6960711174688186, 0.7125336213266564, 0.7281588346595527, 0.7459897436165193, 0.7628823274008028, 0.7776934608718875, 0.7959261190935649, 0.812679780234248, 0.8281824549212615, 0.8458345052422374, 0.862869425001918, 0.8776733904760476, 0.8961251846594678, 0.9127030591644143, 0.9281948111856764, 0.9496687701885094, 0.9628831465997791, 0.9780915920036932, 0.9961064795970742, 1.0124495168074645, 1.0282348154469219]
18	西瓜	False	animate	inanimate	right	0.85	[0.0, 0.0, 0.0, 0.0, 0.0, 0.0, 0.0, -2.0, -2.0, -4.0, -4.0, -4.0, -5.0, -6.0, -6.0, -6.0, -6.0, -6.0, -6.0, -3.0, 5.0, 6.0, 10.0, 10.0, 10.0, 23.0, 32.0, 39.0, 67.0, 110.0, 176.0, 262.0, 354.0, 432.0, 497.0, 545.0, 587.0, 614.0, 629.0, 630.0, 632.0, 634.0, 635.0, 640.0, 642.0, 645.0, 653.0, 662.0, 668.0, 668.0, 668.0, 668.0]	[-490.0, -490.0, -490.0, -490.0, -490.0, -490.0, -490.0, -483.0, -477.0, -467.0, -449.0, -428.0, -409.0, -388.0, -388.0, -388.0, -388.0, -388.0, -388.0, -408.0, -448.0, -470.0, -488.0, -489.0, -490.0, -478.0, -462.0, -452.0, -417.0, -371.0, -305.0, -233.0, -154.0, -83.0, -22.0, 35.0, 85.0, 126.0, 164.0, 176.0, 207.0, 230.0, 253.0, 274.0, 293.0, 312.0, 330.0, 348.0, 357.0, 357.0, 358.0, 358.0]	[0.012865943404904101, 0.017091990683184122, 0.02405382416145585, 0.04245407702183002, 0.059301946146661066, 0.07401989563368261, 0.0923320845085982, 0.10908779364945076, 0.12460412166728929, 0.14242717995875864, 0.15926378508629568, 0.17407150522558368, 0.19235672877221077, 0.20922405389319465, 0.2244935979542788, 0.2424521655557328, 0.25928433334956935, 0.27401696016750066, 0.2922700983854156, 0.30921319949447934, 0.3245510102096887, 0.3423959138308419, 0.35928474294996704, 0.3740941697542439, 0.39927773879026063, 0.40930986507737543, 0.4240312278998317, 0.44238710743229603, 0.4592202992262173, 0.4747004459186428, 0.4925211148765811, 0.5097789252649818, 0.5245204267484951, 0.5430326369223621, 0.5591316208410717, 0.5751875967689557, 0.5923870391670789, 0.6100083694927889, 0.62440239370153, 0.6431450038362527, 0.6594050970616081, 0.675527974310171, 0.6925758647339535, 0.7097046511444205, 0.7244772139565612, 0.7428989708114386, 0.7591030853800476, 0.7742507734619721, 0.7921304930769111, 0.8125118442658277, 0.8240632449596887, 0.8442445748496539]
19	奶牛	True	inanimate	animate	right	0.956	[0.0, 1.0, 1.0, 1.0, 1.0, 1.0, 1.0, 1.0, 2.0, 8.0, 12.0, 18.0, 22.0, 26.0, 30.0, 31.0, 31.0, 28.0, 27.0, 27.0, 27.0, 25.0, 25.0, 25.0, 25.0, 25.0, 25.0, 30.0, 32.0, 36.0, 38.0, 41.0, 41.0, 46.0, 67.0, 99.0, 131.0, 195.0, 238.0, 289.0, 354.0, 421.0, 479.0, 512.0, 523.0, 526.0, 527.0, 537.0, 543.0, 578.0, 593.0, 647.0, 666.0, 678.0, 682.0, 687.0, 687.0, 687.0]	[-490.0, -494.0, -494.0, -494.0, -494.0, -494.0, -494.0, -494.0, -495.0, -494.0, -491.0, -485.0, -482.0, -474.0, -457.0, -455.0, -455.0, -463.0, -473.0, -473.0, -473.0, -487.0, -491.0, -497.0, -499.0, -499.0, -498.0, -485.0, -458.0, -433.0, -406.0, -353.0, -280.0, -213.0, -145.0, -77.0, -19.0, 69.0, 118.0, 160.0, 204.0, 241.0, 276.0, 296.0, 306.0, 309.0, 311.0, 323.0, 327.0, 346.0, 354.0, 374.0, 380.0, 384.0, 384.0, 385.0, 385.0, 385.0]	[0.013281721467137686, 0.017510158078948734, 0.024504759550836752, 0.04200901256444922, 0.06961365851930168, 0.07468587098628632, 0.10249122090863239, 0.10999133696168428, 0.1249925930678728, 0.14299143799689773, 0.160031477755183, 0.17494842454289028, 0.1931964427622006, 0.20964256262050185, 0.22523466662642022, 0.24314851957024075, 0.2599868313627667, 0.2749269888117851, 0.29332758300552086, 0.30984811352027464, 0.32526852688715735, 0.34303731318868813, 0.36014596093446016, 0.37475843844185874, 0.3932211552910303, 0.40983862445500563, 0.42527030182100134, 0.44317016009881627, 0.4602757358461531, 0.47474144004445407, 0.4937065994745353, 0.5095956634286267, 0.5253997353993327, 0.5429961483951047, 0.5605679853961192, 0.5747452629766485, 0.5949067955352803, 0.6097370436709753, 0.6287028857677797, 0.6430539019856951, 0.6631355625577271, 0.6748388565611094, 0.6962899462341738, 0.7097497412687517, 0.7279823994904291, 0.7429788769313745, 0.7625331775943778, 0.7747433515105513, 0.7958879239013186, 0.8097651695334207, 0.8281193424008961, 0.8430769078477169, 0.8612648514117609, 0.8747758464378421, 0.8939208885039989, 0.9097522671363549, 0.9251368405093672, 0.9429342988059943]
20	骆驼	True	inanimate	animate	right	0.928	[0.0, 0.0, 0.0, 0.0, 0.0, 0.0, 0.0, 0.0, 0.0, 0.0, 0.0, -5.0, -8.0, -24.0, -43.0, -61.0, -78.0, -82.0, -89.0, -94.0, -98.0, -101.0, -102.0, -102.0, -102.0, -102.0, -105.0, -105.0, -104.0, -100.0, -100.0, -93.0, -78.0, -69.0, -28.0, 20.0, 88.0, 168.0, 247.0, 324.0, 403.0, 465.0, 525.0, 587.0, 640.0, 682.0, 733.0, 750.0, 754.0, 763.0, 765.0, 765.0, 765.0, 765.0, 765.0, 765.0, 765.0]	[-490.0, -490.0, -490.0, -490.0, -490.0, -490.0, -490.0, -490.0, -490.0, -487.0, -479.0, -459.0, -451.0, -417.0, -387.0, -364.0, -343.0, -338.0, -332.0, -330.0, -329.0, -334.0, -337.0, -337.0, -337.0, -337.0, -347.0, -353.0, -358.0, -360.0, -360.0, -353.0, -332.0, -322.0, -288.0, -250.0, -190.0, -121.0, -51.0, 11.0, 65.0, 110.0, 162.0, 215.0, 258.0, 292.0, 332.0, 350.0, 354.0, 375.0, 382.0, 383.0, 383.0, 383.0, 383.0, 383.0, 383.0]	[0.01446645513169642, 0.025025941327839973, 0.029825087176504894, 0.045494673835491994, 0.06237838295419351, 0.07726938841187803, 0.09569728926726384, 0.11213009712992061, 0.12741465985345712, 0.14544456611110945, 0.16247436587036646, 0.17736400599642366, 0.19565264287484752, 0.21208135473716538, 0.22741438678713166, 0.25419027555108187, 0.2624245994793455, 0.2770776956458576, 0.295638716477697, 0.31847084058063047, 0.3271523110997805, 0.3496990805851965, 0.3622041664493736, 0.37710984923978685, 0.39570534473205043, 0.41256652585434495, 0.42731451267172815, 0.4458424241765897, 0.462369781354937, 0.47733349080226617, 0.49572247966352734, 0.5144162791402778, 0.5274480422485794, 0.5474313988379436, 0.5623138709652267, 0.5798764919672976, 0.595689097268405, 0.613148635622565, 0.6274706385120226, 0.6465170352603309, 0.6625532138568815, 0.6798591522365314, 0.695616802880977, 0.7129766719190229, 0.7275004027724208, 0.7459501489574905, 0.762276119505259, 0.7780566394776542, 0.7955206151636958, 0.8121688043229369, 0.8271806417615153, 0.8478360835688363, 0.8618249451810698, 0.8804876833291928, 0.895201878152875, 0.9121408832615998, 0.9272008486914274]
21	绳子	False	animate	inanimate	right	1.017	[0.0, 0.0, 0.0, 0.0, 0.0, 0.0, 0.0, 0.0, 0.0, 0.0, 2.0, 7.0, 7.0, 7.0, 7.0, 4.0, 2.0, -3.0, -7.0, -11.0, -12.0, -15.0, -15.0, -15.0, -15.0, -14.0, -14.0, -14.0, -7.0, 2.0, 17.0, 45.0, 87.0, 145.0, 280.0, 359.0, 359.0, 461.0, 514.0, 557.0, 589.0, 615.0, 630.0, 637.0, 647.0, 650.0, 654.0, 656.0, 662.0, 666.0, 668.0, 668.0, 668.0, 670.0, 671.0, 673.0, 674.0, 676.0, 680.0, 682.0, 683.0, 683.0]	[-490.0, -490.0, -490.0, -490.0, -490.0, -490.0, -490.0, -490.0, -489.0, -482.0, -467.0, -439.0, -433.0, -402.0, -398.0, -387.0, -379.0, -374.0, -374.0, -376.0, -383.0, -386.0, -386.0, -386.0, -386.0, -395.0, -395.0, -395.0, -390.0, -381.0, -364.0, -336.0, -307.0, -263.0, -138.0, -66.0, -66.0, 35.0, 90.0, 134.0, 171.0, 199.0, 219.0, 236.0, 258.0, 264.0, 275.0, 283.0, 296.0, 309.0, 315.0, 322.0, 332.0, 341.0, 342.0, 346.0, 349.0, 351.0, 357.0, 359.0, 359.0, 359.0]	[0.012171671522082761, 0.016873878719707136, 0.027067114313467755, 0.0374992831984855, 0.056580495942398557, 0.06924566711495572, 0.08972429828645545, 0.10427840780175757, 0.1190062559544458, 0.13750993279791146, 0.15576307101582643, 0.16941298868550803, 0.1992591702583013, 0.2049307639572362, 0.22181993440790393, 0.23754481705691433, 0.2552333900384838, 0.2693086089693679, 0.28854581101950316, 0.30413074702664744, 0.32137149075060734, 0.3374786666681757, 0.3546767437346716, 0.369447941213366, 0.3880502633710421, 0.40416597262083087, 0.4197331592968112, 0.4373558549559675, 0.4576904434870812, 0.46938964149012463, 0.4871420437939378, 0.5038817102704343, 0.5218071685430914, 0.5382877630636358, 0.5591797488323209, 0.5689159391695284, 0.587641823974991, 0.6040186531790823, 0.6190816906091641, 0.6374614634714817, 0.6536457807105762, 0.6690433247495093, 0.6875169642626133, 0.704916427959688, 0.7239863767044881, 0.737095963801039, 0.7540673955718376, 0.7692225929840788, 0.7877959018151159, 0.8037378724275186, 0.8190651018121571, 0.8381804478831327, 0.8539991971829295, 0.8690304906176607, 0.8870675648722681, 0.904000084648942, 0.9189378527662484, 0.9369919936852966, 0.9540153081143217, 0.969042505548714, 0.9874471957409696, 1.0078268402630783]
22	海豚	True	inanimate	animate	right	0.844	[0.0, 0.0, 0.0, 0.0, 0.0, 0.0, 0.0, 0.0, 1.0, 3.0, 11.0, 16.0, 20.0, 21.0, 23.0, 23.0, 23.0, 23.0, 23.0, 23.0, 23.0, 23.0, 23.0, 23.0, 34.0, 45.0, 55.0, 64.0, 74.0, 89.0, 124.0, 192.0, 220.0, 286.0, 395.0, 469.0, 548.0, 606.0, 648.0, 690.0, 726.0, 770.0, 783.0, 805.0, 815.0, 816.0, 817.0, 817.0, 817.0, 817.0, 817.0]	[-490.0, -490.0, -490.0, -490.0, -490.0, -490.0, -490.0, -490.0, -490.0, -488.0, -475.0, -465.0, -456.0, -445.0, -431.0, -425.0, -425.0, -425.0, -425.0, -425.0, -425.0, -425.0, -425.0, -425.0, -426.0, -429.0, -427.0, -419.0, -404.0, -387.0, -353.0, -276.0, -245.0, -167.0, -45.0, 32.0, 105.0, 163.0, 209.0, 252.0, 288.0, 342.0, 359.0, 407.0, 429.0, 435.0, 440.0, 440.0, 441.0, 441.0, 441.0]	[0.01056091979626217, 0.015723926915597985, 0.031184617610051646, 0.05552850678759569, 0.0663276089453575, 0.08114761708202423, 0.09979840856613009, 0.11931106656993506, 0.1313765151771804, 0.15202615431917366, 0.16642393319489202, 0.18137535464484245, 0.19978345816889487, 0.2181147617066017, 0.23160083940456389, 0.25125515071704285, 0.2665403961091215, 0.28380332649612683, 0.29926743052419624, 0.31735707010375336, 0.3315500490134582, 0.35002573652673163, 0.36628514708536386, 0.38187827509136696, 0.3996119040657504, 0.4162539492244832, 0.4313494133148197, 0.4493219755804603, 0.466307743348807, 0.48121342613740126, 0.499350852376665, 0.5159812922047422, 0.5312767775940301, 0.5493647105067794, 0.5659780836722348, 0.5812349984007597, 0.5992765099890676, 0.616798512332025, 0.6311863925420766, 0.6495736747383489, 0.6659358266115305, 0.6815340746161382, 0.699552375541316, 0.7166033379653527, 0.7314933194229525, 0.74972188164611, 0.7659089295502781, 0.78151434555366, 0.7994643798228935, 0.8164853049183876, 0.8312967797246529]
23	蜻蜓	True	inanimate	animate	right	0.801	[0.0, 0.0, 0.0, 0.0, 0.0, 0.0, 0.0, -1.0, 0.0, 9.0, 32.0, 32.0, 46.0, 53.0, 53.0, 53.0, 53.0, 53.0, 53.0, 53.0, 53.0, 46.0, 32.0, 29.0, 28.0, 35.0, 57.0, 57.0, 110.0, 162.0, 227.0, 305.0, 439.0, 486.0, 622.0, 666.0, 736.0, 794.0, 815.0, 815.0, 822.0, 822.0, 823.0, 823.0, 823.0, 823.0, 823.0, 823.0, 823.0]	[-490.0, -490.0, -490.0, -490.0, -490.0, -490.0, -490.0, -479.0, -458.0, -429.0, -340.0, -340.0, -301.0, -282.0, -282.0, -282.0, -282.0, -282.0, -282.0, -282.0, -282.0, -310.0, -340.0, -354.0, -355.0, -352.0, -333.0, -333.0, -294.0, -257.0, -211.0, -162.0, -42.0, -3.0, 114.0, 150.0, 211.0, 277.0, 320.0, 320.0, 351.0, 355.0, 360.0, 364.0, 375.0, 377.0, 382.0, 382.0, 382.0]	[0.013772524580417667, 0.024796224033707404, 0.029230484609797713, 0.04310738890853827, 0.05982521005535091, 0.07466808752178622, 0.0933625696652598, 0.10966294021636713, 0.12504205225741316, 0.14287159588093346, 0.15875622250314336, 0.17504635305704142, 0.19322337395533395, 0.20973400580442103, 0.22503563519239833, 0.24289726414463075, 0.25996938922980917, 0.2747327360448253, 0.2933446155348065, 0.309767183398435, 0.3250746154517401, 0.34297686306308606, 0.3599496601673309, 0.374996313599695, 0.3933265931373171, 0.4141496295833349, 0.4248128810977505, 0.44312472863748553, 0.46005246974891634, 0.4748397098919668, 0.4934133600563655, 0.5164379961261147, 0.5247692587035999, 0.5516263847875962, 0.5597129114066774, 0.5746530688575149, 0.5931215883720142, 0.6171384802728426, 0.6246925269842905, 0.6497784747025435, 0.6598187929885171, 0.6747763584371569, 0.6933264566032449, 0.7157657061070495, 0.7247612032388133, 0.7490344364305201, 0.7597611759319989, 0.7747016747161979, 0.793209788889726]
24	枕头	False	animate	inanimate	right	0.836	[0.0, 0.0, 0.0, 0.0, 0.0, 0.0, 0.0, 2.0, 17.0, 28.0, 65.0, 79.0, 109.0, 152.0, 159.0, 160.0, 160.0, 160.0, 159.0, 153.0, 152.0, 150.0, 143.0, 129.0, 119.0, 121.0, 128.0, 141.0, 173.0, 206.0, 247.0, 273.0, 314.0, 355.0, 401.0, 451.0, 498.0, 564.0, 604.0, 622.0, 667.0, 685.0, 697.0, 705.0, 713.0, 715.0, 723.0, 723.0, 723.0, 723.0]	[-490.0, -490.0, -490.0, -490.0, -490.0, -490.0, -490.0, -483.0, -449.0, -428.0, -338.0, -307.0, -240.0, -160.0, -140.0, -131.0, -130.0, -128.0, -128.0, -138.0, -139.0, -163.0, -184.0, -217.0, -255.0, -277.0, -277.0, -271.0, -255.0, -235.0, -214.0, -193.0, -155.0, -102.0, -37.0, 32.0, 100.0, 190.0, 248.0, 272.0, 336.0, 365.0, 385.0, 403.0, 418.0, 423.0, 431.0, 431.0, 431.0, 431.0]	[0.01344487877395295, 0.036372576194480644, 0.041744820609892486, 0.06017203879855515, 0.07711991857286193, 0.09177711073789396, 0.11039240356149094, 0.13300607436940481, 0.1418879075190489, 0.1600103150940413, 0.17699301086213381, 0.1917908323357551, 0.21043616248789476, 0.22680275169477682, 0.2421132557483361, 0.26446136926642794, 0.2772125564242742, 0.2920096952311724, 0.3106441027175606, 0.3285470329956297, 0.3422249399955035, 0.36220829658486764, 0.3770887207119813, 0.39191111818217905, 0.41049091234526713, 0.42881026921713783, 0.44219667760080483, 0.4616714476105699, 0.4770959569777915, 0.4946906633085746, 0.5105319406047784, 0.5275658363643743, 0.542237705860316, 0.5601747694654478, 0.576643417321975, 0.5918436707270303, 0.6099309209730563, 0.6288503417454194, 0.6419281848466198, 0.6621798293890606, 0.6768919762125734, 0.6922096482649067, 0.7099248452414031, 0.7307765536825173, 0.7420542050913355, 0.7613279298020643, 0.7765432018713909, 0.7924274871602393, 0.8099266201734281, 0.8304451873391372]
25	记者	True	animate	inanimate	left	0.876	[0.0, 0.0, 0.0, 0.0, 0.0, 0.0, 0.0, 0.0, 0.0, 0.0, 0.0, 0.0, -3.0, -18.0, -22.0, -25.0, -25.0, -25.0, -25.0, -25.0, -25.0, -25.0, -12.0, 23.0, 29.0, 32.0, 32.0, 32.0, 20.0, -39.0, -39.0, -90.0, -109.0, -147.0, -185.0, -249.0, -264.0, -294.0, -309.0, -343.0, -417.0, -472.0, -502.0, -620.0, -642.0, -679.0, -704.0, -717.0, -726.0, -728.0, -728.0, -728.0, -728.0]	[-490.0, -490.0, -490.0, -490.0, -490.0, -490.0, -490.0, -490.0, -490.0, -484.0, -471.0, -457.0, -441.0, -401.0, -389.0, -380.0, -380.0, -380.0, -380.0, -380.0, -380.0, -380.0, -400.0, -432.0, -441.0, -447.0, -447.0, -447.0, -435.0, -396.0, -396.0, -360.0, -333.0, -283.0, -226.0, -114.0, -90.0, -46.0, -27.0, 20.0, 112.0, 177.0, 210.0, 345.0, 373.0, 416.0, 447.0, 463.0, 477.0, 481.0, 481.0, 481.0, 481.0]	[0.01100840772051015, 0.015901761551504023, 0.020459926106923376, 0.03904006160337303, 0.0556909814276878, 0.07140152807915001, 0.08909726905949356, 0.10599463150902011, 0.1208136156474211, 0.13921557517278416, 0.15551150839201, 0.17099097241589334, 0.1889498813507089, 0.20584656113533129, 0.22076760392155848, 0.23929995275830152, 0.25548256333058816, 0.2709070726978098, 0.2889755496144062, 0.30587018139704014, 0.32084583750838647, 0.3391546130496863, 0.3647160380205605, 0.37069995166712033, 0.3973942617776629, 0.40587332166251144, 0.42057864182061167, 0.4392751719624357, 0.4617017921355, 0.4705621212906408, 0.4933167627405055, 0.5058928459275194, 0.520606699416021, 0.5391066215906903, 0.5690681738105923, 0.5775062737047847, 0.5927747937657841, 0.6057222475556046, 0.6211252529265039, 0.6399067750553513, 0.6593975877276534, 0.6707636444552918, 0.698745122346736, 0.7045651960197574, 0.7235163607856521, 0.739075014129412, 0.7574797043216677, 0.7709756806852965, 0.7898613094621396, 0.8083513329729612, 0.8209164934960427, 0.8387218024563481, 0.8558775541951036]
26	蜗牛	True	inanimate	animate	right	0.779	[0.0, 0.0, 0.0, 0.0, 0.0, 0.0, 0.0, 3.0, 5.0, 8.0, 13.0, 18.0, 22.0, 23.0, 26.0, 26.0, 26.0, 26.0, 26.0, 26.0, 26.0, 26.0, 26.0, 23.0, 17.0, 17.0, 24.0, 28.0, 44.0, 66.0, 102.0, 155.0, 223.0, 295.0, 413.0, 453.0, 518.0, 582.0, 613.0, 627.0, 654.0, 674.0, 693.0, 708.0, 714.0, 714.0, 714.0, 714.0]	[-490.0, -490.0, -490.0, -490.0, -490.0, -490.0, -490.0, -482.0, -472.0, -464.0, -453.0, -444.0, -434.0, -420.0, -408.0, -405.0, -405.0, -405.0, -405.0, -405.0, -405.0, -405.0, -405.0, -409.0, -409.0, -409.0, -398.0, -395.0, -370.0, -342.0, -299.0, -235.0, -147.0, -61.0, 65.0, 105.0, 178.0, 268.0, 310.0, 331.0, 366.0, 388.0, 407.0, 421.0, 426.0, 426.0, 426.0, 426.0]	[0.007951768242492108, 0.012761154088366311, 0.01720667866356962, 0.03305683062535536, 0.04922510519827483, 0.0647677158794977, 0.08276758480860735, 0.09967825925559737, 0.11459998470854771, 0.13289305891885306, 0.14928149345541897, 0.16478860547613294, 0.18263965309597552, 0.19967286618884827, 0.2146273596372339, 0.23286547919087752, 0.24922285239881603, 0.2647255270876485, 0.2827916146707139, 0.2997265237809188, 0.3146076305729366, 0.3328884167876822, 0.3492345259965077, 0.3647416380172217, 0.38279270693601575, 0.39961019740076154, 0.41445136820038897, 0.43280485840114125, 0.4492236715996114, 0.46474102361753467, 0.4828009672019107, 0.4996887723191321, 0.514608449773732, 0.5328397426619631, 0.5492599211938796, 0.564820622537809, 0.5825580061773508, 0.5995915606035851, 0.6146474300330738, 0.6328759922562313, 0.6493487361112784, 0.6648346854690317, 0.6826922184209252, 0.6996916395200969, 0.7143549756838183, 0.7325224392498058, 0.7495829590043286, 0.7645958204429917]
27	女王	True	inanimate	animate	right	0.819	[0.0, 0.0, 0.0, 0.0, 0.0, 0.0, 0.0, 0.0, 0.0, 0.0, -5.0, -25.0, -31.0, -56.0, -73.0, -86.0, -96.0, -109.0, -113.0, -120.0, -120.0, -120.0, -120.0, -120.0, -120.0, -120.0, -120.0, -112.0, -100.0, -89.0, -85.0, -79.0, -77.0, -65.0, -24.0, 49.0, 96.0, 246.0, 340.0, 430.0, 514.0, 583.0, 641.0, 697.0, 711.0, 728.0, 742.0, 742.0, 742.0, 742.0]	[-490.0, -490.0, -490.0, -490.0, -490.0, -490.0, -490.0, -490.0, -484.0, -460.0, -385.0, -327.0, -303.0, -219.0, -169.0, -125.0, -105.0, -90.0, -88.0, -82.0, -82.0, -82.0, -82.0, -82.0, -82.0, -82.0, -86.0, -104.0, -117.0, -121.0, -121.0, -119.0, -117.0, -102.0, -70.0, -27.0, -1.0, 81.0, 141.0, 208.0, 268.0, 320.0, 364.0, 406.0, 416.0, 427.0, 435.0, 435.0, 435.0, 435.0]	[0.013558508619098575, 0.01812623050500406, 0.025531455909003853, 0.04393341543436691, 0.060624612586252624, 0.07568969801468484, 0.09379333225842856, 0.11091734000183351, 0.12560798282902397, 0.14429836897215864, 0.16043455821818497, 0.17591504624215304, 0.19388556050944317, 0.2107423042998562, 0.22577154973441793, 0.2440134239550389, 0.2697219635665533, 0.27557685323336045, 0.30068157428286213, 0.31048807927618327, 0.3254975273812306, 0.3440363615500246, 0.3674071095610998, 0.375513774844876, 0.4022545062816789, 0.41051818486994307, 0.42552251297638577, 0.44398796049244993, 0.46525916752761987, 0.4758032937279495, 0.49713184475513117, 0.5107462637643039, 0.5257823358660971, 0.544039570082532, 0.5608437485479953, 0.5758685566506756, 0.5963768838173564, 0.6107265347018256, 0.6258390654566028, 0.6440307636839862, 0.6621094805996108, 0.6760481662204256, 0.7034835108715924, 0.7104385176844517, 0.7256671017512417, 0.7437021280074987, 0.7617333995967783, 0.7758789331819571, 0.7947843592901336, 0.8105819459269696]
28	镜子	False	animate	inanimate	right	1.394	[0.0, 0.0, 0.0, 0.0, 0.0, 0.0, 0.0, 0.0, -2.0, -5.0, -10.0, -19.0, -38.0, -64.0, -95.0, -102.0, -108.0, -108.0, -108.0, -108.0, -108.0, -108.0, -108.0, -103.0, -84.0, -73.0, -73.0, -73.0, -72.0, -73.0, -90.0, -108.0, -128.0, -158.0, -213.0, -276.0, -347.0, -453.0, -453.0, -498.0, -566.0, -622.0, -622.0, -670.0, -677.0, -688.0, -693.0, -693.0, -693.0, -693.0, -693.0, -693.0, -693.0, -693.0, -690.0, -635.0, -541.0, -404.0, -228.0, -37.0, 155.0, 288.0, 383.0, 433.0, 462.0, 470.0, 470.0, 476.0, 476.0, 476.0, 477.0, 488.0, 505.0, 521.0, 531.0, 531.0, 542.0, 560.0, 582.0, 670.0, 722.0, 749.0, 759.0, 759.0]	[-490.0, -490.0, -490.0, -490.0, -490.0, -490.0, -490.0, -489.0, -480.0, -462.0, -438.0, -401.0, -358.0, -296.0, -227.0, -207.0, -182.0, -182.0, -182.0, -182.0, -182.0, -182.0, -182.0, -194.0, -218.0, -238.0, -243.0, -243.0, -243.0, -242.0, -229.0, -206.0, -184.0, -155.0, -104.0, -41.0, 26.0, 134.0, 134.0, 190.0, 283.0, 362.0, 362.0, 421.0, 428.0, 441.0, 447.0, 447.0, 447.0, 447.0, 447.0, 447.0, 447.0, 447.0, 441.0, 416.0, 399.0, 381.0, 381.0, 381.0, 381.0, 386.0, 401.0, 408.0, 414.0, 418.0, 418.0, 423.0, 423.0, 423.0, 425.0, 425.0, 426.0, 426.0, 426.0, 426.0, 426.0, 426.0, 426.0, 416.0, 414.0, 414.0, 414.0, 414.0]	[0.007850392259570071, 0.012129687529522926, 0.016902892048165086, 0.03600219545478467, 0.04920223586850625, 0.06820118729410751, 0.08275393147596333, 0.10090740037776413, 0.11454264071835496, 0.13524143185168214, 0.1494210987657425, 0.1671004557483684, 0.18265876775876677, 0.20105424195389787, 0.21431367435616266, 0.234203505628102, 0.24936314037404372, 0.26582905756549735, 0.2825991027020791, 0.30072765427576087, 0.3144291132703074, 0.3336222833277134, 0.34933726731287607, 0.36484301400014374, 0.3825131549838261, 0.39988906668440904, 0.4145285095200961, 0.43287858638905163, 0.4493055915845616, 0.4646317969691154, 0.4824794312571612, 0.4995542870092322, 0.5144876177928381, 0.533059561290429, 0.5494111318330397, 0.5647093478892202, 0.5930075830601709, 0.599210974000016, 0.6148225340039062, 0.6355035758078884, 0.6565672522119712, 0.6642994748926867, 0.6900083558375627, 0.6998507008247543, 0.7142570130326931, 0.7328310045304534, 0.7552152993757772, 0.7643732711458142, 0.7884666217014455, 0.7992657238573884, 0.8146291345692589, 0.8333679900388233, 0.8554457676036691, 0.8644142994053254, 0.8823356616812816, 0.8996262400632986, 0.9142656828989857, 0.9330929436855513, 0.9513580285674834, 0.9646911889594776, 0.9824637299261667, 0.9997051563168498, 1.0144770364622673, 1.0328902599867433, 1.0502436436909193, 1.0649039078562055, 1.0930127030587755, 1.09851397145394, 1.116771888337098, 1.1328514162596548, 1.1497487787091814, 1.1646862054931262, 1.182416421133894, 1.2028732069757098, 1.2184793056458147, 1.2328054045337922, 1.2523416145340889, 1.2642367378357449, 1.2826646386911307, 1.3003293183428468, 1.3148281318681256, 1.332918454114406, 1.3539828131870308, 1.3646443580328196]
29	面包	False	animate	inanimate	right	1.0	[0.0, 0.0, 0.0, 0.0, 0.0, 0.0, 0.0, 0.0, 0.0, 0.0, 1.0, 1.0, 1.0, 1.0, -3.0, -4.0, -4.0, -4.0, -4.0, -4.0, -4.0, -4.0, -4.0, -4.0, -4.0, -4.0, -4.0, -1.0, 4.0, 8.0, 14.0, 46.0, 78.0, 121.0, 171.0, 264.0, 292.0, 338.0, 365.0, 371.0, 364.0, 358.0, 349.0, 342.0, 345.0, 356.0, 432.0, 475.0, 550.0, 617.0, 727.0, 760.0, 811.0, 828.0, 830.0, 836.0, 836.0, 837.0, 837.0, 837.0, 837.0]	[-490.0, -490.0, -490.0, -490.0, -490.0, -490.0, -484.0, -466.0, -458.0, -451.0, -446.0, -439.0, -433.0, -429.0, -423.0, -421.0, -421.0, -421.0, -421.0, -421.0, -421.0, -421.0, -421.0, -421.0, -421.0, -421.0, -421.0, -420.0, -405.0, -388.0, -378.0, -344.0, -297.0, -235.0, -166.0, -50.0, -17.0, 44.0, 83.0, 103.0, 139.0, 145.0, 151.0, 161.0, 185.0, 195.0, 236.0, 250.0, 266.0, 281.0, 321.0, 331.0, 354.0, 362.0, 363.0, 368.0, 368.0, 368.0, 368.0, 368.0, 368.0]	[0.012983362048544222, 0.017551083936268697, 0.02634109843711485, 0.042795410294274916, 0.05921763682454184, 0.07441003956591885, 0.09266078845030279, 0.10944039092100866, 0.12449011635180796, 0.14270058791043994, 0.15944571571890265, 0.174718331780241, 0.1925123767432524, 0.21278927994899277, 0.2247970432326838, 0.24277097083177068, 0.25970383194180613, 0.2745542187403771, 0.29273943163752847, 0.3093862554633233, 0.32476366083938046, 0.34249865514539124, 0.3596168602234684, 0.37456930567168456, 0.39294498253548227, 0.4093897370621562, 0.4246923904502182, 0.44249872341242735, 0.45956265650056594, 0.47454411527542106, 0.49295802146662027, 0.5094509039863624, 0.5246381867273158, 0.5424527116865647, 0.5624251456119964, 0.5745708075392031, 0.5927648951001174, 0.6092407109554188, 0.6246846763187932, 0.6522015996233677, 0.6588531611541839, 0.6743121451818297, 0.6928236726889736, 0.7149669862446899, 0.7243143979812885, 0.751433668019672, 0.7593751279982826, 0.7743204054477246, 0.792919314273604, 0.8095913967608794, 0.8245404288772988, 0.8484347821322444, 0.8593748549319571, 0.8742907777195796, 0.892970923865505, 0.9132645524005056, 0.924441510493125, 0.9427414113706618, 0.9594759578485537, 0.9744956459508103, 0.9928829281470826]
30	黄瓜	False	animate	inanimate	right	0.88	[0.0, 0.0, 0.0, 0.0, 0.0, 0.0, 1.0, 1.0, 4.0, 4.0, 6.0, 11.0, 18.0, 21.0, 25.0, 27.0, 24.0, 24.0, 24.0, 24.0, 24.0, 24.0, 21.0, 21.0, 21.0, 4.0, -7.0, -7.0, -6.0, 2.0, 24.0, 69.0, 177.0, 222.0, 340.0, 420.0, 463.0, 566.0, 631.0, 677.0, 727.0, 740.0, 762.0, 782.0, 810.0, 820.0, 846.0, 857.0, 862.0, 864.0, 864.0, 864.0, 864.0, 864.0]	[-490.0, -490.0, -490.0, -490.0, -490.0, -490.0, -487.0, -475.0, -456.0, -445.0, -421.0, -394.0, -365.0, -336.0, -301.0, -289.0, -286.0, -286.0, -286.0, -286.0, -286.0, -286.0, -291.0, -291.0, -291.0, -320.0, -336.0, -337.0, -338.0, -336.0, -324.0, -299.0, -229.0, -205.0, -133.0, -75.0, -43.0, 41.0, 99.0, 140.0, 198.0, 214.0, 243.0, 273.0, 323.0, 341.0, 382.0, 399.0, 407.0, 412.0, 416.0, 418.0, 420.0, 420.0]	[0.013929196553362999, 0.01973425156211306, 0.0261055784758355, 0.044332092698823544, 0.061417871114826994, 0.07609759127626603, 0.09480675075064937, 0.11097297732521838, 0.12641523602360394, 0.14439564895474177, 0.16135103806118423, 0.1762058621916367, 0.1946112350506155, 0.21124304021213902, 0.22640813629004697, 0.2538943395993556, 0.2611899970215745, 0.2761127464746096, 0.29462529798183823, 0.3198942003364209, 0.3261180712743226, 0.3514886909433699, 0.3612497986105154, 0.37608141207965673, 0.39470319023530465, 0.4172380130548845, 0.4262328275199252, 0.4487526316770527, 0.46137991485556995, 0.4760736296811956, 0.49473295449570287, 0.5146562364298006, 0.5262373331206618, 0.5442788447071507, 0.5612499351445877, 0.5760740392815933, 0.5946258441144892, 0.614414640736868, 0.6262524200501502, 0.6473355524522049, 0.6614380780447391, 0.678483237803448, 0.6947617630248715, 0.7122004800494324, 0.72645080294933, 0.745572293020814, 0.7613685143242037, 0.7790045219808235, 0.7947498846278904, 0.8123538069557981, 0.8264430205508688, 0.8535793572536932, 0.8610388546476315, 0.8772200998846529]
31	袜子	False	inanimate	animate	left	1.05	[0.0, 0.0, 0.0, 0.0, 0.0, 0.0, 0.0, 0.0, -3.0, -5.0, -6.0, -11.0, -14.0, -21.0, -24.0, -29.0, -33.0, -39.0, -39.0, -39.0, -39.0, -39.0, -39.0, -39.0, -44.0, -52.0, -58.0, -61.0, -63.0, -64.0, -60.0, -25.0, 26.0, 54.0, 222.0, 268.0, 362.0, 457.0, 548.0, 613.0, 660.0, 685.0, 695.0, 697.0, 684.0, 684.0, 562.0, 507.0, 381.0, 230.0, -21.0, -105.0, -357.0, -432.0, -620.0, -691.0, -721.0, -727.0, -727.0, -727.0, -727.0, -727.0, -727.0, -727.0]	[-490.0, -490.0, -490.0, -490.0, -490.0, -490.0, -490.0, -490.0, -463.0, -455.0, -416.0, -390.0, -365.0, -341.0, -319.0, -302.0, -289.0, -283.0, -283.0, -283.0, -283.0, -283.0, -284.0, -284.0, -294.0, -305.0, -313.0, -317.0, -317.0, -318.0, -315.0, -296.0, -261.0, -241.0, -127.0, -98.0, -37.0, 32.0, 102.0, 159.0, 204.0, 234.0, 252.0, 269.0, 285.0, 285.0, 317.0, 325.0, 333.0, 333.0, 333.0, 333.0, 348.0, 359.0, 387.0, 397.0, 406.0, 409.0, 409.0, 409.0, 409.0, 409.0, 409.0, 409.0]	[0.010829549084519385, 0.015863190892559942, 0.022500757759189582, 0.03756447785417549, 0.058519951611742727, 0.06944398174709931, 0.08758686931832926, 0.10418931981803325, 0.11938650122465333, 0.13775910608819686, 0.15430352993098495, 0.16958433798936312, 0.1874790762685734, 0.20449829469907854, 0.21937974282445794, 0.23768135036880267, 0.25424454754102044, 0.26947552094134153, 0.29126214122334204, 0.3044157603126223, 0.31939824308938114, 0.3376131519798946, 0.35415962382285215, 0.3694250718835974, 0.3874979861320753, 0.4043564365892962, 0.41967581530843745, 0.4377579455558589, 0.4543221667281614, 0.46946575880974706, 0.4877475690227584, 0.5044281848440733, 0.5192628703116497, 0.5418164664624783, 0.5544574029718206, 0.5692272351170686, 0.5877459306248056, 0.6041101304981566, 0.6195185972010222, 0.637334828827079, 0.6543946659166977, 0.6692279860508279, 0.6879019881980639, 0.7114509121784067, 0.7193937374886445, 0.7446769758407754, 0.7542104142139578, 0.769236928983446, 0.7877546004892793, 0.8040918350343418, 0.8194685577436758, 0.8420286392265552, 0.8544145997784653, 0.869513135869056, 0.8877785620843497, 0.9057678496810695, 0.9196283699820924, 0.93888298003003, 0.9543801933850773, 0.9716987610954675, 0.9878864916663588, 1.0056006646427704, 1.0196379955814336, 1.0387724563152005]
32	岛屿	False	animate	inanimate	right	0.915	[0.0, 0.0, 0.0, 0.0, 0.0, -1.0, -1.0, -2.0, 2.0, 8.0, 19.0, 40.0, 48.0, 77.0, 104.0, 137.0, 176.0, 219.0, 265.0, 313.0, 351.0, 388.0, 421.0, 462.0, 478.0, 519.0, 545.0, 554.0, 580.0, 591.0, 605.0, 618.0, 630.0, 646.0, 655.0, 661.0, 663.0, 664.0, 665.0, 665.0, 665.0, 665.0, 665.0, 665.0, 665.0, 665.0, 670.0, 680.0, 686.0, 708.0, 726.0, 741.0, 750.0, 751.0, 751.0, 751.0]	[-490.0, -490.0, -490.0, -490.0, -490.0, -490.0, -490.0, -485.0, -475.0, -464.0, -449.0, -419.0, -408.0, -366.0, -309.0, -248.0, -172.0, -112.0, -51.0, -1.0, 32.0, 62.0, 85.0, 113.0, 122.0, 152.0, 169.0, 176.0, 192.0, 201.0, 210.0, 219.0, 228.0, 239.0, 247.0, 254.0, 255.0, 258.0, 260.0, 261.0, 263.0, 263.0, 266.0, 271.0, 278.0, 288.0, 305.0, 316.0, 323.0, 344.0, 358.0, 372.0, 383.0, 384.0, 384.0, 384.0]	[0.00975059459960903, 0.014065388530070777, 0.02034148345956055, 0.03421292642633489, 0.051938363400040544, 0.06596613700639864, 0.08511254440600169, 0.10070430707855849, 0.11807032011347474, 0.13390101607910765, 0.15114141846970597, 0.1658917946188012, 0.18454565810134227, 0.20060061002914154, 0.2167760526008351, 0.23398641766470973, 0.251024068089464, 0.2661396708426764, 0.2844252357226651, 0.3005119316439959, 0.3166078435642703, 0.33384517395461444, 0.35095382170220546, 0.36582639516382187, 0.383927298740673, 0.4005928958958975, 0.4155439760124864, 0.4371862123189203, 0.45254108969675144, 0.46549161548682605, 0.4854589294136531, 0.5004315135247452, 0.5159014202181424, 0.5338429211551556, 0.5510450942201714, 0.5654623290920426, 0.5839274352747452, 0.6004213417927531, 0.6157666618400981, 0.6337624347688688, 0.650685055881695, 0.6655173520157405, 0.6842575728187512, 0.70049718604605, 0.715900532750311, 0.7338618310186575, 0.7506571348185389, 0.7657054949177109, 0.7839436144713545, 0.8004136276613281, 0.8158053690331144, 0.8436042336234095, 0.8505998590953823, 0.8656465125277464, 0.8839115974096785, 0.9002573652869614]
33	蚊子	True	animate	inanimate	left	1.582	[0.0, 0.0, 0.0, 0.0, 0.0, 0.0, 0.0, 0.0, 0.0, -4.0, -8.0, -10.0, -19.0, -28.0, -34.0, -40.0, -48.0, -52.0, -56.0, -65.0, -71.0, -74.0, -78.0, -81.0, -81.0, -81.0, -71.0, -63.0, -23.0, -1.0, 62.0, 156.0, 224.0, 292.0, 363.0, 423.0, 475.0, 507.0, 523.0, 528.0, 531.0, 533.0, 534.0, 537.0, 537.0, 537.0, 537.0, 522.0, 501.0, 472.0, 403.0, 276.0, 111.0, -62.0, -229.0, -446.0, -557.0, -663.0, -742.0, -772.0, -780.0, -780.0, -780.0, -780.0, -780.0, -780.0, -780.0, -780.0, -777.0, -759.0, -726.0, -647.0, -534.0, -398.0, -277.0, -163.0, -76.0, 25.0, 50.0, 78.0, 78.0, 78.0, 61.0, -10.0, -107.0, -251.0, -416.0, -587.0, -732.0, -831.0, -890.0, -907.0, -907.0, -907.0, -907.0, -907.0]	[-490.0, -490.0, -490.0, -490.0, -490.0, -490.0, -490.0, -490.0, -490.0, -479.0, -451.0, -439.0, -403.0, -371.0, -338.0, -307.0, -260.0, -228.0, -209.0, -145.0, -106.0, -79.0, -54.0, -32.0, -16.0, -4.0, 12.0, 16.0, 36.0, 45.0, 74.0, 131.0, 177.0, 223.0, 275.0, 317.0, 353.0, 374.0, 386.0, 389.0, 392.0, 392.0, 394.0, 395.0, 395.0, 395.0, 396.0, 397.0, 397.0, 396.0, 386.0, 372.0, 346.0, 322.0, 296.0, 270.0, 268.0, 268.0, 268.0, 271.0, 273.0, 273.0, 273.0, 273.0, 273.0, 273.0, 273.0, 273.0, 277.0, 283.0, 291.0, 306.0, 320.0, 340.0, 357.0, 373.0, 387.0, 398.0, 399.0, 399.0, 399.0, 399.0, 399.0, 399.0, 399.0, 399.0, 403.0, 414.0, 425.0, 434.0, 439.0, 443.0, 443.0, 443.0, 443.0, 443.0]	[0.014308759158666362, 0.020051691511980607, 0.0268087250260578, 0.04534278052960872, 0.062051044344116235, 0.07685023115118383, 0.09547235064019333, 0.11181982518246514, 0.12719040389310976, 0.15260198355645116, 0.16198694195554708, 0.176897744742746, 0.1955184988983092, 0.21171646946822875, 0.2272949201415031, 0.25235458519819076, 0.26201158621734066, 0.27681350369130087, 0.2953359538623772, 0.3117216577338695, 0.3270420604512765, 0.3482310061699536, 0.361996977153467, 0.3768330279544898, 0.39545002744307567, 0.4117148993354931, 0.4271619366991217, 0.4479375278187945, 0.4620516587438033, 0.47694573620174197, 0.49536271439137636, 0.5135735272833699, 0.5271428903015476, 0.5465739696519449, 0.5620824470061052, 0.5797037773318152, 0.5955494919599005, 0.6130189289779082, 0.6271835772276972, 0.6461825286514795, 0.6620613526083616, 0.6795461496240023, 0.6953976669192343, 0.7128851946017676, 0.7272160721549881, 0.7460194396135194, 0.761967895557973, 0.7778747088432283, 0.7953926151876658, 0.8122985109675938, 0.8273554043989861, 0.844939870730741, 0.8618976491707144, 0.87685623861762, 0.894929835532821, 0.9137622163179913, 0.927183440695444, 0.9469319599902519, 0.9618396907808346, 0.9798115703797521, 0.9952019464199111, 1.0129632233874872, 1.0269169276725734, 1.0459104177643894, 1.0619189483659284, 1.0782162469186005, 1.0951730013584893, 1.112165254457068, 1.1271839185610588, 1.1454872327703924, 1.1618708886417153, 1.1773165606718976, 1.1951880882879777, 1.2120038720859156, 1.2268406055536616, 1.245343599728585, 1.261835799579785, 1.2771503996336833, 1.2951683592254994, 1.3117291670660052, 1.3268365778203588, 1.345399305319006, 1.3619024278359575, 1.3772914385426702, 1.3952544434778247, 1.4120579392765649, 1.426778619430479, 1.445240994946289, 1.4615509228297014, 1.4771611174983263, 1.5022381905528164, 1.5118931435699778, 1.5268326183540921, 1.5452666632081673, 1.5683510326016403, 1.5768526204847149]
34	警察	True	inanimate	animate	right	0.85	[0.0, 0.0, 0.0, 0.0, 0.0, 0.0, 0.0, 0.0, -1.0, 4.0, 21.0, 31.0, 33.0, 33.0, 33.0, 33.0, 33.0, 33.0, 31.0, 31.0, 30.0, 30.0, 30.0, 30.0, 30.0, 30.0, 31.0, 43.0, 56.0, 70.0, 89.0, 124.0, 196.0, 229.0, 331.0, 386.0, 450.0, 517.0, 571.0, 633.0, 714.0, 738.0, 780.0, 808.0, 836.0, 841.0, 850.0, 850.0, 850.0, 850.0, 850.0, 850.0]	[-490.0, -490.0, -490.0, -490.0, -490.0, -490.0, -490.0, -490.0, -484.0, -466.0, -428.0, -388.0, -359.0, -335.0, -328.0, -328.0, -328.0, -328.0, -329.0, -329.0, -334.0, -334.0, -335.0, -343.0, -354.0, -356.0, -357.0, -350.0, -340.0, -325.0, -301.0, -263.0, -162.0, -120.0, -13.0, 40.0, 94.0, 145.0, 185.0, 235.0, 303.0, 324.0, 369.0, 405.0, 447.0, 456.0, 472.0, 474.0, 476.0, 476.0, 476.0, 476.0]	[0.00844362949283095, 0.019849622212859686, 0.02400842683528026, 0.031086654960745363, 0.049549030476555345, 0.06303852150813327, 0.0836417393256852, 0.09794496888389403, 0.11287829966749996, 0.1312177952058846, 0.15058367990059196, 0.16292731512658065, 0.1827772104061296, 0.19807337846214068, 0.2128213652777049, 0.23121376747258182, 0.24978024963638745, 0.2630178367107874, 0.28254448937877896, 0.2979717294128932, 0.31562309706714586, 0.3312271477370814, 0.3488812460564077, 0.3631646782869211, 0.38257459497435775, 0.3981957123069151, 0.4142076562420698, 0.4311210613541334, 0.448756386345849, 0.4629964692485373, 0.4809321675202227, 0.49787526862928644, 0.5126420287760993, 0.5343631130690483, 0.5495606358072109, 0.563003364180986, 0.5822671902260481, 0.5975210329561378, 0.6131131369620562, 0.6307648459496704, 0.6479117230228439, 0.6630409791068814, 0.6811678240137553, 0.6974084612411389, 0.7129933972482831, 0.731030130171348, 0.7479390979515301, 0.7629703913862613, 0.7810535456337675, 0.807565242441342, 0.8125804522533144, 0.8407397647806647]
35	海鸥	True	inanimate	animate	right	0.873	[0.0, 0.0, 0.0, 0.0, 0.0, 0.0, 0.0, 0.0, 0.0, 0.0, -3.0, -14.0, -22.0, -28.0, -37.0, -48.0, -57.0, -72.0, -74.0, -78.0, -78.0, -78.0, -78.0, -78.0, -78.0, -78.0, -78.0, -79.0, -79.0, -76.0, -75.0, -51.0, -47.0, -39.0, -1.0, 77.0, 108.0, 239.0, 283.0, 377.0, 468.0, 583.0, 613.0, 678.0, 711.0, 730.0, 741.0, 749.0, 754.0, 754.0, 754.0, 754.0, 754.0]	[-490.0, -490.0, -490.0, -490.0, -490.0, -490.0, -490.0, -490.0, -490.0, -490.0, -479.0, -443.0, -422.0, -408.0, -397.0, -386.0, -380.0, -371.0, -371.0, -371.0, -371.0, -371.0, -371.0, -371.0, -371.0, -371.0, -373.0, -384.0, -388.0, -390.0, -390.0, -371.0, -365.0, -356.0, -304.0, -211.0, -186.0, -72.0, -36.0, 46.0, 121.0, 226.0, 262.0, 339.0, 377.0, 398.0, 412.0, 420.0, 426.0, 427.0, 427.0, 427.0, 427.0]	[0.01247955413600721, 0.016707990747818258, 0.02344488559901947, 0.04219227439898532, 0.05857319960341556, 0.07389530898763041, 0.09181667126358661, 0.10881540969421621, 0.123498543189271, 0.14198788403336948, 0.1583804145684553, 0.17374348394696426, 0.191739256875735, 0.208769056636811, 0.22336344347968407, 0.24194323764095316, 0.25825009352411143, 0.27370361622161, 0.2917181624798104, 0.3070133065357368, 0.32361712236888707, 0.3419941645661311, 0.3583313991111936, 0.37374839914627955, 0.3916591800898459, 0.40857497453544056, 0.4233775746761239, 0.44203007282703766, 0.4584901873513445, 0.4735388887820591, 0.5014797480143898, 0.5084306588269101, 0.5234346455999912, 0.5423113997112523, 0.5670642061541002, 0.5733365464166127, 0.5996089685995685, 0.6084713457530597, 0.6233435778813146, 0.6418759267198766, 0.6616701846742217, 0.6734844119910122, 0.6941644297949097, 0.7083785713693942, 0.7235778007761837, 0.7420289122928807, 0.7587337627755915, 0.773568448243168, 0.7915276985113451, 0.8086069915971166, 0.8234075437376305, 0.8419521805735712, 0.8621932437854412]
36	大象	True	inanimate	animate	right	0.903	[0.0, 0.0, 0.0, 0.0, 0.0, 0.0, 0.0, 0.0, 0.0, 0.0, 0.0, 1.0, 6.0, 12.0, 15.0, 16.0, 16.0, 16.0, 16.0, 16.0, 16.0, 16.0, 16.0, 16.0, 16.0, 16.0, 16.0, 16.0, 20.0, 23.0, 45.0, 81.0, 158.0, 192.0, 324.0, 429.0, 526.0, 620.0, 703.0, 775.0, 827.0, 853.0, 870.0, 874.0, 876.0, 879.0, 880.0, 880.0, 882.0, 882.0, 882.0, 880.0, 876.0, 874.0, 874.0]	[-490.0, -490.0, -490.0, -490.0, -490.0, -490.0, -490.0, -490.0, -490.0, -490.0, -490.0, -501.0, -519.0, -539.0, -539.0, -539.0, -539.0, -539.0, -539.0, -539.0, -539.0, -539.0, -539.0, -518.0, -506.0, -464.0, -434.0, -406.0, -358.0, -338.0, -277.0, -211.0, -113.0, -83.0, 8.0, 67.0, 134.0, 194.0, 238.0, 281.0, 305.0, 318.0, 329.0, 333.0, 336.0, 342.0, 346.0, 351.0, 357.0, 366.0, 374.0, 384.0, 393.0, 396.0, 396.0]	[0.015975148206052836, 0.021544000588619383, 0.030214548442017986, 0.04862333463461255, 0.06543502243039256, 0.08040385187632637, 0.09876724074274534, 0.1151607952779159, 0.13061431797359546, 0.14863057089860376, 0.16538969337307208, 0.1802847948310955, 0.19861473303535604, 0.22434477664319274, 0.2313796554426517, 0.2566226164690306, 0.2653583589781192, 0.28018109778167855, 0.2987639639432018, 0.3235532930466434, 0.3301881292463804, 0.3483842648074642, 0.36551646455154696, 0.38026069670013385, 0.39879645887049264, 0.4151374480825325, 0.4304629708003631, 0.4545723640185315, 0.4654055995033559, 0.4803361996218882, 0.4988316844646761, 0.5177538359021128, 0.5304155937410542, 0.5484738306586223, 0.5653544677788886, 0.5802618572342908, 0.5987177474180498, 0.6166138510307064, 0.6304873419958312, 0.6493135787823121, 0.665393789371592, 0.6829349063773407, 0.6988652716590877, 0.7160974820508272, 0.730573767581518, 0.7493030657169584, 0.7653672336437012, 0.781136830952164, 0.7986168493007426, 0.8161112036486884, 0.8306714571644989, 0.8483166808200622, 0.8651078886196046, 0.8802125687088846, 0.8984479575974547]
37	天鹅	True	animate	inanimate	left	1.149	[0.0, 0.0, 0.0, 0.0, 0.0, 0.0, 0.0, 0.0, 0.0, 3.0, 3.0, 3.0, 3.0, 3.0, 3.0, 3.0, -9.0, -21.0, -32.0, -40.0, -44.0, -50.0, -53.0, -53.0, -53.0, -53.0, -57.0, -79.0, -98.0, -98.0, -98.0, -89.0, -83.0, -62.0, -37.0, 10.0, 83.0, 211.0, 255.0, 335.0, 450.0, 504.0, 526.0, 581.0, 603.0, 617.0, 624.0, 627.0, 627.0, 626.0, 619.0, 561.0, 469.0, 347.0, 271.0, 15.0, -174.0, -342.0, -487.0, -590.0, -649.0, -669.0, -671.0, -671.0, -671.0, -671.0, -671.0, -671.0, -671.0, -671.0]	[-490.0, -490.0, -490.0, -490.0, -490.0, -490.0, -490.0, -490.0, -485.0, -459.0, -408.0, -386.0, -345.0, -298.0, -284.0, -260.0, -230.0, -215.0, -206.0, -204.0, -204.0, -210.0, -218.0, -218.0, -218.0, -218.0, -224.0, -279.0, -312.0, -317.0, -317.0, -316.0, -312.0, -297.0, -276.0, -238.0, -177.0, -63.0, -27.0, 35.0, 154.0, 214.0, 239.0, 303.0, 329.0, 345.0, 355.0, 361.0, 361.0, 365.0, 365.0, 366.0, 366.0, 366.0, 366.0, 366.0, 366.0, 370.0, 387.0, 401.0, 415.0, 422.0, 424.0, 424.0, 424.0, 424.0, 424.0, 424.0, 424.0, 424.0]	[0.007499842986362637, 0.01172793826481211, 0.015864214892644668, 0.032917566648393404, 0.04911587854985555, 0.07209716529541765, 0.08180980363795243, 0.09902836069886689, 0.11404873146784666, 0.13263091496446577, 0.14861555223615142, 0.16401412027516926, 0.18184195723188168, 0.19887824232500861, 0.21367879446552251, 0.23217564464175666, 0.24865453249549319, 0.2639732285479113, 0.2818430494990025, 0.29890629991859896, 0.3136877373963216, 0.3323596915433882, 0.3486771287589363, 0.3640111848089873, 0.38203119239915395, 0.39885312019578123, 0.41387314963139943, 0.4323013918201468, 0.45870215531431313, 0.4637344317889074, 0.4910776164560957, 0.4986924204895331, 0.5135858152807486, 0.5321891614385095, 0.5484850946577353, 0.5639949373435229, 0.5887450131194782, 0.598621832767094, 0.6136039742104913, 0.6323295176825923, 0.6543659939216013, 0.6637588029843755, 0.6857263299025362, 0.6987768663420866, 0.7137665171158005, 0.7324203806001606, 0.7496181163314759, 0.7670015373641945, 0.7881461097549618, 0.798577937308437, 0.8162074596330058, 0.8321507955788547, 0.8493000619855593, 0.8639633981492807, 0.882505986985052, 0.8987469655457971, 0.9140325522712374, 0.9319443572148884, 0.9485034583885863, 0.9638839357630786, 0.9817165513868531, 0.9983876098740438, 1.0137527272527223, 1.0318334921666974, 1.0486086573037028, 1.0639311080212792, 1.0816729289945215, 1.0984020141386281, 1.114801030007584, 1.1318134217708575]
38	橡皮	False	animate	inanimate	right	0.851	[0.0, 0.0, 0.0, 0.0, 0.0, 0.0, 0.0, 0.0, 0.0, 0.0, 14.0, 42.0, 82.0, 124.0, 169.0, 213.0, 311.0, 334.0, 360.0, 429.0, 488.0, 507.0, 536.0, 562.0, 588.0, 600.0, 608.0, 615.0, 620.0, 622.0, 623.0, 625.0, 628.0, 630.0, 633.0, 634.0, 638.0, 643.0, 647.0, 650.0, 662.0, 671.0, 683.0, 700.0, 716.0, 730.0, 745.0, 749.0, 750.0, 750.0, 750.0, 750.0]	[-490.0, -490.0, -490.0, -490.0, -490.0, -490.0, -490.0, -490.0, -490.0, -490.0, -461.0, -418.0, -372.0, -322.0, -284.0, -246.0, -154.0, -131.0, -105.0, -28.0, 41.0, 61.0, 103.0, 139.0, 175.0, 196.0, 213.0, 228.0, 240.0, 246.0, 248.0, 257.0, 264.0, 268.0, 273.0, 275.0, 280.0, 286.0, 289.0, 291.0, 301.0, 308.0, 318.0, 330.0, 344.0, 357.0, 368.0, 374.0, 376.0, 376.0, 376.0, 376.0]	[0.01455724978040962, 0.019878976871041232, 0.03465427035007451, 0.0456264284766803, 0.06279276154782565, 0.07736086572731438, 0.09595260655441962, 0.11224649177347601, 0.12734536919742823, 0.14582822470947576, 0.1627061311628495, 0.17725819267798215, 0.19601923481059202, 0.21234145069138322, 0.22775469606131082, 0.24574534898965794, 0.2623675968206953, 0.2774036689206696, 0.2959619590874354, 0.3220227546389651, 0.3271663057603291, 0.34550204663173645, 0.36254891305543424, 0.3772661798775516, 0.39580467271298403, 0.4120378006100509, 0.4275845072897937, 0.45099655662670557, 0.4623004906989081, 0.47724201348137285, 0.4957668529859802, 0.5189921930232231, 0.5273422289319569, 0.5522066513549362, 0.5625623615869699, 0.5772833830742456, 0.5958679559025768, 0.61651759504457, 0.6274296785159095, 0.6492422401261138, 0.6623804992177611, 0.6775135099687759, 0.6959523334880942, 0.7143034343571344, 0.727647517413061, 0.7485398445132887, 0.7625519167886523, 0.7778586661770532, 0.7957929991152923, 0.813804132041696, 0.8276004816871136, 0.8468492890679045]
39	卡车	False	animate	inanimate	right	0.867	[0.0, 0.0, 0.0, 0.0, 0.0, 0.0, 0.0, 0.0, 0.0, 0.0, 9.0, 11.0, 15.0, 20.0, 26.0, 30.0, 39.0, 48.0, 55.0, 62.0, 68.0, 74.0, 83.0, 93.0, 111.0, 127.0, 147.0, 160.0, 215.0, 257.0, 301.0, 342.0, 387.0, 425.0, 447.0, 466.0, 482.0, 496.0, 512.0, 519.0, 536.0, 551.0, 570.0, 598.0, 641.0, 685.0, 715.0, 740.0, 747.0, 760.0, 762.0, 762.0, 762.0]	[-490.0, -490.0, -490.0, -490.0, -490.0, -490.0, -490.0, -490.0, -483.0, -475.0, -447.0, -439.0, -418.0, -395.0, -356.0, -344.0, -304.0, -276.0, -245.0, -211.0, -173.0, -135.0, -97.0, -69.0, -31.0, -3.0, 22.0, 35.0, 73.0, 97.0, 118.0, 135.0, 162.0, 185.0, 202.0, 215.0, 228.0, 241.0, 262.0, 268.0, 288.0, 300.0, 315.0, 332.0, 351.0, 371.0, 388.0, 408.0, 415.0, 426.0, 428.0, 428.0, 428.0]	[0.01509689768863609, 0.029862292502002674, 0.035585427525802515, 0.05823289032741741, 0.0708652935045393, 0.08561840032052714, 0.10442415711077047, 0.1280758224074816, 0.13575786909677845, 0.16094758213148452, 0.1709517190902261, 0.18562324725280632, 0.2042952013998729, 0.22520561916462611, 0.23576237469569605, 0.25964409861990134, 0.2709340380260983, 0.28564755018123833, 0.3041467896910035, 0.3218869039974379, 0.33608397890748165, 0.3560854261613713, 0.370948100957321, 0.38862370327478857, 0.404209321946837, 0.42197571891483676, 0.4359690178607707, 0.4553891745454166, 0.47100892654634663, 0.48653822523010604, 0.5040103929150064, 0.5211767259843327, 0.5361844674243912, 0.5541502030246193, 0.570884066835788, 0.5858539202799875, 0.6037537785578024, 0.6227383939858555, 0.6359141997363622, 0.6559241803206532, 0.670649980474991, 0.6889068733598833, 0.7038992548004899, 0.7217475717534398, 0.7359204120020877, 0.7547698594516987, 0.7705855367530603, 0.7861206381003285, 0.8037498190933547, 0.8210421041421796, 0.8357334296342742, 0.8541783971522818, 0.8705695623557403]
40	信封	False	animate	inanimate	right	0.852	[0.0, 0.0, 0.0, 0.0, 0.0, 0.0, 0.0, 0.0, 0.0, 0.0, 0.0, 1.0, 3.0, 8.0, 15.0, 17.0, 27.0, 36.0, 40.0, 66.0, 84.0, 106.0, 135.0, 170.0, 212.0, 252.0, 291.0, 321.0, 356.0, 384.0, 384.0, 421.0, 429.0, 450.0, 477.0, 509.0, 519.0, 556.0, 566.0, 588.0, 609.0, 634.0, 649.0, 658.0, 673.0, 689.0, 709.0, 730.0, 751.0, 760.0, 760.0, 760.0]	[-490.0, -490.0, -490.0, -490.0, -490.0, -490.0, -490.0, -490.0, -490.0, -490.0, -490.0, -489.0, -484.0, -475.0, -466.0, -463.0, -446.0, -429.0, -421.0, -378.0, -342.0, -300.0, -252.0, -198.0, -140.0, -92.0, -49.0, -16.0, 28.0, 65.0, 65.0, 103.0, 111.0, 130.0, 154.0, 181.0, 190.0, 221.0, 228.0, 244.0, 257.0, 275.0, 286.0, 293.0, 303.0, 313.0, 328.0, 343.0, 356.0, 362.0, 362.0, 362.0]	[0.014183831179252593, 0.019384384957447764, 0.026396394427138148, 0.04467752197524533, 0.06144278844658402, 0.07946040670503862, 0.09474292143022467, 0.11296499831951223, 0.12672380130425154, 0.14587328070410877, 0.16163059001519287, 0.17759235795710993, 0.19488600833938108, 0.21194311476028815, 0.22665423758371617, 0.2450916957695881, 0.26142722364966176, 0.276814186356205, 0.29483555927981797, 0.3117830977207632, 0.3265153832071519, 0.3450337373797083, 0.3614525505781785, 0.37674598796729697, 0.39458406492303766, 0.41169749133587175, 0.4264488914850517, 0.4451020723026886, 0.468696393609207, 0.47646172561690037, 0.5017866066282295, 0.5113920663225144, 0.5264568104175851, 0.5453045512003882, 0.5678018273611087, 0.5765519058677455, 0.5948043614189373, 0.6116133185514627, 0.626581806662216, 0.6449554355276632, 0.664530216186904, 0.6766451581188448, 0.697267490599188, 0.7116144108167646, 0.7266521895835467, 0.7450770184386784, 0.7629830207170016, 0.7768664103477931, 0.7960858630667644, 0.8117192683985195, 0.8277226790014538, 0.8451262386970484]
41	鸡蛋	False	inanimate	animate	right	0.908	[0.0, 0.0, 0.0, 0.0, 0.0, 0.0, 0.0, 0.0, 0.0, 0.0, 0.0, 0.0, 1.0, 4.0, 5.0, 9.0, 13.0, 16.0, 19.0, 19.0, 22.0, 29.0, 35.0, 53.0, 80.0, 116.0, 160.0, 216.0, 274.0, 351.0, 376.0, 422.0, 440.0, 454.0, 463.0, 474.0, 486.0, 502.0, 523.0, 543.0, 557.0, 579.0, 587.0, 612.0, 655.0, 655.0, 679.0, 718.0, 753.0, 796.0, 808.0, 811.0, 811.0, 811.0]	[-490.0, -490.0, -490.0, -490.0, -490.0, -490.0, -490.0, -490.0, -490.0, -490.0, -490.0, -486.0, -481.0, -468.0, -463.0, -446.0, -421.0, -378.0, -363.0, -318.0, -283.0, -249.0, -210.0, -170.0, -124.0, -75.0, -32.0, 13.0, 53.0, 109.0, 127.0, 157.0, 172.0, 180.0, 186.0, 194.0, 202.0, 212.0, 223.0, 234.0, 243.0, 254.0, 259.0, 272.0, 298.0, 298.0, 312.0, 330.0, 353.0, 381.0, 390.0, 396.0, 396.0, 396.0]	[0.013949369353213115, 0.018656355217899545, 0.025893644649841008, 0.04334294300497277, 0.06981060781981796, 0.07606280941945442, 0.1017351677055558, 0.11125802474634838, 0.12607564355130307, 0.1452537949444377, 0.16392609042486583, 0.17636188563483302, 0.20018080423687934, 0.21125433834822616, 0.22614534380591067, 0.24466847664552915, 0.26517031847834005, 0.2762930045810208, 0.29648286780138733, 0.3113373506002972, 0.32907575823992374, 0.34475387822931225, 0.3625216405307583, 0.3766187047913263, 0.3956497415438207, 0.41122409621857514, 0.428725618565295, 0.44452730120246997, 0.4618328982487583, 0.4765030610778922, 0.4950603272445733, 0.5111555564981245, 0.5270063911248144, 0.5445068894714495, 0.5610632599800738, 0.5763495293704182, 0.5943173129708157, 0.6113003500722698, 0.6260602835536702, 0.6441154484728031, 0.6625242346635787, 0.6759246377096133, 0.6955581276924931, 0.712069783541665, 0.7307745056823478, 0.7442189407211117, 0.7614470551143313, 0.7765940605295327, 0.7953824093219737, 0.8108533400154556, 0.8262116307287215, 0.8452952328043466, 0.8651389840852062, 0.8763272061751195]
42	饭店	False	inanimate	animate	left	1.086	[0.0, 0.0, 0.0, 0.0, 0.0, 0.0, 1.0, 0.0, -1.0, -2.0, -3.0, 4.0, 10.0, 30.0, 31.0, 27.0, 25.0, 25.0, 25.0, 25.0, 25.0, 25.0, 25.0, 4.0, 4.0, 13.0, 13.0, 13.0, 17.0, 27.0, 40.0, 51.0, 76.0, 114.0, 173.0, 215.0, 233.0, 294.0, 339.0, 379.0, 445.0, 520.0, 520.0, 531.0, 549.0, 549.0, 549.0, 544.0, 527.0, 428.0, 260.0, 177.0, -98.0, -206.0, -398.0, -575.0, -771.0, -812.0, -866.0, -872.0, -872.0, -872.0, -872.0, -872.0, -872.0, -872.0]	[-490.0, -490.0, -490.0, -490.0, -490.0, -490.0, -489.0, -484.0, -474.0, -470.0, -445.0, -427.0, -417.0, -389.0, -382.0, -378.0, -378.0, -378.0, -378.0, -378.0, -378.0, -378.0, -378.0, -403.0, -404.0, -409.0, -411.0, -411.0, -406.0, -389.0, -364.0, -338.0, -300.0, -245.0, -170.0, -119.0, -94.0, -18.0, 35.0, 79.0, 137.0, 202.0, 202.0, 212.0, 242.0, 242.0, 245.0, 247.0, 250.0, 251.0, 251.0, 251.0, 251.0, 251.0, 251.0, 264.0, 293.0, 306.0, 330.0, 340.0, 347.0, 355.0, 358.0, 359.0, 359.0, 359.0]	[0.014864791060972493, 0.019772480889514554, 0.027905770168217714, 0.04606538306870789, 0.06320338547811843, 0.0778076709848392, 0.09644003047287697, 0.11295373432039924, 0.1281935823863023, 0.1461630726516887, 0.1631771710817702, 0.17808285387218348, 0.19653806138921937, 0.21281897594417387, 0.2283240399628994, 0.2460996529298427, 0.2633066046601016, 0.2781723514563055, 0.2967357616216759, 0.312983225514472, 0.32838418288702087, 0.3460294065425842, 0.36371900352241937, 0.37818982771932497, 0.39643989393880474, 0.41268838183168555, 0.42816511519049527, 0.446050637472581, 0.46317430388262437, 0.4778219387153513, 0.4964474715379765, 0.5128860820659611, 0.5281863461204921, 0.5462749616999645, 0.5632453694706783, 0.5780633296089945, 0.596422281141713, 0.6126833983671531, 0.6281864143875282, 0.6558378230020026, 0.6816426185978344, 0.6901745851409942, 0.6964086960779241, 0.7227599662473949, 0.7278533413773403, 0.7538284622769424, 0.762881303398899, 0.77779688485316, 0.796301927028253, 0.8182148406231136, 0.8279646842911461, 0.8523229094680573, 0.8630749076328357, 0.8778505424452305, 0.8965255685907323, 0.9164877625171357, 0.9280715898730705, 0.9462885467637534, 0.9629712105834187, 0.9780270800147264, 0.9964638555338752, 1.0149637777103635, 1.028255636774702, 1.0475399428178207, 1.0630378388395911, 1.0808806944605749]
43	香蕉	False	animate	inanimate	right	0.925	[0.0, 0.0, 0.0, 0.0, 0.0, 0.0, 0.0, 1.0, 6.0, 19.0, 44.0, 60.0, 69.0, 79.0, 81.0, 81.0, 81.0, 77.0, 68.0, 64.0, 64.0, 63.0, 50.0, 6.0, -11.0, -35.0, -37.0, -37.0, -34.0, -13.0, -6.0, 14.0, 42.0, 80.0, 152.0, 197.0, 216.0, 265.0, 285.0, 305.0, 333.0, 369.0, 416.0, 460.0, 539.0, 558.0, 597.0, 604.0, 619.0, 634.0, 657.0, 657.0, 671.0, 671.0, 671.0]	[-490.0, -490.0, -490.0, -490.0, -490.0, -490.0, -482.0, -464.0, -437.0, -393.0, -306.0, -247.0, -214.0, -159.0, -144.0, -135.0, -130.0, -125.0, -124.0, -124.0, -124.0, -124.0, -133.0, -171.0, -185.0, -205.0, -210.0, -210.0, -209.0, -199.0, -194.0, -178.0, -153.0, -122.0, -64.0, -32.0, -17.0, 20.0, 39.0, 60.0, 80.0, 106.0, 140.0, 174.0, 226.0, 239.0, 273.0, 283.0, 302.0, 322.0, 347.0, 347.0, 362.0, 363.0, 363.0]	[0.009174082699246355, 0.013763991250016261, 0.019407595618758933, 0.03552432886863244, 0.05492468822376395, 0.06737993943170295, 0.0866707308068726, 0.10224884014860436, 0.117160666935888, 0.13549060514196754, 0.15387754600305925, 0.16731344770960277, 0.18744596694159554, 0.20224105774832424, 0.22016242002428044, 0.23557566539420804, 0.2532389797124779, 0.2674657506177027, 0.2864322753812303, 0.3023029073392536, 0.31858279789412336, 0.33559314165722753, 0.3529287760320585, 0.3673036855780083, 0.3862794263404794, 0.40227669294290536, 0.41721343706012703, 0.4355723885946645, 0.45572402248762955, 0.46718838319793576, 0.4862033772860741, 0.5021815292257088, 0.5169578467048268, 0.5354461635488406, 0.5527517605951289, 0.5673178167762671, 0.5853446510336653, 0.6020170748543023, 0.6196933598366741, 0.6355018691392615, 0.6516930130419496, 0.6671059170785156, 0.6873247936273401, 0.7028629669766815, 0.7174389218216675, 0.7355353880666371, 0.7516988839743135, 0.7670469346885511, 0.7850826436115312, 0.8054230348061537, 0.821486861397716, 0.835705440304082, 0.8518105682232999, 0.8673033442446467, 0.8879342100572103]
44	樱桃	False	animate	inanimate	right	0.855	[0.0, 0.0, 0.0, 0.0, 0.0, 0.0, 0.0, 5.0, 13.0, 25.0, 37.0, 50.0, 55.0, 55.0, 55.0, 49.0, 43.0, 27.0, 24.0, 14.0, 14.0, 14.0, 14.0, 12.0, 11.0, 10.0, 12.0, 21.0, 22.0, 28.0, 34.0, 48.0, 72.0, 121.0, 195.0, 287.0, 379.0, 453.0, 524.0, 592.0, 684.0, 714.0, 761.0, 818.0, 837.0, 842.0, 855.0, 857.0, 857.0, 857.0, 857.0, 857.0]	[-490.0, -490.0, -490.0, -490.0, -490.0, -490.0, -490.0, -474.0, -454.0, -425.0, -399.0, -357.0, -321.0, -294.0, -267.0, -249.0, -236.0, -213.0, -207.0, -200.0, -200.0, -200.0, -200.0, -200.0, -202.0, -215.0, -239.0, -255.0, -256.0, -256.0, -256.0, -248.0, -232.0, -201.0, -162.0, -119.0, -61.0, -6.0, 48.0, 108.0, 210.0, 246.0, 300.0, 370.0, 396.0, 407.0, 428.0, 433.0, 435.0, 435.0, 435.0, 435.0]	[0.013415148641797714, 0.017968193198612425, 0.02486790401962935, 0.0436576181473356, 0.06250365226333088, 0.07522207142756088, 0.09355439896535245, 0.11018756945850328, 0.12510554024629528, 0.14368840640781855, 0.1607868141563813, 0.17529211301553005, 0.19681181067608122, 0.21022381905277143, 0.22515305383785744, 0.2435946080240683, 0.26197642888655537, 0.2753259732762672, 0.29483726594480686, 0.3101747353284736, 0.32637031656486215, 0.343484766975962, 0.3606275480506156, 0.37529293221450644, 0.393636523751411, 0.4102669635794882, 0.4254061183291924, 0.4433728779295052, 0.4598534724500496, 0.475054408521828, 0.49567162100356654, 0.5098297839194856, 0.5278989435028052, 0.5432705462135345, 0.5614243564486969, 0.5752108074284479, 0.5944534708105493, 0.6099537561658508, 0.6254724735172204, 0.6432545718162146, 0.6603427395657491, 0.6749197184108198, 0.6934145205887035, 0.7099312964364799, 0.7254564991199004, 0.7431338081023569, 0.760211735854682, 0.7751942186314409, 0.793589692824753, 0.809928975369985, 0.8253227647419408, 0.8468059397437173]
45	蝌蚪	True	inanimate	animate	right	0.799	[0.0, 0.0, 0.0, 0.0, 0.0, 0.0, 0.0, 0.0, 10.0, 21.0, 37.0, 46.0, 55.0, 60.0, 63.0, 63.0, 53.0, 47.0, 46.0, 46.0, 46.0, 46.0, 46.0, 46.0, 46.0, 46.0, 46.0, 46.0, 56.0, 69.0, 79.0, 94.0, 120.0, 175.0, 246.0, 331.0, 409.0, 482.0, 562.0, 587.0, 646.0, 674.0, 705.0, 734.0, 756.0, 772.0, 780.0, 780.0, 780.0]	[-490.0, -490.0, -490.0, -490.0, -490.0, -490.0, -490.0, -490.0, -470.0, -442.0, -404.0, -364.0, -325.0, -291.0, -237.0, -221.0, -188.0, -180.0, -180.0, -180.0, -180.0, -180.0, -180.0, -180.0, -180.0, -199.0, -219.0, -220.0, -222.0, -222.0, -214.0, -201.0, -179.0, -140.0, -87.0, -20.0, 48.0, 116.0, 209.0, 237.0, 312.0, 351.0, 389.0, 421.0, 443.0, 456.0, 463.0, 463.0, 463.0]	[0.008395160166401183, 0.013696748594156816, 0.01804362785333069, 0.03401939045943436, 0.050356283671135316, 0.065731641047023, 0.08360589932999574, 0.10059200843170402, 0.11548574455628113, 0.13368973078286217, 0.1501331199760898, 0.16565456799435196, 0.18360972226400918, 0.2004313087254559, 0.21550322081930062, 0.2336624923882482, 0.25028439888410503, 0.26565668425973854, 0.2835671238699433, 0.30045322232217586, 0.31531453178649826, 0.3335188593446219, 0.35025920848784153, 0.36567654985628906, 0.383522477477527, 0.4005744639016484, 0.41551530401739, 0.4396854545593669, 0.45030467408105324, 0.4657851621050213, 0.483560433738603, 0.5005117268447066, 0.5154798736239172, 0.533664745187707, 0.5501187157115055, 0.5656521103937848, 0.5835314886771812, 0.6004428457908944, 0.6154877925564506, 0.6336494534571102, 0.6502218666282715, 0.6656726586570585, 0.6833991196326679, 0.700519714044276, 0.7155305274827697, 0.7336710257186496, 0.7499628629393555, 0.7656508815944107, 0.7833503772417316]
