trialIndex	stimulus	isAnimate	left_option	right_option	response	response_time	xTrajectory	yTrajectory	tTrajectory
0	乌鸦	True	animate	inanimate	left	2.069	[0.0, 0.0, 0.0, 0.0, 0.0, 0.0, 0.0, 0.0, 0.0, 0.0, 0.0, 0.0, 0.0, 0.0, 0.0, 0.0, 0.0, 0.0, 0.0, 0.0, 0.0, 0.0, 0.0, 0.0, 0.0, 0.0, 0.0, 0.0, 0.0, -3.0, -5.0, -7.0, -7.0, -7.0, -7.0, -7.0, -7.0, -7.0, -7.0, -7.0, -7.0, -7.0, -7.0, -7.0, -7.0, -7.0, -7.0, -7.0, -7.0, -7.0, -7.0, -7.0, -7.0, -7.0, -7.0, -7.0, -7.0, -7.0, -7.0, -7.0, -7.0, -7.0, -7.0, -7.0, -7.0, -7.0, -7.0, -7.0, -7.0, -7.0, -7.0, -18.0, -49.0, -151.0, -313.0, -385.0, -534.0, -682.0, -808.0, -897.0, -947.0, -959.0, -960.0, -960.0, -960.0, -960.0, -960.0, -960.0, -960.0, -960.0, -960.0, -960.0, -960.0, -960.0, -960.0, -960.0, -957.0, -948.0, -937.0, -924.0, -916.0, -912.0, -907.0, -903.0, -899.0, -899.0, -898.0, -896.0, -892.0, -857.0, -808.0, -761.0, -739.0, -733.0, -733.0, -733.0, -733.0, -748.0, -796.0, -828.0, -842.0, -844.0, -844.0, -844.0]	[-490.0, -490.0, -490.0, -490.0, -490.0, -490.0, -490.0, -490.0, -490.0, -490.0, -490.0, -490.0, -490.0, -490.0, -490.0, -490.0, -490.0, -490.0, -490.0, -490.0, -490.0, -490.0, -490.0, -490.0, -490.0, -490.0, -490.0, -490.0, -487.0, -484.0, -483.0, -482.0, -482.0, -482.0, -482.0, -482.0, -482.0, -482.0, -482.0, -482.0, -482.0, -482.0, -482.0, -482.0, -482.0, -482.0, -482.0, -482.0, -482.0, -482.0, -482.0, -482.0, -482.0, -482.0, -482.0, -482.0, -482.0, -482.0, -482.0, -482.0, -482.0, -482.0, -482.0, -482.0, -482.0, -482.0, -482.0, -482.0, -482.0, -482.0, -482.0, -476.0, -460.0, -369.0, -202.0, -132.0, 17.0, 171.0, 306.0, 406.0, 462.0, 483.0, 491.0, 492.0, 492.0, 492.0, 492.0, 492.0, 492.0, 492.0, 492.0, 492.0, 492.0, 492.0, 492.0, 492.0, 492.0, 485.0, 476.0, 469.0, 463.0, 460.0, 454.0, 450.0, 447.0, 447.0, 445.0, 442.0, 440.0, 415.0, 384.0, 357.0, 348.0, 348.0, 348.0, 348.0, 361.0, 385.0, 440.0, 470.0, 480.0, 483.0, 483.0, 483.0]	[0.012234165449626744, 0.017746013298165053, 0.022552325506694615, 0.04123246527160518, 0.06457385065732524, 0.07265866786474362, 0.09760363641544245, 0.10782451651175506, 0.12263086627353914, 0.14119017409393564, 0.1575632430613041, 0.1730536244576797, 0.19702647617668845, 0.20784127595834434, 0.2226134923985228, 0.24124106686213054, 0.264229855092708, 0.27263586680055596, 0.296819662413327, 0.30784301678068005, 0.3226285451964941, 0.3414042582444381, 0.3612292294274084, 0.373396732553374, 0.3947587269358337, 0.4077785389381461, 0.4227606752538122, 0.4412124631635379, 0.4601274401356932, 0.47306942817522213, 0.4924940155760851, 0.5079441196576227, 0.5256647719070315, 0.5412541399418842, 0.5589461202034727, 0.5731152009393554, 0.5915693781571463, 0.6078233218577225, 0.622680188913364, 0.6409155715664383, 0.6591717755654827, 0.6728561632044148, 0.6917974228563253, 0.7077765933354385, 0.7231051828130148, 0.7410497496312018, 0.7587403645738959, 0.7734207623871043, 0.7917435263516381, 0.8076663768733852, 0.8236083420342766, 0.8409173465042841, 0.8579546497785486, 0.8728176608274225, 0.8912520407466218, 0.9076756269787438, 0.9232069683785085, 0.9409989592677448, 0.9579860865778755, 0.9728456843004096, 0.9912541228695773, 1.007707746437518, 1.0230141492793337, 1.0410324440454133, 1.0578741634089965, 1.0728709770774003, 1.0912248023378197, 1.107612548628822, 1.1231650526460726, 1.1410348674980924, 1.1584746025910135, 1.172751203266671, 1.1911511085054372, 1.2116150553629268, 1.2226885856944136, 1.2409632216731552, 1.2578086957219057, 1.272736560087651, 1.2910234840528574, 1.3073057583824266, 1.3228739637415856, 1.345409802859649, 1.3578380845137872, 1.3726304396113846, 1.3911774594453163, 1.4138518798281439, 1.4227217632869724, 1.4465857297473121, 1.4578787372738589, 1.4726304737268947, 1.4911576962622348, 1.5075638745038304, 1.5236410076031461, 1.545015631330898, 1.5576678275247104, 1.5728151691146195, 1.5912727596587501, 1.6102512245997787, 1.6229402847820893, 1.6439158900466282, 1.6578190722502768, 1.6728902965260204, 1.6909860739251599, 1.7093596965423785, 1.722979230893543, 1.7463281255913898, 1.7577088557882234, 1.773627268965356, 1.7910895320237614, 1.8078046167793218, 1.8229867743502837, 1.8409388504805975, 1.8575863513106015, 1.8726886369113345, 1.890690206346335, 1.9089904423162807, 1.923326776304748, 1.9422229799674824, 1.957646460068645, 1.9739666223758832, 1.9906905818206724, 2.0084866686956957, 2.022808325389633, 2.0418755369610153]
1	老鹰	True	animate	inanimate	left	1.6	[0.0, 0.0, 0.0, 0.0, 0.0, 0.0, 0.0, 0.0, 0.0, 0.0, 0.0, 0.0, 0.0, 0.0, 0.0, -1.0, -2.0, -5.0, -10.0, -17.0, -25.0, -29.0, -31.0, -31.0, -31.0, -31.0, -35.0, -36.0, -54.0, -79.0, -114.0, -143.0, -198.0, -217.0, -282.0, -300.0, -319.0, -326.0, -328.0, -327.0, -297.0, -264.0, -226.0, -183.0, -74.0, -26.0, 121.0, 178.0, 297.0, 481.0, 585.0, 630.0, 716.0, 761.0, 786.0, 798.0, 800.0, 800.0, 794.0, 786.0, 769.0, 753.0, 725.0, 714.0, 678.0, 636.0, 546.0, 430.0, 276.0, 103.0, -77.0, -237.0, -364.0, -466.0, -492.0, -496.0, -500.0, -500.0, -500.0, -500.0, -500.0, -500.0, -500.0, -500.0, -500.0, -500.0, -500.0, -497.0, -486.0, -485.0, -494.0, -527.0, -599.0, -688.0, -780.0, -861.0, -880.0]	[-490.0, -490.0, -490.0, -490.0, -490.0, -491.0, -491.0, -491.0, -491.0, -491.0, -491.0, -491.0, -491.0, -491.0, -491.0, -491.0, -491.0, -491.0, -488.0, -482.0, -474.0, -471.0, -469.0, -466.0, -464.0, -458.0, -452.0, -447.0, -418.0, -391.0, -353.0, -327.0, -274.0, -251.0, -153.0, -119.0, -71.0, -35.0, 5.0, 18.0, 74.0, 121.0, 159.0, 187.0, 234.0, 246.0, 273.0, 279.0, 279.0, 279.0, 282.0, 288.0, 302.0, 311.0, 319.0, 326.0, 330.0, 333.0, 337.0, 338.0, 338.0, 338.0, 334.0, 333.0, 333.0, 333.0, 333.0, 333.0, 333.0, 333.0, 333.0, 333.0, 333.0, 344.0, 354.0, 357.0, 359.0, 359.0, 359.0, 359.0, 359.0, 359.0, 359.0, 359.0, 359.0, 359.0, 359.0, 356.0, 344.0, 342.0, 339.0, 345.0, 384.0, 443.0, 501.0, 540.0, 540.0]	[0.014482151513220742, 0.02045855377218686, 0.028476469684392214, 0.045684439537581056, 0.06363207835238427, 0.07751990057295188, 0.09658062679227442, 0.11230106675066054, 0.12784025879227556, 0.14570904965512455, 0.1627050516253803, 0.17746463872026652, 0.1959229119529482, 0.21239565016003326, 0.22758975438773632, 0.24550769722554833, 0.2625661631464027, 0.27758721145801246, 0.29589461541036144, 0.3123120576783549, 0.3278372550557833, 0.34540191807900555, 0.3624146453512367, 0.37725649375352077, 0.3958465215691831, 0.412307995808078, 0.4276219079911243, 0.44566375474096276, 0.4624061461654492, 0.47750672508846037, 0.49580320640234277, 0.5168078249844257, 0.5274062195676379, 0.5498553600627929, 0.5622727190493606, 0.5772258420474827, 0.5957220032287296, 0.6120404588873498, 0.6274799816601444, 0.6517856332066003, 0.6623973397654481, 0.6772323615150526, 0.6957647040253505, 0.7177984420850407, 0.7273974131676368, 0.7488553221628536, 0.7623444672790356, 0.7774733768601436, 0.7957084181834944, 0.8177042682655156, 0.8274930205661803, 0.8467588880448602, 0.8624786453437991, 0.880055937654106, 0.8958183616050519, 0.9132796006451827, 0.9278142492112238, 0.950550109584583, 0.9624100714863744, 0.9800778171047568, 0.9956675264693331, 1.0129266963049304, 1.0276337180985138, 1.0500849066011142, 1.0623575403296854, 1.0781831108906772, 1.0956255766213872, 1.1125010879768524, 1.127714989532251, 1.1453311938385013, 1.1621179585927166, 1.180262887966819, 1.1957211840490345, 1.2138941027515102, 1.2272217972495127, 1.2456670998071786, 1.2622750059817918, 1.27921741863247, 1.295568300934974, 1.3138384995691013, 1.327450524608139, 1.3460804883798119, 1.3622026774683036, 1.377701250865357, 1.3954075671499595, 1.4126145129848737, 1.4273109534697141, 1.4457238293834962, 1.4622672235709615, 1.4777425863139797, 1.495561201183591, 1.5124848405248486, 1.5275471901404671, 1.5456709568679798, 1.5621317484474275, 1.5775443058810197, 1.5956288192828652]
2	老鹰	True	inanimate	animate	right	1.013	[0.0, 0.0, 0.0, 0.0, 0.0, 0.0, 0.0, 0.0, 0.0, 0.0, 0.0, 0.0, 0.0, 0.0, 0.0, 0.0, 0.0, 0.0, 0.0, 0.0, 0.0, 0.0, 0.0, 0.0, 0.0, 0.0, -4.0, -10.0, -41.0, -70.0, -154.0, -250.0, -399.0, -448.0, -567.0, -643.0, -690.0, -709.0, -717.0, -724.0, -732.0, -741.0, -748.0, -748.0, -748.0, -748.0, -745.0, -738.0, -732.0, -684.0, -602.0, -463.0, -255.0, 9.0, 267.0, 504.0, 743.0, 802.0, 907.0, 914.0, 914.0, 914.0]	[-490.0, -490.0, -490.0, -490.0, -490.0, -490.0, -490.0, -490.0, -490.0, -490.0, -490.0, -490.0, -490.0, -490.0, -490.0, -490.0, -490.0, -490.0, -490.0, -490.0, -490.0, -490.0, -490.0, -490.0, -490.0, -490.0, -488.0, -481.0, -453.0, -435.0, -383.0, -305.0, -156.0, -101.0, 60.0, 163.0, 227.0, 265.0, 286.0, 303.0, 324.0, 342.0, 351.0, 354.0, 356.0, 357.0, 357.0, 355.0, 350.0, 331.0, 317.0, 313.0, 313.0, 313.0, 313.0, 344.0, 379.0, 389.0, 405.0, 408.0, 408.0, 408.0]	[0.009325290156994015, 0.013458493369398639, 0.018900709255831316, 0.03559941003913991, 0.05181546573294327, 0.06727512716315687, 0.08530673393397592, 0.10225324259954505, 0.11691042975871824, 0.14226636342937127, 0.1521551263576839, 0.16693451080936939, 0.1855112266202923, 0.2054682937450707, 0.21725384503952228, 0.24146187532460317, 0.2521367285226006, 0.2669495636073407, 0.2855249140993692, 0.3063356554193888, 0.31703918060520664, 0.3411390082910657, 0.35209682665299624, 0.36694550173706375, 0.3855570335290395, 0.40611655366956256, 0.41711123604909517, 0.43893027552985586, 0.45214771945029497, 0.4670803624612745, 0.48551952102570795, 0.504495937959291, 0.5171512061497197, 0.5404591409023851, 0.552045353630092, 0.5697035419289023, 0.585463917843299, 0.6034586606256198, 0.6174130428116769, 0.6364007237716578, 0.6521583690482657, 0.6686314486141782, 0.685274512070464, 0.7064368265855592, 0.7170632104680408, 0.7352067745232489, 0.7520092405902687, 0.7669586089323275, 0.7849704183754511, 0.803471358231036, 0.8171905618801247, 0.835787075018743, 0.8516372215817682, 0.867888434586348, 0.8852404470380861, 0.9022907209582627, 0.917204931989545, 0.9354894666466862, 0.9520499274949543, 0.9672815783706028, 0.9853165984677617, 1.00216719249147]
3	教室	False	animate	inanimate	right	1.261	[0.0, 0.0, 0.0, 0.0, 0.0, 0.0, 0.0, 0.0, 0.0, 0.0, 0.0, 0.0, 0.0, 0.0, 0.0, 0.0, 0.0, 0.0, 0.0, 0.0, 0.0, 0.0, 0.0, 0.0, 0.0, 0.0, 0.0, 0.0, 0.0, 0.0, 0.0, 0.0, 0.0, 0.0, 0.0, 0.0, 0.0, 0.0, 0.0, 0.0, 0.0, 0.0, 0.0, 0.0, 0.0, 0.0, 0.0, 0.0, 0.0, 7.0, 40.0, 73.0, 267.0, 320.0, 430.0, 530.0, 675.0, 706.0, 790.0, 805.0, 825.0, 831.0, 839.0, 841.0, 844.0, 844.0, 846.0, 846.0, 846.0, 846.0, 840.0, 838.0, 833.0, 829.0, 822.0, 820.0]	[-490.0, -490.0, -490.0, -490.0, -490.0, -490.0, -490.0, -490.0, -490.0, -490.0, -490.0, -490.0, -490.0, -490.0, -490.0, -490.0, -490.0, -490.0, -490.0, -490.0, -490.0, -490.0, -490.0, -490.0, -490.0, -490.0, -490.0, -490.0, -490.0, -490.0, -490.0, -490.0, -490.0, -490.0, -490.0, -490.0, -490.0, -490.0, -490.0, -490.0, -490.0, -490.0, -490.0, -490.0, -490.0, -490.0, -490.0, -490.0, -490.0, -477.0, -432.0, -393.0, -202.0, -151.0, -58.0, 27.0, 120.0, 145.0, 213.0, 229.0, 254.0, 268.0, 284.0, 287.0, 294.0, 296.0, 302.0, 311.0, 332.0, 340.0, 364.0, 371.0, 385.0, 400.0, 425.0, 431.0]	[0.013134909531800076, 0.017938491073437035, 0.025050167430890724, 0.04310259551857598, 0.05955792576423846, 0.07478855262161233, 0.09302803128957748, 0.1095799588074442, 0.1256174972804729, 0.14286710976739414, 0.16014983158675022, 0.17475274676689878, 0.19319839065428823, 0.20954551830072887, 0.22497207039850764, 0.24293541052611545, 0.2599119564983994, 0.27474117558449507, 0.29319774213945493, 0.3097274829924572, 0.3248970112472307, 0.3430156579706818, 0.35986079066060483, 0.37479821234592237, 0.3932155256043188, 0.40963535718037747, 0.42490557869314216, 0.44283000685391016, 0.45972736354451627, 0.4745330306177493, 0.49313875977532007, 0.5095507406804245, 0.5249561301316135, 0.5429689635930117, 0.559868709591683, 0.5747778006189037, 0.5931787298759446, 0.6095326841750648, 0.6249162282911129, 0.6429956216888968, 0.6597021731431596, 0.6745484588900581, 0.6931419000320602, 0.7138997347210534, 0.7245612759434152, 0.7428737998998258, 0.7599063244997524, 0.7745474690163974, 0.7930610382172745, 0.8140857954276726, 0.824605000729207, 0.8473487117444165, 0.8596834680938628, 0.8746335190953687, 0.8929433123848867, 0.9163509164063726, 0.9246183468494564, 0.949374899500981, 0.9595053263183217, 0.9744884866522625, 0.9930143438396044, 1.015994257380953, 1.0246948396088555, 1.0494107736158185, 1.0596726136864163, 1.0745328940975014, 1.0932038178725634, 1.1143647670396604, 1.124824238999281, 1.1470375182980206, 1.1596286158601288, 1.1745418028731365, 1.1930287480936386, 1.2153126833436545, 1.224675110541284, 1.2453090413182508]
4	鳄鱼	True	inanimate	animate	left	1.051	[0.0, 0.0, 0.0, 0.0, 0.0, 0.0, 0.0, 0.0, 0.0, 0.0, 0.0, 0.0, 0.0, 0.0, 0.0, 0.0, 0.0, 4.0, 7.0, 20.0, 29.0, 34.0, 42.0, 46.0, 46.0, 46.0, 46.0, 46.0, 46.0, 46.0, 46.0, 46.0, 46.0, 46.0, 46.0, 46.0, 46.0, 46.0, 46.0, 46.0, 46.0, 35.0, 23.0, -85.0, -207.0, -381.0, -560.0, -721.0, -857.0, -960.0, -960.0, -960.0, -960.0, -960.0, -960.0, -959.0, -958.0, -958.0, -958.0, -957.0, -956.0, -949.0, -946.0]	[-490.0, -490.0, -490.0, -490.0, -490.0, -490.0, -490.0, -490.0, -490.0, -490.0, -490.0, -490.0, -490.0, -490.0, -490.0, -490.0, -490.0, -487.0, -486.0, -482.0, -479.0, -478.0, -476.0, -474.0, -474.0, -474.0, -474.0, -474.0, -474.0, -474.0, -474.0, -474.0, -474.0, -474.0, -474.0, -474.0, -474.0, -474.0, -474.0, -474.0, -474.0, -465.0, -458.0, -387.0, -299.0, -169.0, -24.0, 115.0, 246.0, 370.0, 460.0, 509.0, 524.0, 526.0, 526.0, 522.0, 517.0, 516.0, 516.0, 516.0, 516.0, 518.0, 520.0]	[0.013020938407862559, 0.01763098404626362, 0.023906052840175107, 0.042759931180626154, 0.05932073335861787, 0.07448821360594593, 0.09268058827728964, 0.10943185439100489, 0.12436381474253722, 0.14277839730493724, 0.16331163479480892, 0.17423566119396128, 0.19680529230390675, 0.20934655523160473, 0.2242187822703272, 0.24268763681175187, 0.263726730045164, 0.274299524637172, 0.2971760142536368, 0.30920288810739294, 0.3240874031325802, 0.34269654561649077, 0.36572970714769326, 0.37419340416090563, 0.3984103090770077, 0.4093879247957375, 0.42418471723794937, 0.4427737210353371, 0.4635540837480221, 0.47426068093045615, 0.49630841362522915, 0.5093627002788708, 0.5242980739567429, 0.5427065125550143, 0.5645217973797116, 0.5743491203465965, 0.5945208860212006, 0.6093965263862628, 0.6269260320987087, 0.6427990479569416, 0.664688402088359, 0.6743191171553917, 0.6936143392813392, 0.7093641338869929, 0.7269905782013666, 0.7426427515165415, 0.7598681293602567, 0.7745290711754933, 0.7925019686517771, 0.809273032064084, 0.82409235247178, 0.8422461565060075, 0.8605573151435237, 0.8744765400188044, 0.893814428767655, 0.9092034342174884, 0.9245634263788816, 0.9425687504699454, 0.9606884212116711, 0.9743516462040134, 0.9936949963157531, 1.0091546577168629, 1.0270159392384812]
5	家庭	True	animate	inanimate	left	2.174	[0.0, 0.0, 0.0, 0.0, 0.0, 0.0, 0.0, 0.0, 0.0, 0.0, 0.0, 0.0, 0.0, 0.0, 0.0, 0.0, 0.0, 0.0, 0.0, 0.0, 0.0, 0.0, 0.0, 0.0, 0.0, 0.0, 0.0, 2.0, 2.0, 2.0, 2.0, 2.0, 2.0, 2.0, 2.0, 2.0, 2.0, 2.0, -2.0, -13.0, -41.0, -55.0, -64.0, -66.0, -66.0, -66.0, -66.0, -66.0, -68.0, -77.0, -100.0, -100.0, -182.0, -193.0, -210.0, -213.0, -213.0, -212.0, -209.0, -209.0, -209.0, -209.0, -209.0, -209.0, -209.0, -209.0, -209.0, -209.0, -209.0, -209.0, -209.0, -209.0, -209.0, -208.0, -208.0, -208.0, -206.0, -205.0, -203.0, -197.0, -192.0, -186.0, -185.0, -185.0, -185.0, -185.0, -185.0, -185.0, -185.0, -185.0, -185.0, -185.0, -185.0, -185.0, -185.0, -185.0, -185.0, -184.0, -182.0, -182.0, -182.0, -181.0, -181.0, -181.0, -181.0, -180.0, -179.0, -192.0, -229.0, -320.0, -402.0, -447.0, -567.0, -626.0, -652.0, -656.0, -656.0, -656.0, -656.0, -656.0, -656.0, -653.0, -649.0, -648.0, -646.0, -646.0, -646.0, -658.0, -665.0, -681.0, -699.0]	[-490.0, -490.0, -490.0, -490.0, -490.0, -490.0, -490.0, -490.0, -490.0, -490.0, -490.0, -490.0, -490.0, -490.0, -490.0, -490.0, -490.0, -490.0, -490.0, -490.0, -490.0, -490.0, -490.0, -490.0, -490.0, -489.0, -477.0, -475.0, -473.0, -473.0, -473.0, -473.0, -473.0, -473.0, -473.0, -473.0, -473.0, -473.0, -465.0, -458.0, -438.0, -430.0, -426.0, -424.0, -424.0, -424.0, -424.0, -424.0, -424.0, -420.0, -407.0, -407.0, -357.0, -349.0, -336.0, -335.0, -334.0, -334.0, -333.0, -333.0, -333.0, -333.0, -333.0, -333.0, -333.0, -333.0, -333.0, -333.0, -333.0, -333.0, -333.0, -333.0, -333.0, -333.0, -333.0, -333.0, -333.0, -333.0, -333.0, -333.0, -333.0, -333.0, -333.0, -333.0, -333.0, -333.0, -333.0, -333.0, -333.0, -333.0, -333.0, -333.0, -333.0, -333.0, -333.0, -333.0, -333.0, -333.0, -333.0, -333.0, -333.0, -333.0, -333.0, -333.0, -333.0, -329.0, -298.0, -224.0, -102.0, 117.0, 246.0, 311.0, 479.0, 540.0, 540.0, 540.0, 540.0, 540.0, 540.0, 540.0, 540.0, 539.0, 532.0, 532.0, 527.0, 523.0, 522.0, 515.0, 514.0, 514.0, 514.0]	[0.0003769342147279531, 0.00525253705563955, 0.009666316123912111, 0.02846523982589133, 0.050373367295833305, 0.06001090901554562, 0.08001746944501065, 0.09516924835043028, 0.11010325670940802, 0.12856460190960206, 0.14808749326039106, 0.1601966283924412, 0.18376909632934257, 0.19512627451331355, 0.2125571349170059, 0.22841786278877407, 0.24999045973527245, 0.2600771959114354, 0.2828400215948932, 0.2949675887066405, 0.3109498312114738, 0.3283199343131855, 0.34916480898391455, 0.3601236513641197, 0.3782487834105268, 0.3949771801708266, 0.41011223377427086, 0.4281346245261375, 0.44623040192527696, 0.46007692284183577, 0.4791349184233695, 0.49491440900601447, 0.5103245771315414, 0.5283517465577461, 0.5458262976026163, 0.5601346422918141, 0.5784338542434853, 0.5949564271140844, 0.6103792245557997, 0.6282807833922561, 0.6452262680395506, 0.6601203404134139, 0.678513077669777, 0.6950049305742141, 0.7102348747721408, 0.7283057348395232, 0.7451955821888987, 0.7598496973805595, 0.7785141358035617, 0.7990552239643876, 0.8099041570676491, 0.8328164866834413, 0.8451676270051394, 0.8598575821670238, 0.8784052846604027, 0.8991457113879733, 0.9099318391818088, 0.9352321355836466, 0.9450608238694258, 0.9598453282960691, 0.9783578734786715, 1.0007940433279146, 1.0099632759811357, 1.0341327355999965, 1.045084068668075, 1.059838877117727, 1.0784350489266217, 1.1006486695550848, 1.1100523980567232, 1.132702242466621, 1.1450380228052381, 1.159883967222413, 1.1784780910238624, 1.1985174194269348, 1.2101439094694797, 1.228321948176017, 1.2451663982064929, 1.260068662581034, 1.2784392131725326, 1.2973890061548445, 1.3101930955890566, 1.3312550581467804, 1.3450128324329853, 1.3626071914331988, 1.378538916585967, 1.3960824169625994, 1.4102719776856247, 1.4333723818417639, 1.4451316505146679, 1.462265209731413, 1.4784140228002798, 1.4991148548724595, 1.5101672225282528, 1.5281206640065648, 1.544822095456766, 1.5598810317460448, 1.5781846810423303, 1.5960387945815455, 1.6099450487818103, 1.6290214763430413, 1.6447852656128816, 1.6609617266512942, 1.6781574085180182, 1.6951885677990504, 1.7098512162920088, 1.728385606809752, 1.745032424951205, 1.7602084385289345, 1.7781895279767923, 1.7950626499950886, 1.8101062263012864, 1.828351848962484, 1.8448450671858154, 1.8602354379545432, 1.8783080047287513, 1.8951865880808327, 1.909846164577175, 1.9284580376988743, 1.9446839920710772, 1.9602160161011852, 1.9823490820999723, 1.9950186862843111, 2.009926070662914, 2.028225965303136, 2.0492961198324338, 2.059879837092012, 2.0852637600910384, 2.0950159897620324, 2.1098568141751457, 2.1283256687165704, 2.151502190186875]
6	农民	True	animate	inanimate	left	0.861	[0.0, 0.0, 0.0, 0.0, 0.0, 0.0, 0.0, 0.0, 0.0, 0.0, 0.0, 0.0, 0.0, 0.0, 0.0, 0.0, 0.0, 0.0, 0.0, 0.0, 0.0, 0.0, 1.0, 4.0, 8.0, 10.0, 10.0, 10.0, 10.0, 10.0, 10.0, 10.0, 10.0, 10.0, 10.0, 10.0, 6.0, -12.0, -50.0, -115.0, -238.0, -330.0, -377.0, -530.0, -637.0, -715.0, -772.0, -808.0, -827.0, -834.0, -834.0, -834.0]	[-490.0, -490.0, -490.0, -490.0, -490.0, -490.0, -490.0, -490.0, -490.0, -490.0, -490.0, -490.0, -490.0, -490.0, -490.0, -490.0, -490.0, -490.0, -490.0, -490.0, -490.0, -490.0, -491.0, -491.0, -491.0, -491.0, -491.0, -491.0, -491.0, -491.0, -491.0, -491.0, -491.0, -491.0, -491.0, -491.0, -488.0, -475.0, -443.0, -388.0, -270.0, -170.0, -112.0, 92.0, 241.0, 357.0, 441.0, 491.0, 518.0, 528.0, 528.0, 528.0]	[0.009762196597876027, 0.013959570438601077, 0.030032948881853372, 0.05367675545858219, 0.0649011550412979, 0.07965937681728974, 0.09815178334247321, 0.11891849272069521, 0.12978483381448314, 0.1533504750696011, 0.16483394653187133, 0.1797993575455621, 0.19819823879515752, 0.2177317114546895, 0.22988044124213047, 0.24945009520160966, 0.2649742685898673, 0.28239523034426384, 0.29825971290119924, 0.31586601852905005, 0.33012862456962466, 0.3495286359684542, 0.3650654386729002, 0.3823314351902809, 0.39832323498558253, 0.4157718447095249, 0.43011261604260653, 0.4485487026104238, 0.46479752627783455, 0.4803657316369936, 0.4980481546081137, 0.5147024820616934, 0.5297013437375426, 0.5481917022552807, 0.564677069807658, 0.5796465768071357, 0.5979113141365815, 0.6157586009940132, 0.6298962791042868, 0.6485119068820495, 0.6645194080192596, 0.6800043281109538, 0.6980096522311214, 0.7149534302006941, 0.7298983612272423, 0.7482525278173853, 0.7647143433860037, 0.7801255355007015, 0.8022104735428002, 0.8147592457826249, 0.8299506193434354, 0.8480887220357545]
7	孔雀	True	animate	inanimate	left	0.962	[0.0, 0.0, 0.0, 0.0, 0.0, 0.0, 0.0, 0.0, 0.0, 0.0, 0.0, 0.0, 0.0, 0.0, 0.0, 0.0, 0.0, 0.0, 0.0, 0.0, 0.0, 0.0, 0.0, 0.0, 0.0, 0.0, 0.0, 0.0, 0.0, 0.0, 0.0, 0.0, 0.0, 0.0, 0.0, 0.0, 0.0, 0.0, 0.0, 0.0, 0.0, 0.0, 0.0, 0.0, 0.0, 0.0, -6.0, -17.0, -32.0, -54.0, -90.0, -153.0, -246.0, -428.0, -497.0, -673.0, -758.0, -790.0, -815.0]	[-490.0, -490.0, -490.0, -490.0, -490.0, -490.0, -490.0, -490.0, -490.0, -490.0, -490.0, -490.0, -490.0, -490.0, -490.0, -490.0, -490.0, -490.0, -490.0, -490.0, -490.0, -490.0, -490.0, -490.0, -490.0, -490.0, -490.0, -490.0, -490.0, -490.0, -490.0, -490.0, -490.0, -490.0, -490.0, -490.0, -490.0, -490.0, -490.0, -490.0, -490.0, -490.0, -490.0, -490.0, -490.0, -490.0, -486.0, -480.0, -474.0, -464.0, -443.0, -394.0, -308.0, -94.0, -4.0, 221.0, 338.0, 384.0, 419.0]	[0.014349031553138047, 0.02381897869054228, 0.029724725027335808, 0.04978248541010544, 0.062354468303965405, 0.0771990473731421, 0.09565254193148576, 0.11657182720955461, 0.1271391604677774, 0.1497907115262933, 0.16228657713509165, 0.1770290975982789, 0.19570241071050987, 0.21897382277529687, 0.2271487519319635, 0.25193670723820105, 0.2623743338917848, 0.2770933023712132, 0.29576013013138436, 0.31836764921899885, 0.32895443847519346, 0.3514732109324541, 0.3622617280925624, 0.3771315657941159, 0.3957110123010352, 0.41796866490039974, 0.4272478068014607, 0.4494658647745382, 0.4623057942080777, 0.4771455946029164, 0.4957711210590787, 0.5146628874063026, 0.527410315524321, 0.5481336755910888, 0.5623307456553448, 0.5801295631972607, 0.5958715071610641, 0.6134023781633005, 0.6274816883087624, 0.646792953077238, 0.6622836758033372, 0.6780819397245068, 0.6955554667802062, 0.7123917248100042, 0.727473189093871, 0.745602417155169, 0.7622451393108349, 0.7771323850029148, 0.7952971117047127, 0.8136294329888187, 0.8270666954340413, 0.8459994217555504, 0.8630152210243978, 0.8779113414057065, 0.895197817881126, 0.912683632952394, 0.9271640095394105, 0.9456256960693281, 0.9621062849764712]
8	铅笔	False	inanimate	animate	left	1.111	[0.0, 0.0, 0.0, 0.0, 0.0, 0.0, 0.0, 0.0, 0.0, 0.0, 0.0, 0.0, 0.0, 0.0, 0.0, 0.0, 0.0, 0.0, 0.0, 0.0, 0.0, 0.0, 0.0, 0.0, 0.0, 0.0, 0.0, 0.0, 0.0, 0.0, 0.0, 0.0, 0.0, 0.0, 0.0, 0.0, 0.0, 0.0, 0.0, 0.0, 0.0, 0.0, 0.0, 0.0, 0.0, 0.0, 0.0, 0.0, 0.0, 0.0, 0.0, 0.0, 0.0, 0.0, 0.0, 0.0, -1.0, -3.0, -17.0, -44.0, -72.0, -239.0, -383.0, -543.0, -694.0, -800.0, -854.0]	[-490.0, -490.0, -490.0, -490.0, -490.0, -490.0, -490.0, -490.0, -490.0, -490.0, -490.0, -490.0, -490.0, -490.0, -490.0, -490.0, -490.0, -490.0, -490.0, -490.0, -490.0, -490.0, -491.0, -491.0, -491.0, -491.0, -491.0, -491.0, -491.0, -491.0, -491.0, -491.0, -491.0, -491.0, -491.0, -491.0, -491.0, -491.0, -491.0, -491.0, -491.0, -491.0, -491.0, -491.0, -491.0, -491.0, -491.0, -491.0, -491.0, -491.0, -491.0, -491.0, -491.0, -491.0, -491.0, -491.0, -492.0, -492.0, -489.0, -472.0, -451.0, -314.0, -150.0, 67.0, 298.0, 511.0, 540.0]	[0.009597674041287974, 0.013748967903666198, 0.020878393581369892, 0.03498705837409943, 0.05700407110271044, 0.06660099417786114, 0.08521116065094247, 0.10163474691216834, 0.1170370643667411, 0.13486694323364645, 0.15134411878534593, 0.16647917238879018, 0.1863014129048679, 0.20145387446973473, 0.21757299156161025, 0.2348011000722181, 0.2519879072497133, 0.26665943043190055, 0.2850644556747284, 0.3014788259170018, 0.31701494596200064, 0.3348700834903866, 0.3517947468208149, 0.36657378991367295, 0.38507404710981064, 0.40153722802642733, 0.4167757055547554, 0.43472505104728043, 0.45175245564314537, 0.4664379734604154, 0.4850024012848735, 0.5015085901832208, 0.5168033876689151, 0.5390729869541246, 0.5515401805459987, 0.5667035648075398, 0.5850444193929434, 0.605887928744778, 0.6164822273130994, 0.6392361783364322, 0.651586635998683, 0.6663854764192365, 0.6850669815321453, 0.7087753000669181, 0.7164945494441781, 0.7411780568072572, 0.7516614221094642, 0.7663831212266814, 0.7850813516415656, 0.8083356970746536, 0.8165283755515702, 0.8407377711555455, 0.8515467683027964, 0.8664094380219467, 0.8850090231571812, 0.9050691728771199, 0.9166717696061824, 0.9376545428822283, 0.9516710476891603, 0.9664937814231962, 0.9849564919713885, 1.0051002683467232, 1.0165571157995146, 1.0350730743375607, 1.0517267191316932, 1.0665672021859791, 1.0850579020625446]
9	蝙蝠	True	animate	inanimate	left	1.109	[0.0, 0.0, 0.0, 0.0, 0.0, 0.0, 0.0, 0.0, 0.0, 0.0, 0.0, 0.0, 0.0, 0.0, 0.0, 0.0, 0.0, 0.0, 0.0, 0.0, 0.0, 0.0, 0.0, 0.0, 0.0, 0.0, 0.0, 0.0, 0.0, 0.0, 0.0, 0.0, 0.0, 0.0, 0.0, 0.0, 0.0, 0.0, 0.0, 0.0, 0.0, 0.0, 0.0, 0.0, 0.0, 0.0, 0.0, 0.0, 0.0, 0.0, 0.0, 0.0, 0.0, 0.0, 0.0, 2.0, -28.0, -54.0, -133.0, -255.0, -383.0, -538.0, -690.0, -842.0, -947.0, -947.0]	[-490.0, -490.0, -490.0, -490.0, -490.0, -490.0, -490.0, -490.0, -490.0, -490.0, -490.0, -490.0, -490.0, -490.0, -490.0, -490.0, -490.0, -490.0, -490.0, -490.0, -490.0, -490.0, -490.0, -490.0, -490.0, -490.0, -490.0, -490.0, -490.0, -490.0, -490.0, -490.0, -490.0, -490.0, -490.0, -490.0, -490.0, -490.0, -490.0, -490.0, -490.0, -490.0, -490.0, -490.0, -490.0, -490.0, -490.0, -490.0, -490.0, -490.0, -490.0, -490.0, -490.0, -490.0, -490.0, -483.0, -433.0, -400.0, -299.0, -156.0, -9.0, 149.0, 334.0, 539.0, 540.0, 540.0]	[0.016050611506216228, 0.02103714761324227, 0.030614956049248576, 0.04900393864954822, 0.06554221283295192, 0.08086226898012683, 0.09878089447738603, 0.115454336599214, 0.13143521375604905, 0.14894253280363046, 0.165977446740726, 0.1807988151558675, 0.19912874710280448, 0.21573016792535782, 0.23086112551391125, 0.24896236424683593, 0.2660180995299015, 0.28076369196060114, 0.29910795990144834, 0.31560663945856504, 0.3308502369909547, 0.34876852115849033, 0.36577817643410526, 0.38080912342411466, 0.39911345537984744, 0.4197624048101716, 0.43051576463039964, 0.45292189717292786, 0.4656351919984445, 0.48048728037974797, 0.49918073214939795, 0.5220251364517026, 0.5306519907026086, 0.555568287265487, 0.5657427460537292, 0.5805193998385221, 0.5991493636392988, 0.6213401149434503, 0.6306342754978687, 0.6530619120167103, 0.6657062575395685, 0.6806433378951624, 0.6991630510892719, 0.7180991907371208, 0.7307995148876216, 0.750816315296106, 0.7658844676043373, 0.7832869973499328, 0.7991173465852626, 0.8207073515222874, 0.8306118157925084, 0.8502814803796355, 0.8658599257469177, 0.8832744021492545, 0.8990835887379944, 0.9202609218773432, 0.9308050444815308, 0.9491609177493956, 0.9655660720309243, 0.9809922827989794, 0.9986354524153285, 1.0153358598763589, 1.0309317132341675, 1.048655096150469, 1.0653985115641262, 1.082717756042257]
10	护士	True	inanimate	animate	right	1.217	[0.0, 0.0, 0.0, 0.0, 0.0, 0.0, 0.0, 0.0, 0.0, 0.0, 0.0, 0.0, 0.0, 0.0, 0.0, 0.0, 0.0, 0.0, 0.0, 0.0, 0.0, 0.0, 0.0, 0.0, 0.0, 0.0, 0.0, 0.0, 0.0, 0.0, 0.0, 0.0, 0.0, 0.0, 0.0, 0.0, 0.0, 0.0, 0.0, 0.0, 0.0, 0.0, 0.0, 0.0, 0.0, 0.0, 0.0, 0.0, 0.0, 0.0, 0.0, 0.0, 0.0, 0.0, 0.0, 0.0, 0.0, 0.0, 0.0, 0.0, 0.0, 0.0, 0.0, 0.0, 4.0, 41.0, 71.0, 219.0, 326.0, 447.0, 582.0, 697.0, 790.0, 849.0]	[-490.0, -490.0, -490.0, -490.0, -490.0, -490.0, -490.0, -490.0, -490.0, -490.0, -490.0, -490.0, -490.0, -490.0, -490.0, -490.0, -490.0, -490.0, -490.0, -490.0, -490.0, -490.0, -490.0, -490.0, -490.0, -490.0, -490.0, -490.0, -490.0, -490.0, -490.0, -490.0, -490.0, -490.0, -490.0, -490.0, -490.0, -490.0, -490.0, -490.0, -490.0, -490.0, -490.0, -490.0, -490.0, -490.0, -490.0, -490.0, -490.0, -490.0, -490.0, -490.0, -490.0, -490.0, -490.0, -490.0, -490.0, -490.0, -490.0, -490.0, -490.0, -490.0, -490.0, -490.0, -485.0, -446.0, -412.0, -226.0, -80.0, 72.0, 221.0, 360.0, 470.0, 533.0]	[0.00927275899448432, 0.01370497007155791, 0.02337766913115047, 0.03546256959089078, 0.051704907964449376, 0.06706148674129508, 0.0894526006304659, 0.10197679686825722, 0.1168043092766311, 0.13534893980249763, 0.15586169727612287, 0.16678674769354984, 0.18940484811901115, 0.2019280203676317, 0.21672822613618337, 0.23530630726600066, 0.2579513730306644, 0.26683764046174474, 0.2912091693142429, 0.3020157771243248, 0.31675693223951384, 0.3354060107085388, 0.35775821257266216, 0.3669796691974625, 0.39050844649318606, 0.4020629152364563, 0.41702286491636187, 0.43536303684231825, 0.4537288087885827, 0.46715514856623486, 0.4868115011777263, 0.5021144906640984, 0.5183305463579018, 0.5352415563829709, 0.5525584115239326, 0.5672456359898206, 0.585250277450541, 0.6017486156488303, 0.6172284157364629, 0.6351129079121165, 0.6517576780461241, 0.666830950329313, 0.6870385560032446, 0.7017643511062488, 0.718426187930163, 0.7351269366918132, 0.7519532961014193, 0.7670207657210995, 0.7856650654866826, 0.8018739531980827, 0.8177268304280005, 0.8350354935391806, 0.8528298737655859, 0.8670132905244827, 0.8858313288656063, 0.9018767180095892, 0.9180053923919331, 0.9351724022708368, 0.9525448947097175, 0.9670546259440016, 0.9860402588965371, 1.0018473974778317, 1.0178057466400787, 1.0351478604134172, 1.0528756806743331, 1.0671024467446841, 1.0853279307484627, 1.1018921462527942, 1.1171528104459867, 1.1350492492783815, 1.151802904700162, 1.167155046161497, 1.1853047542099375, 1.2018590710649733]
11	公鸡	True	inanimate	animate	right	1.049	[0.0, 0.0, 0.0, 0.0, 0.0, 0.0, 0.0, 0.0, 0.0, 0.0, 0.0, 0.0, 0.0, 0.0, 0.0, 0.0, 0.0, 0.0, 0.0, 0.0, 0.0, 0.0, 0.0, 0.0, 0.0, 0.0, 0.0, 0.0, 0.0, 0.0, 0.0, 0.0, 0.0, 0.0, 0.0, 0.0, 0.0, 0.0, 0.0, 0.0, 0.0, 0.0, 0.0, 0.0, 0.0, 0.0, 0.0, 0.0, 0.0, 0.0, 0.0, 0.0, 0.0, 0.0, -1.0, 15.0, 28.0, 80.0, 163.0, 282.0, 438.0, 592.0, 775.0, 822.0]	[-490.0, -490.0, -490.0, -490.0, -490.0, -490.0, -490.0, -490.0, -490.0, -490.0, -490.0, -490.0, -490.0, -490.0, -490.0, -490.0, -490.0, -490.0, -490.0, -490.0, -490.0, -490.0, -490.0, -490.0, -490.0, -490.0, -490.0, -490.0, -490.0, -490.0, -490.0, -490.0, -490.0, -490.0, -490.0, -490.0, -490.0, -490.0, -490.0, -490.0, -490.0, -490.0, -490.0, -490.0, -490.0, -490.0, -490.0, -490.0, -490.0, -490.0, -490.0, -490.0, -490.0, -490.0, -489.0, -468.0, -452.0, -396.0, -294.0, -154.0, 31.0, 208.0, 430.0, 473.0]	[0.014285543613368645, 0.019193573098164052, 0.026717579923570156, 0.044964226573938504, 0.06171446866937913, 0.07962729150312953, 0.09495929430704564, 0.11283457049285062, 0.12697293126257136, 0.14521821259404533, 0.1619066733692307, 0.1777540892653633, 0.195110539032612, 0.21265199140179902, 0.22695862938417122, 0.24585858773207292, 0.26185072885709815, 0.27730527028325014, 0.2951269571494777, 0.31216152978595346, 0.3269528608652763, 0.34531931547098793, 0.3619640856049955, 0.37721416846034117, 0.3992615598544944, 0.4118861080496572, 0.4267603830958251, 0.4453108162560966, 0.46927854800014757, 0.47677149350056425, 0.5013761528825853, 0.5119933208043221, 0.5267344759195112, 0.5453395223885309, 0.5677367802418303, 0.5768206795910373, 0.60106591519434, 0.6120117869286332, 0.626747480710037, 0.6453102018567733, 0.667856963671511, 0.6768654283659998, 0.6950277657597326, 0.7120797463576309, 0.7267949601518922, 0.7453648493101355, 0.7646334474557079, 0.777053878409788, 0.7972686520661227, 0.8120476951589808, 0.8296983741165604, 0.8452935448149219, 0.8631742823345121, 0.8771624564833473, 0.9003956392698456, 0.9120303213130683, 0.9295144296775106, 0.9452154136379249, 0.9625807380944025, 0.9771519092901144, 0.9958409237442538, 1.0118020035442896, 1.027846368669998, 1.0452164717717096]
12	黑板	False	animate	inanimate	right	1.272	[0.0, 0.0, 0.0, 0.0, 0.0, 0.0, 0.0, 0.0, 0.0, 0.0, 0.0, 0.0, 0.0, 0.0, 0.0, 0.0, 0.0, 0.0, 0.0, 0.0, 0.0, 0.0, 0.0, 0.0, 0.0, 0.0, 0.0, 0.0, 0.0, 0.0, 0.0, 0.0, 0.0, 0.0, 0.0, 0.0, 0.0, 0.0, 0.0, 0.0, 0.0, 0.0, 0.0, -5.0, -18.0, -30.0, -131.0, -230.0, -301.0, -319.0, -320.0, -320.0, -313.0, -300.0, -291.0, -283.0, -277.0, -271.0, -239.0, -223.0, -222.0, -233.0, -238.0, -247.0, -256.0, -260.0, -260.0, -243.0, -184.0, -119.0, 118.0, 311.0, 500.0, 745.0, 806.0, 868.0]	[-490.0, -490.0, -490.0, -490.0, -490.0, -490.0, -490.0, -490.0, -490.0, -490.0, -490.0, -490.0, -490.0, -490.0, -490.0, -490.0, -490.0, -490.0, -490.0, -490.0, -490.0, -490.0, -490.0, -490.0, -490.0, -490.0, -490.0, -490.0, -490.0, -490.0, -490.0, -490.0, -490.0, -490.0, -490.0, -490.0, -490.0, -490.0, -490.0, -490.0, -490.0, -490.0, -490.0, -487.0, -472.0, -461.0, -373.0, -289.0, -224.0, -214.0, -214.0, -214.0, -214.0, -220.0, -227.0, -230.0, -230.0, -227.0, -190.0, -140.0, -125.0, -75.0, -64.0, -50.0, -46.0, -44.0, -44.0, -28.0, 14.0, 60.0, 214.0, 331.0, 450.0, 540.0, 540.0, 540.0]	[0.005514305434189737, 0.014161298342514783, 0.02595401761936955, 0.04855402739485726, 0.061065252986736596, 0.07588525605387986, 0.09456198249245062, 0.1177173413161654, 0.12597589709912427, 0.1523336436075624, 0.16104651379282586, 0.17590235685929656, 0.19445142470067367, 0.21728524766513146, 0.22605034185107797, 0.24429289251565933, 0.2612004891852848, 0.27591433766065165, 0.29467161872889847, 0.31524035485927016, 0.32602784800110385, 0.3497160278784577, 0.36111689670360647, 0.376118830346968, 0.39448118893778883, 0.4130923794291448, 0.42629616998601705, 0.44975668063852936, 0.46109201351646334, 0.47887581240502186, 0.49451296706683934, 0.5113942810858134, 0.526380854746094, 0.5441895709664095, 0.5608032798045315, 0.5758844027295709, 0.5942293533298653, 0.612411146692466, 0.6261255716672167, 0.644575311569497, 0.6608773832267616, 0.6762885753414594, 0.6943959580676164, 0.7112083227839321, 0.7261337978125084, 0.7445903643674683, 0.7609456839854829, 0.7761766521725804, 0.7940526110469364, 0.8111762715852819, 0.8261444132658653, 0.8444187079148833, 0.8609088541415986, 0.8762476836272981, 0.8985916935198475, 0.9110257778083906, 0.9259505701775197, 0.9445815579674672, 0.9654796805989463, 0.9759159419336356, 1.001037038397044, 1.0110476572590414, 1.0258768763451371, 1.044362456217641, 1.067279905808391, 1.0760183760139626, 1.0999994197336491, 1.1110063900996465, 1.1258775931491982, 1.1443751196784433, 1.1641516215458978, 1.1760344528011046, 1.19831087870989, 1.2111586588143837, 1.2260725285159424, 1.2446953243052121]
13	奶牛	True	inanimate	animate	right	1.042	[0.0, 0.0, 0.0, 0.0, 0.0, 0.0, 0.0, 0.0, 0.0, 0.0, 0.0, 0.0, 0.0, 0.0, 0.0, 0.0, 0.0, 0.0, 0.0, 0.0, 0.0, 0.0, 0.0, 0.0, 0.0, 0.0, 0.0, 0.0, 0.0, 0.0, 0.0, 0.0, 0.0, 0.0, 0.0, 0.0, 0.0, 0.0, 0.0, 0.0, 0.0, 0.0, 0.0, 0.0, 0.0, 0.0, 0.0, 0.0, 0.0, 0.0, 0.0, 1.0, 8.0, 24.0, 47.0, 105.0, 186.0, 266.0, 363.0, 478.0, 598.0, 694.0, 776.0]	[-490.0, -490.0, -490.0, -490.0, -490.0, -490.0, -490.0, -490.0, -490.0, -490.0, -490.0, -490.0, -490.0, -490.0, -490.0, -490.0, -490.0, -490.0, -490.0, -490.0, -490.0, -490.0, -490.0, -490.0, -490.0, -490.0, -490.0, -490.0, -490.0, -490.0, -490.0, -490.0, -490.0, -490.0, -490.0, -490.0, -490.0, -490.0, -490.0, -490.0, -490.0, -490.0, -490.0, -490.0, -490.0, -490.0, -490.0, -490.0, -490.0, -490.0, -490.0, -489.0, -486.0, -481.0, -469.0, -425.0, -340.0, -227.0, -84.0, 89.0, 257.0, 385.0, 480.0]	[0.010296724300133064, 0.015904828091152012, 0.029537674447055906, 0.051287423295434564, 0.06468133645830676, 0.07953513151733205, 0.09803436469519511, 0.11764941600267775, 0.12968550584628247, 0.15060376713518053, 0.16453664531582035, 0.17961025892873295, 0.19789342823787592, 0.21656810666900128, 0.2297968145867344, 0.2532030532602221, 0.2646687754022423, 0.2815333640901372, 0.29802180363913067, 0.31630087696248665, 0.3298538513481617, 0.3530686021258589, 0.36474560949136503, 0.3824471470725257, 0.39804880309384316, 0.41577798867365345, 0.42979620018741116, 0.4490084783465136, 0.4647183369670529, 0.48222531465580687, 0.4979259572864976, 0.5154056283354294, 0.5297935036360286, 0.5527710278693121, 0.5646135818096809, 0.5806695522624068, 0.5978823007899337, 0.6150865159870591, 0.6298048017779365, 0.6479732831357978, 0.6643654667423107, 0.6795131496619433, 0.69764510836103, 0.7162750721618067, 0.7296133479976561, 0.7500458922004327, 0.7645317301212344, 0.782434654305689, 0.7978072757541668, 0.8146305631380528, 0.8297676647198386, 0.848770364333177, 0.8645164042536635, 0.8800153190095443, 0.8977598645724356, 0.914723098569084, 0.9296591549064033, 0.9479266229027417, 0.9643095905194059, 0.9797344359394629, 0.9975114081753418, 1.0145511007867754, 1.0296240317402408]
14	信封	False	inanimate	animate	left	0.926	[0.0, 0.0, 0.0, 0.0, 0.0, 0.0, 0.0, 0.0, 0.0, 0.0, 0.0, 0.0, 0.0, 0.0, 0.0, 0.0, 0.0, 0.0, 0.0, 0.0, 0.0, 0.0, 0.0, 0.0, 0.0, 0.0, 0.0, 0.0, 0.0, 0.0, 0.0, 0.0, 0.0, 0.0, 0.0, 0.0, 0.0, 0.0, 0.0, 0.0, 1.0, 1.0, -41.0, -111.0, -223.0, -367.0, -521.0, -659.0, -762.0, -821.0, -842.0, -847.0, -847.0, -847.0, -847.0, -847.0, -847.0]	[-490.0, -490.0, -490.0, -490.0, -490.0, -490.0, -490.0, -490.0, -490.0, -490.0, -490.0, -490.0, -490.0, -490.0, -490.0, -490.0, -490.0, -490.0, -490.0, -490.0, -490.0, -490.0, -490.0, -490.0, -490.0, -490.0, -490.0, -490.0, -490.0, -490.0, -490.0, -490.0, -490.0, -490.0, -490.0, -490.0, -490.0, -490.0, -490.0, -490.0, -489.0, -481.0, -418.0, -330.0, -196.0, 1.0, 202.0, 381.0, 514.0, 540.0, 540.0, 540.0, 540.0, 540.0, 540.0, 540.0, 540.0]	[0.011754899576772004, 0.018763151980238035, 0.0242036611889489, 0.04428326690685935, 0.05682726050144993, 0.07158957826322876, 0.09022568605723791, 0.1132318822783418, 0.12172220327192917, 0.14618691607029177, 0.15689351325272582, 0.1717176123347599, 0.19028408816666342, 0.2102196512860246, 0.22192225864273496, 0.24292687719571404, 0.25698434200603515, 0.2717343717813492, 0.2902182450052351, 0.3083812650293112, 0.3220560953486711, 0.34152164272381924, 0.3569628721452318, 0.3746381271048449, 0.39026435909909196, 0.40780512877972797, 0.4220796814770438, 0.4451094296819065, 0.45679394638864323, 0.4744125400320627, 0.4901230813120492, 0.5067285981494933, 0.5219493263575714, 0.5398659038473852, 0.5566041992860846, 0.5745624194096308, 0.5898671155737247, 0.608320951461792, 0.6217281766002998, 0.6411858733044937, 0.6565817054070067, 0.6744788269279525, 0.6898866056872066, 0.7075434286671225, 0.7216913467564154, 0.7401520092971623, 0.7564895795949269, 0.7721274169161916, 0.7896497546171304, 0.8067839965224266, 0.8216053649375681, 0.8401687687437516, 0.8564684510638472, 0.8720479204203002, 0.8898231860075612, 0.9069243185804226, 0.9216955110023264]
15	邮票	False	inanimate	animate	left	1.367	[0.0, 0.0, 0.0, 0.0, 0.0, 0.0, 0.0, 0.0, 0.0, 0.0, 0.0, 0.0, 0.0, 0.0, 0.0, 0.0, 0.0, 0.0, 1.0, 3.0, 3.0, 4.0, 5.0, 6.0, 7.0, 9.0, 14.0, 25.0, 61.0, 109.0, 144.0, 303.0, 523.0, 576.0, 701.0, 740.0, 798.0, 823.0, 828.0, 828.0, 828.0, 814.0, 797.0, 781.0, 772.0, 772.0, 772.0, 781.0, 793.0, 799.0, 799.0, 799.0, 799.0, 799.0, 799.0, 799.0, 794.0, 760.0, 685.0, 568.0, 405.0, 208.0, -9.0, -216.0, -511.0, -659.0, -759.0, -805.0, -827.0, -837.0, -838.0, -839.0, -839.0, -839.0, -842.0, -842.0, -843.0, -843.0, -843.0, -844.0, -844.0, -844.0, -844.0]	[-490.0, -490.0, -490.0, -490.0, -490.0, -490.0, -490.0, -490.0, -490.0, -490.0, -490.0, -490.0, -490.0, -490.0, -490.0, -490.0, -490.0, -490.0, -491.0, -491.0, -491.0, -489.0, -486.0, -486.0, -484.0, -481.0, -472.0, -456.0, -407.0, -348.0, -309.0, -120.0, 137.0, 205.0, 369.0, 402.0, 442.0, 460.0, 462.0, 462.0, 463.0, 461.0, 456.0, 448.0, 444.0, 444.0, 444.0, 447.0, 454.0, 457.0, 457.0, 457.0, 457.0, 457.0, 457.0, 450.0, 432.0, 401.0, 354.0, 313.0, 283.0, 280.0, 288.0, 315.0, 376.0, 415.0, 442.0, 456.0, 458.0, 461.0, 461.0, 461.0, 461.0, 461.0, 465.0, 467.0, 468.0, 468.0, 469.0, 472.0, 473.0, 473.0, 473.0]	[0.015372007066616789, 0.020636388362618163, 0.02938953589182347, 0.047158998786471784, 0.06418162473710254, 0.07900196916307323, 0.09744283437612467, 0.11386642063735053, 0.12915848748525605, 0.14727542753098533, 0.16405297626624815, 0.1790098539495375, 0.19744252716191113, 0.2138859107508324, 0.22907079898868687, 0.24725771232624538, 0.2640550583892036, 0.2790040854306426, 0.29742071600048803, 0.3137197156320326, 0.3291834730480332, 0.3511786404706072, 0.3638711139501538, 0.37880102632334456, 0.39734599814983085, 0.41381976040429436, 0.42915858986089006, 0.4515858850500081, 0.46393702540080994, 0.4787481538078282, 0.49730746165732853, 0.5199846127070487, 0.5289019414631184, 0.5533553902932908, 0.5640073741669767, 0.5788379585719667, 0.5972859917965252, 0.6177188773290254, 0.6290013035468291, 0.6505117778724525, 0.6638971576758195, 0.6788803180097602, 0.6973058232397307, 0.7164877227623947, 0.7292109162372071, 0.7490529540809803, 0.7642241889843717, 0.7791994986473583, 0.7974222519842442, 0.8151951282343362, 0.8292218730493914, 0.8487328177143354, 0.8640378552081529, 0.8803064762032591, 0.8972154382208828, 0.9145124960341491, 0.9291154112142976, 0.9472395192715339, 0.9639860067109112, 0.9787544684659224, 0.9969110031670425, 1.0151733511593193, 1.0290348907292355, 1.0484386568132322, 1.0638133262691554, 1.0807458402705379, 1.097116861201357, 1.1138619832927361, 1.1290270742028952, 1.148452685592929, 1.1638201870664489, 1.180072765389923, 1.1971527353161946, 1.215001046191901, 1.2290353003481869, 1.2476519521442242, 1.263521896005841, 1.2792194666399155, 1.2971606201317627, 1.3138729742204305, 1.329032945126528, 1.3473454690829385, 1.3637383353780024]
16	法官	True	inanimate	animate	right	1.401	[0.0, 0.0, 0.0, 0.0, 0.0, 0.0, 0.0, 0.0, 2.0, 2.0, 3.0, 3.0, 3.0, 3.0, 3.0, 3.0, 3.0, 3.0, 3.0, 3.0, 5.0, 5.0, 5.0, 5.0, 5.0, 6.0, 9.0, 10.0, 11.0, 12.0, 12.0, 12.0, 12.0, 12.0, 12.0, 12.0, 12.0, 12.0, 12.0, 12.0, 12.0, 12.0, 12.0, 12.0, 2.0, -38.0, -97.0, -181.0, -265.0, -361.0, -443.0, -509.0, -571.0, -644.0, -654.0, -666.0, -670.0, -672.0, -675.0, -679.0, -686.0, -693.0, -697.0, -697.0, -691.0, -681.0, -648.0, -471.0, -161.0, -38.0, 215.0, 466.0, 666.0, 791.0, 854.0, 857.0, 857.0, 857.0, 857.0, 857.0, 857.0, 857.0, 857.0, 857.0, 857.0]	[-490.0, -490.0, -490.0, -490.0, -490.0, -490.0, -490.0, -490.0, -491.0, -491.0, -492.0, -493.0, -493.0, -493.0, -493.0, -493.0, -493.0, -493.0, -493.0, -493.0, -493.0, -493.0, -493.0, -493.0, -493.0, -493.0, -492.0, -491.0, -490.0, -489.0, -489.0, -489.0, -489.0, -489.0, -489.0, -489.0, -489.0, -489.0, -489.0, -489.0, -489.0, -489.0, -489.0, -489.0, -478.0, -448.0, -402.0, -324.0, -230.0, -117.0, -23.0, 55.0, 132.0, 234.0, 248.0, 266.0, 270.0, 271.0, 273.0, 276.0, 286.0, 294.0, 303.0, 307.0, 318.0, 323.0, 342.0, 401.0, 457.0, 473.0, 473.0, 465.0, 438.0, 420.0, 411.0, 411.0, 411.0, 411.0, 411.0, 411.0, 411.0, 411.0, 411.0, 411.0, 411.0]	[0.014533351495629176, 0.019041679857764393, 0.028382944408804178, 0.0445327814668417, 0.06268214818555862, 0.07639077049680054, 0.09570442460244521, 0.11127911528456025, 0.12609024372068234, 0.14440583967370912, 0.16306208612513728, 0.176390463282587, 0.19558635746943764, 0.21118562412448227, 0.22845298596075736, 0.24457278571208008, 0.26507393788779154, 0.27628878015093505, 0.29440537886694074, 0.31095252771046944, 0.3287946945929434, 0.3442058867076412, 0.36228459744597785, 0.3762775502691511, 0.3957912256300915, 0.4110481351381168, 0.42646444725687616, 0.44439297140343115, 0.4623935168492608, 0.47598130721598864, 0.49509903611033224, 0.5112133745278697, 0.5268276598653756, 0.5443895921926014, 0.5616726553416811, 0.5762288079131395, 0.5950601582590025, 0.6110772167157847, 0.6269898272585124, 0.6442469490866642, 0.6614986095810309, 0.6760475941409823, 0.6945847152965143, 0.7110752028529532, 0.7265232589561492, 0.7443370951514225, 0.7613016944669653, 0.7763224014488515, 0.7945198961242568, 0.8109728370618541, 0.8263570638373494, 0.8443811612669379, 0.8610819100576919, 0.8761988729820587, 0.8943263943656348, 0.9107510046160314, 0.9263608526380267, 0.9442634354636539, 0.9611822961305734, 0.9765026936365757, 0.994508359086467, 1.0152672177937347, 1.0261806628550403, 1.0486192220414523, 1.060928719729418, 1.075947037374135, 1.0944162332452834, 1.117932039895095, 1.126039043738274, 1.1440324212017003, 1.1611489137576427, 1.1759508261748124, 1.194524469989119, 1.2173466876556631, 1.22610188316321, 1.2504327933711465, 1.2610905799083412, 1.2759372069849633, 1.2944821788114496, 1.3167070634372067, 1.3261353679408785, 1.3481530633580405, 1.3611872113251593, 1.3761632036766969, 1.3945928048924543]
17	道士	True	inanimate	animate	right	1.579	[0.0, 0.0, 0.0, 0.0, 0.0, 0.0, 0.0, 0.0, 2.0, 2.0, 3.0, 3.0, 3.0, 3.0, 3.0, 3.0, 3.0, 3.0, 3.0, 3.0, 3.0, 3.0, 3.0, 3.0, 3.0, 4.0, 4.0, 4.0, 4.0, 5.0, 5.0, 6.0, 6.0, 6.0, 9.0, 11.0, 12.0, 12.0, 13.0, 15.0, 15.0, 15.0, 15.0, 15.0, 15.0, 15.0, 15.0, 15.0, 15.0, 15.0, 15.0, 15.0, 15.0, 14.0, -5.0, -42.0, -108.0, -200.0, -312.0, -430.0, -551.0, -687.0, -760.0, -805.0, -831.0, -844.0, -851.0, -854.0, -856.0, -855.0, -852.0, -850.0, -848.0, -845.0, -842.0, -831.0, -810.0, -767.0, -684.0, -574.0, -437.0, -278.0, -62.0, 286.0, 399.0, 661.0, 762.0, 815.0, 834.0, 837.0, 837.0, 837.0, 837.0, 837.0, 837.0, 837.0]	[-490.0, -490.0, -490.0, -490.0, -490.0, -490.0, -490.0, -490.0, -491.0, -491.0, -491.0, -491.0, -491.0, -491.0, -492.0, -492.0, -492.0, -492.0, -492.0, -492.0, -492.0, -492.0, -492.0, -492.0, -492.0, -492.0, -492.0, -492.0, -492.0, -492.0, -491.0, -491.0, -490.0, -490.0, -490.0, -489.0, -488.0, -488.0, -487.0, -486.0, -486.0, -486.0, -486.0, -486.0, -486.0, -486.0, -486.0, -486.0, -486.0, -486.0, -486.0, -486.0, -486.0, -483.0, -471.0, -443.0, -394.0, -310.0, -198.0, -71.0, 63.0, 213.0, 285.0, 332.0, 361.0, 378.0, 393.0, 408.0, 423.0, 432.0, 435.0, 439.0, 440.0, 442.0, 443.0, 442.0, 430.0, 407.0, 369.0, 348.0, 333.0, 333.0, 333.0, 339.0, 357.0, 390.0, 408.0, 418.0, 422.0, 423.0, 423.0, 423.0, 423.0, 423.0, 423.0, 423.0]	[0.014700263389386237, 0.023252707032952458, 0.02814605919411406, 0.05013098657946102, 0.06277021212736145, 0.0775666632107459, 0.0960775017447304, 0.11689404572825879, 0.12760985892964527, 0.1503071486367844, 0.16264736632001586, 0.17748307072906755, 0.1961608211568091, 0.21841949777444825, 0.22764095437014475, 0.24578076374018565, 0.262781885714503, 0.27752338215941563, 0.29607415667851456, 0.31724056717939675, 0.3277689884416759, 0.35028127557598054, 0.36272355186520144, 0.3775179549702443, 0.3959936361643486, 0.41830965675762855, 0.4276529692870099, 0.44586787198204547, 0.46289015660295263, 0.47759786105598323, 0.4961090409196913, 0.5162459906132426, 0.5276526621019002, 0.548364758171374, 0.5628055401029997, 0.5776163271802943, 0.596018280426506, 0.6178885198896751, 0.6276875122275669, 0.6482910643389914, 0.6629066088644322, 0.6802463333006017, 0.6961835198162589, 0.7137628601340111, 0.7279001969145611, 0.7471708430384751, 0.7628690963319968, 0.7789110721205361, 0.7959944553731475, 0.8131942332256585, 0.8279616710206028, 0.8460400404292159, 0.8624451946816407, 0.8777062002045568, 0.8957244949706364, 0.9124702997505665, 0.9277145799424034, 0.9459513279434759, 0.9625080341356806, 0.9775953010539524, 0.9956511424970813, 1.0125017365207896, 1.0276395207620226, 1.0458684181212448, 1.062364366982365, 1.077914823021274, 1.0956204566464294, 1.1124696853512432, 1.127906818757765, 1.1458032576192636, 1.1625278997235, 1.177730195922777, 1.1956662294105627, 1.2125369621207938, 1.2280037915334105, 1.2458213823847473, 1.2627784723881632, 1.2778572060051374, 1.2959563967306167, 1.3125813695369288, 1.32799938833341, 1.3458548671915196, 1.3627474452077877, 1.3777524508477654, 1.3959427775407676, 1.4122967318398878, 1.4280209264543373, 1.4458586559921969, 1.4627614739874844, 1.477706746343756, 1.4959076543455012, 1.512370835262118, 1.5279653232719284, 1.5459197887394112, 1.5627553641388658, 1.5774815006006975]
18	牙齿	False	animate	inanimate	right	1.375	[0.0, 0.0, 0.0, 0.0, 0.0, 0.0, 0.0, 0.0, 0.0, 0.0, 0.0, 0.0, 0.0, 0.0, 0.0, 0.0, 0.0, 7.0, 18.0, 31.0, 48.0, 65.0, 72.0, 75.0, 76.0, 76.0, 76.0, 76.0, 76.0, 76.0, 76.0, 76.0, 55.0, 44.0, -51.0, -97.0, -188.0, -282.0, -397.0, -429.0, -527.0, -597.0, -668.0, -756.0, -850.0, -937.0, -960.0, -960.0, -960.0, -960.0, -960.0, -960.0, -960.0, -960.0, -955.0, -945.0, -927.0, -907.0, -883.0, -857.0, -830.0, -808.0, -793.0, -792.0, -790.0, -790.0, -782.0, -743.0, -598.0, -345.0, -38.0, 277.0, 576.0, 791.0, 906.0, 906.0, 906.0, 906.0, 906.0, 906.0, 906.0, 906.0, 904.0]	[-490.0, -490.0, -490.0, -490.0, -490.0, -490.0, -490.0, -490.0, -490.0, -490.0, -490.0, -490.0, -490.0, -490.0, -490.0, -490.0, -490.0, -489.0, -483.0, -478.0, -472.0, -465.0, -461.0, -460.0, -459.0, -459.0, -459.0, -459.0, -459.0, -459.0, -459.0, -459.0, -455.0, -448.0, -391.0, -359.0, -284.0, -187.0, -41.0, 7.0, 129.0, 191.0, 237.0, 276.0, 315.0, 354.0, 389.0, 418.0, 437.0, 447.0, 465.0, 470.0, 474.0, 474.0, 475.0, 473.0, 464.0, 456.0, 447.0, 439.0, 434.0, 433.0, 433.0, 433.0, 433.0, 434.0, 437.0, 441.0, 452.0, 452.0, 452.0, 452.0, 452.0, 470.0, 488.0, 488.0, 488.0, 488.0, 488.0, 488.0, 488.0, 488.0, 488.0]	[0.000863982510054484, 0.005525910790311173, 0.016673510428518057, 0.03509048232808709, 0.05153762057307176, 0.06666857816162519, 0.08529581126640551, 0.101740560203325, 0.11746441348805092, 0.13502190849976614, 0.15198753180447966, 0.16678330022841692, 0.18516204282059334, 0.20177575162961148, 0.2170562131504994, 0.23493148933630437, 0.2519387553038541, 0.26665772375417873, 0.2851910902536474, 0.30175906044314615, 0.3171463592443615, 0.33495848879101686, 0.3517612961877603, 0.3668137471540831, 0.3851849804050289, 0.4057793165266048, 0.41663780697854236, 0.43919276076485403, 0.45188796491129324, 0.4666253653704189, 0.4852375798509456, 0.5064415369997732, 0.516634086437989, 0.54107592991204, 0.5517736524343491, 0.5665878528670873, 0.585121219366556, 0.6059070433839224, 0.6168327764607966, 0.639301714283647, 0.6516644599614665, 0.6666117803251836, 0.6849758455646224, 0.7044171582965646, 0.7170655998052098, 0.7372452161507681, 0.7518447180045769, 0.7694465863169171, 0.785113095655106, 0.8070918790472206, 0.8167714047594927, 0.836047512217192, 0.8517334775242489, 0.8675720187602565, 0.8849329058721196, 0.9018428918789141, 0.9171346173679922, 0.9349559629336, 0.9514638584805652, 0.9666347520251293, 0.9846656761365011, 1.001639832771616, 1.0170431742153596, 1.0349085517518688, 1.051416447298834, 1.0668409513891675, 1.084643182286527, 1.1016982348810416, 1.1171189843153115, 1.1347430392925162, 1.1515093240595888, 1.1668218708655331, 1.184649701754097, 1.2017532236641273, 1.2168664319033269, 1.2349953186349012, 1.251713134086458, 1.2668201983324252, 1.284846343769459, 1.3019901429943275, 1.3165698475495446, 1.335184110008413, 1.3517667575215455]
19	骆驼	True	animate	inanimate	left	1.03	[0.0, 0.0, 0.0, 0.0, 0.0, 0.0, 0.0, 0.0, 0.0, 0.0, 0.0, 0.0, 0.0, -3.0, -16.0, -28.0, -38.0, -43.0, -43.0, -43.0, -43.0, -43.0, -43.0, -43.0, -43.0, -43.0, -43.0, -41.0, -39.0, -38.0, -38.0, -37.0, -34.0, -29.0, -29.0, -29.0, -29.0, -29.0, -29.0, -29.0, -29.0, -29.0, -70.0, -162.0, -271.0, -363.0, -463.0, -488.0, -519.0, -536.0, -550.0, -560.0, -571.0, -585.0, -599.0, -629.0, -658.0, -676.0, -681.0, -681.0, -681.0, -681.0, -681.0]	[-490.0, -490.0, -490.0, -490.0, -490.0, -490.0, -490.0, -490.0, -490.0, -490.0, -490.0, -490.0, -490.0, -494.0, -500.0, -505.0, -510.0, -513.0, -513.0, -513.0, -513.0, -513.0, -513.0, -513.0, -513.0, -513.0, -514.0, -514.0, -513.0, -513.0, -513.0, -512.0, -510.0, -508.0, -508.0, -508.0, -508.0, -508.0, -508.0, -508.0, -508.0, -508.0, -464.0, -364.0, -215.0, -78.0, 91.0, 136.0, 209.0, 247.0, 277.0, 297.0, 315.0, 334.0, 353.0, 386.0, 417.0, 435.0, 440.0, 440.0, 440.0, 440.0, 440.0]	[0.014307047589682043, 0.019313722354127094, 0.02643290802370757, 0.04427746424335055, 0.06136562614119612, 0.07610439194831997, 0.09453808917896822, 0.11091081678750925, 0.1263561421947088, 0.1442539463751018, 0.16130729232099839, 0.17599724745377898, 0.19460468325996771, 0.21114944279543124, 0.22640908297034912, 0.2442963058128953, 0.2613513584365137, 0.2762747854576446, 0.29455078675528057, 0.3152287495031487, 0.326012487988919, 0.3486142044130247, 0.3612203206284903, 0.37602155038621277, 0.394483578245854, 0.4156475994095672, 0.4260046714625787, 0.4441919261298608, 0.4613005680439528, 0.475977893860545, 0.4944955590472091, 0.516828646272188, 0.5261176868516486, 0.5441813789366279, 0.5611357382731512, 0.5759519866842311, 0.5945652251539286, 0.6148660147446208, 0.6261716516455635, 0.6473503501329105, 0.6613675376283936, 0.6762424953340087, 0.6945458033005707, 0.7129562898771837, 0.7264003789750859, 0.7494082818739116, 0.761141609196784, 0.7773317235696595, 0.7943120242271107, 0.8117350339598488, 0.8263847118068952, 0.8448098756780382, 0.8610764486948028, 0.8763453048886731, 0.8941895197494887, 0.9110544497671071, 0.9262683513225056, 0.9445614192809444, 0.9611160774657037, 0.9761907150968909, 0.9939953353023157, 1.010907027986832, 1.0262363001238555]
20	电话	False	inanimate	animate	left	1.003	[0.0, 0.0, 0.0, 0.0, -2.0, -7.0, -13.0, -13.0, -14.0, -14.0, -14.0, -14.0, -14.0, -14.0, -14.0, -14.0, -14.0, -14.0, -14.0, -14.0, -14.0, -14.0, -14.0, -14.0, -14.0, -14.0, -14.0, -14.0, -11.0, -3.0, 1.0, 11.0, 26.0, 33.0, 38.0, 41.0, 42.0, 53.0, 64.0, 72.0, 88.0, 91.0, 91.0, 53.0, 17.0, -90.0, -218.0, -411.0, -473.0, -628.0, -679.0, -722.0, -762.0, -795.0, -824.0, -866.0, -909.0, -959.0, -960.0, -960.0, -960.0]	[-490.0, -490.0, -490.0, -490.0, -490.0, -490.0, -490.0, -490.0, -491.0, -492.0, -493.0, -493.0, -493.0, -493.0, -493.0, -493.0, -493.0, -493.0, -493.0, -493.0, -493.0, -493.0, -493.0, -493.0, -493.0, -493.0, -493.0, -493.0, -489.0, -462.0, -451.0, -430.0, -408.0, -398.0, -393.0, -390.0, -390.0, -382.0, -370.0, -360.0, -331.0, -315.0, -314.0, -299.0, -288.0, -246.0, -175.0, 2.0, 66.0, 230.0, 281.0, 321.0, 362.0, 394.0, 418.0, 447.0, 475.0, 513.0, 539.0, 540.0, 540.0]	[0.01484331613755785, 0.019592625700170174, 0.026119257032405585, 0.045545551081886515, 0.06125165504636243, 0.0771396895579528, 0.09456474732724018, 0.111763159831753, 0.12626026174984872, 0.14531962265027687, 0.1614264517556876, 0.17662533462862484, 0.1946467014204245, 0.21163894870551303, 0.22627770388498902, 0.24488923567696474, 0.26139678989420645, 0.2767093367292546, 0.2947061275190208, 0.31169427881832235, 0.32656206854153425, 0.3450636910565663, 0.36548462993232533, 0.37634960570721887, 0.3988738394982647, 0.41153934769681655, 0.42626104681403376, 0.4449056879384443, 0.46755928700440563, 0.4764742264524102, 0.4945734171778895, 0.5116653337609023, 0.526262446277542, 0.5447900101426058, 0.5670684840588365, 0.5764077006024309, 0.5946502512670122, 0.6115175706509035, 0.6262464377505239, 0.6446999323088676, 0.6674914299801458, 0.6764603000483476, 0.7003788798174355, 0.7115138501103502, 0.7262700238788966, 0.7447951984067913, 0.7656298330693971, 0.7764610168524086, 0.8001594367087819, 0.8114678042766172, 0.8265240098990034, 0.8449696537863929, 0.8648260276240762, 0.8766248908941634, 0.8968007525836583, 0.9114958277205005, 0.9265250680327881, 0.9448246213141829, 0.9667201194388326, 0.9765184290881734, 0.9959365311369766]
21	厨师	True	inanimate	animate	right	1.002	[0.0, 0.0, 1.0, 1.0, 3.0, 4.0, 5.0, 5.0, 5.0, 5.0, 5.0, 5.0, 5.0, 5.0, 5.0, 5.0, 5.0, 5.0, 5.0, 5.0, 5.0, 5.0, 8.0, 12.0, 12.0, 12.0, 12.0, 12.0, 12.0, 12.0, 12.0, 12.0, 12.0, 12.0, 12.0, 12.0, 19.0, 47.0, 101.0, 191.0, 301.0, 410.0, 483.0, 514.0, 515.0, 505.0, 455.0, 439.0, 436.0, 449.0, 489.0, 552.0, 622.0, 705.0, 795.0, 915.0, 959.0, 959.0, 959.0, 959.0, 959.0]	[-490.0, -490.0, -490.0, -490.0, -495.0, -497.0, -502.0, -502.0, -502.0, -502.0, -502.0, -502.0, -502.0, -502.0, -502.0, -502.0, -502.0, -502.0, -502.0, -502.0, -502.0, -502.0, -503.0, -503.0, -503.0, -503.0, -503.0, -503.0, -503.0, -503.0, -503.0, -503.0, -503.0, -503.0, -503.0, -503.0, -497.0, -449.0, -371.0, -263.0, -144.0, -42.0, 39.0, 94.0, 143.0, 157.0, 223.0, 261.0, 288.0, 317.0, 350.0, 380.0, 401.0, 417.0, 432.0, 445.0, 451.0, 454.0, 464.0, 468.0, 468.0]	[0.00856479987851344, 0.013491602701833472, 0.018989114556461573, 0.03795529151102528, 0.050592127692652866, 0.06540666945511475, 0.08400215860456228, 0.10349330594181083, 0.11559834508807398, 0.13632443582173437, 0.15062527114059776, 0.16812576353549957, 0.18402403805521317, 0.20597073616227135, 0.21559667255496606, 0.23488199600251392, 0.25059902263456024, 0.2670144168951083, 0.2838745682674926, 0.3014658552710898, 0.31583768790005706, 0.3345004196744412, 0.3505676541244611, 0.3658511876128614, 0.38365887984400615, 0.40297799528343603, 0.41546293822466396, 0.4350715041800868, 0.45051239227177575, 0.4671202984463889, 0.4838104658992961, 0.5006050812953617, 0.51567732958938, 0.5348387490957975, 0.5505277863994706, 0.5671841618895996, 0.5837142440723255, 0.6015526562696323, 0.6157681583426893, 0.6343325861671474, 0.6502056020253804, 0.6663110657827929, 0.6837047208973672, 0.7006826321885455, 0.7156395098718349, 0.7339158524991944, 0.7504090707225259, 0.7657584815460723, 0.7837047550128773, 0.8005591037217528, 0.8156617306522094, 0.8339343186235055, 0.850336400908418, 0.8656933210440911, 0.887832189706387, 0.9006366204703227, 0.9157720154034905, 0.9339882834174205, 0.9549382886907551, 0.9654472539550625, 0.9908465369662736]
22	孕妇	True	inanimate	animate	right	1.093	[0.0, 0.0, 0.0, 0.0, 0.0, 0.0, 0.0, 0.0, 0.0, 0.0, 0.0, 0.0, 0.0, 0.0, 0.0, 0.0, 0.0, 0.0, 0.0, 0.0, 0.0, 0.0, 0.0, 0.0, 0.0, 0.0, 0.0, 0.0, 0.0, 0.0, 0.0, 0.0, 0.0, 0.0, 0.0, 0.0, 0.0, 0.0, 0.0, 0.0, 0.0, 0.0, 0.0, 0.0, -56.0, -97.0, -290.0, -434.0, -553.0, -615.0, -622.0, -610.0, -562.0, -481.0, -351.0, -165.0, 182.0, 293.0, 604.0, 757.0, 851.0, 901.0, 917.0, 922.0, 922.0, 922.0, 923.0]	[-490.0, -490.0, -490.0, -490.0, -490.0, -490.0, -490.0, -490.0, -490.0, -490.0, -490.0, -490.0, -490.0, -490.0, -490.0, -490.0, -490.0, -490.0, -490.0, -490.0, -490.0, -490.0, -490.0, -490.0, -490.0, -490.0, -490.0, -490.0, -490.0, -490.0, -490.0, -490.0, -490.0, -490.0, -490.0, -490.0, -490.0, -490.0, -490.0, -490.0, -490.0, -490.0, -490.0, -490.0, -450.0, -412.0, -246.0, -123.0, -22.0, 32.0, 53.0, 70.0, 94.0, 130.0, 177.0, 230.0, 321.0, 351.0, 453.0, 515.0, 540.0, 540.0, 540.0, 540.0, 540.0, 540.0, 540.0]	[0.008295829320559278, 0.013703911885386333, 0.0175189925939776, 0.03305750197614543, 0.0495322881906759, 0.06486121902707964, 0.08281090582022443, 0.09952974526095204, 0.11465797218261287, 0.13657804630929604, 0.14949955436168239, 0.16474110388662666, 0.18305533449165523, 0.20302332428400405, 0.21457096637459472, 0.23991427072905935, 0.2495948204305023, 0.2644219915091526, 0.2830765312828589, 0.30656571392319165, 0.31450819520978257, 0.3327319725358393, 0.3497061291709542, 0.36444728428614326, 0.3830366294423584, 0.3995684183028061, 0.4148260104993824, 0.4358384797524195, 0.4497102593013551, 0.46464665699750185, 0.48304178356193006, 0.501333827531198, 0.5148936285986565, 0.5384101178788114, 0.5496645547973458, 0.567362337722443, 0.5829185964248609, 0.6006327633804176, 0.614906974718906, 0.6377701523597352, 0.649585399631178, 0.6671876093023457, 0.6829292119073216, 0.70016175773344, 0.7148977928736713, 0.7369189015880693, 0.7494738178211264, 0.764411239506444, 0.7826298968575429, 0.8011615567083936, 0.8147711924102623, 0.8336735400371253, 0.8493997826590203, 0.8658725208952092, 0.8827797762351111, 0.8998802261485253, 0.9144524213625118, 0.9330175318464171, 0.9494001581333578, 0.9648645982088055, 0.9828415916708764, 0.9997123243811075, 1.0146279007312842, 1.033028829988325, 1.0495090775366407, 1.0646540297893807, 1.082891801779624]
23	手表	False	inanimate	animate	left	1.468	[0.0, 0.0, 0.0, 0.0, 0.0, 0.0, 0.0, 0.0, 0.0, 0.0, 0.0, 0.0, 0.0, 0.0, 0.0, 0.0, 0.0, 1.0, 1.0, 1.0, 1.0, 1.0, 1.0, 2.0, 2.0, 2.0, 2.0, 2.0, 4.0, 4.0, 4.0, 5.0, 6.0, 7.0, 7.0, 7.0, 7.0, 7.0, 7.0, 7.0, 7.0, 7.0, 7.0, -3.0, -21.0, -46.0, -67.0, -75.0, -58.0, 46.0, 246.0, 246.0, 592.0, 664.0, 768.0, 797.0, 798.0, 797.0, 740.0, 700.0, 586.0, 346.0, 181.0, 20.0, -121.0, -232.0, -311.0, -362.0, -412.0, -427.0, -468.0, -478.0, -510.0, -530.0, -541.0, -546.0, -549.0, -551.0, -561.0, -580.0, -632.0, -654.0, -711.0, -745.0, -757.0, -762.0, -762.0, -762.0, -762.0]	[-490.0, -491.0, -491.0, -491.0, -491.0, -491.0, -491.0, -491.0, -491.0, -491.0, -491.0, -491.0, -491.0, -491.0, -491.0, -491.0, -491.0, -492.0, -492.0, -492.0, -492.0, -492.0, -492.0, -492.0, -492.0, -492.0, -492.0, -492.0, -492.0, -492.0, -492.0, -492.0, -492.0, -491.0, -491.0, -490.0, -489.0, -489.0, -489.0, -489.0, -489.0, -489.0, -487.0, -476.0, -453.0, -393.0, -307.0, -200.0, -92.0, 67.0, 202.0, 202.0, 349.0, 380.0, 422.0, 443.0, 459.0, 465.0, 478.0, 483.0, 485.0, 485.0, 485.0, 485.0, 485.0, 485.0, 485.0, 485.0, 485.0, 485.0, 485.0, 485.0, 485.0, 486.0, 488.0, 490.0, 490.0, 490.0, 490.0, 490.0, 490.0, 490.0, 483.0, 471.0, 465.0, 463.0, 463.0, 463.0, 463.0]	[0.014824508660240099, 0.019232485094107687, 0.028048437903635204, 0.046307031210744753, 0.06262275620247237, 0.07773971912683919, 0.0977442315488588, 0.1126212372619193, 0.1305323534179479, 0.14601351882447489, 0.16412260822835378, 0.17786877718754113, 0.19671855954220518, 0.21276053533074446, 0.2282932420494035, 0.24612687557237223, 0.2638055438583251, 0.277910795295611, 0.29628032189793885, 0.31273770015104674, 0.32806458295090124, 0.3461484136932995, 0.3630157330771908, 0.37776610418222845, 0.39634418534114957, 0.41263089698622935, 0.4280011291266419, 0.4459511572786141, 0.4630212285264861, 0.4777555569889955, 0.4964278460829519, 0.5126510697882622, 0.5280854725569952, 0.5464969831227791, 0.5655546373745892, 0.5776036978641059, 0.5963148989540059, 0.613635508751031, 0.6311728651053272, 0.6459699988481589, 0.6629014888603706, 0.6775119133817498, 0.6962596371013205, 0.712634412717307, 0.7280285381712019, 0.745946481009014, 0.7628537363489158, 0.7776539420883637, 0.796116652636556, 0.8199307844624855, 0.8276715378160588, 0.8514665549737401, 0.8629472957691178, 0.8776973255444318, 0.8963208040222526, 0.9193877575453371, 0.9277872839011252, 0.9519826848409139, 0.9628026046266314, 0.9776652743748855, 0.996228678181069, 1.0185812214040197, 1.0278084806923289, 1.0501412265875842, 1.0629422440251801, 1.077685105818091, 1.0961642003676388, 1.1169401257066056, 1.1278774641104974, 1.149137058557244, 1.1628098408982623, 1.177888233185513, 1.1961580904899165, 1.2150689714762848, 1.2280447515076958, 1.2514482595142908, 1.2629525522934273, 1.28059913526522, 1.2963434685370885, 1.3174136230663862, 1.3278580764017534, 1.3465505041531287, 1.3627266238909215, 1.377656877564732, 1.3957782549550757, 1.4142662241647486, 1.4276594546390697, 1.4470410340290982, 1.4628253032860812]
24	蜜蜂	True	animate	inanimate	left	4.283	[0.0, 0.0, 0.0, 0.0, 0.0, 0.0, 0.0, 0.0, 0.0, 0.0, 0.0, 0.0, 0.0, 0.0, 0.0, 0.0, 0.0, 0.0, 0.0, 0.0, 0.0, 0.0, 0.0, 0.0, 0.0, 0.0, 0.0, 0.0, 0.0, 0.0, 0.0, 0.0, 0.0, 0.0, 0.0, 0.0, 0.0, 0.0, 0.0, -2.0, -13.0, -38.0, -88.0, -161.0, -246.0, -361.0, -487.0, -611.0, -718.0, -846.0, -880.0, -909.0, -920.0, -920.0, -916.0, -911.0, -906.0, -905.0, -905.0, -903.0, -897.0, -888.0, -872.0, -868.0, -862.0, -861.0, -860.0, -859.0, -857.0, -856.0, -855.0, -855.0, -854.0, -852.0, -848.0, -847.0, -840.0, -831.0, -822.0, -814.0, -794.0, -786.0, -755.0, -739.0, -689.0, -614.0, -366.0, -293.0, -144.0, -6.0, 132.0, 254.0, 406.0, 452.0, 502.0, 523.0, 538.0, 551.0, 567.0, 575.0, 596.0, 612.0, 628.0, 643.0, 658.0, 669.0, 674.0, 674.0, 674.0, 674.0, 674.0, 674.0, 675.0, 675.0, 675.0, 675.0, 675.0, 675.0, 675.0, 675.0, 676.0, 677.0, 683.0, 684.0, 688.0, 688.0, 688.0, 688.0, 690.0, 692.0, 692.0, 694.0, 694.0, 694.0, 694.0, 694.0, 694.0, 694.0, 694.0, 694.0, 694.0, 694.0, 694.0, 694.0, 694.0, 694.0, 694.0, 694.0, 694.0, 694.0, 694.0, 694.0, 694.0, 694.0, 694.0, 694.0, 694.0, 694.0, 694.0, 694.0, 694.0, 694.0, 694.0, 694.0, 694.0, 694.0, 694.0, 694.0, 694.0, 694.0, 694.0, 694.0, 694.0, 694.0, 694.0, 694.0, 694.0, 694.0, 694.0, 694.0, 694.0, 694.0, 694.0, 694.0, 694.0, 694.0, 694.0, 694.0, 694.0, 694.0, 694.0, 694.0, 694.0, 694.0, 694.0, 694.0, 694.0, 694.0, 694.0, 694.0, 694.0, 694.0, 694.0, 694.0, 694.0, 694.0, 694.0, 694.0, 694.0, 694.0, 694.0, 694.0, 692.0, 634.0, 507.0, 308.0, 70.0, -269.0, -367.0, -591.0, -699.0, -789.0, -851.0, -904.0, -943.0, -959.0, -960.0, -960.0, -960.0, -960.0, -960.0, -960.0, -960.0, -960.0, -960.0, -960.0, -960.0, -960.0, -960.0, -959.0, -954.0, -949.0, -946.0, -946.0, -946.0, -945.0, -941.0, -937.0, -934.0, -934.0, -930.0, -930.0, -927.0, -922.0, -919.0, -919.0, -919.0]	[-490.0, -490.0, -490.0, -490.0, -490.0, -490.0, -490.0, -490.0, -490.0, -490.0, -490.0, -490.0, -490.0, -490.0, -490.0, -490.0, -490.0, -490.0, -490.0, -490.0, -490.0, -490.0, -490.0, -490.0, -490.0, -490.0, -490.0, -490.0, -490.0, -490.0, -490.0, -490.0, -490.0, -490.0, -490.0, -490.0, -490.0, -490.0, -490.0, -485.0, -474.0, -456.0, -420.0, -369.0, -308.0, -234.0, -162.0, -85.0, 1.0, 150.0, 196.0, 269.0, 341.0, 371.0, 394.0, 412.0, 431.0, 455.0, 476.0, 496.0, 510.0, 521.0, 526.0, 527.0, 527.0, 527.0, 526.0, 525.0, 521.0, 519.0, 517.0, 516.0, 515.0, 512.0, 509.0, 507.0, 501.0, 493.0, 489.0, 484.0, 477.0, 474.0, 467.0, 462.0, 446.0, 429.0, 356.0, 339.0, 314.0, 295.0, 293.0, 293.0, 297.0, 309.0, 326.0, 337.0, 346.0, 353.0, 361.0, 364.0, 365.0, 365.0, 365.0, 365.0, 365.0, 365.0, 365.0, 365.0, 365.0, 365.0, 365.0, 365.0, 367.0, 368.0, 370.0, 371.0, 373.0, 374.0, 374.0, 374.0, 375.0, 376.0, 377.0, 377.0, 378.0, 378.0, 378.0, 378.0, 381.0, 384.0, 385.0, 387.0, 387.0, 387.0, 387.0, 387.0, 387.0, 387.0, 387.0, 387.0, 387.0, 387.0, 387.0, 387.0, 387.0, 387.0, 387.0, 387.0, 387.0, 387.0, 387.0, 387.0, 387.0, 387.0, 387.0, 387.0, 387.0, 387.0, 387.0, 387.0, 387.0, 387.0, 387.0, 387.0, 387.0, 387.0, 387.0, 387.0, 387.0, 387.0, 387.0, 387.0, 387.0, 387.0, 387.0, 387.0, 387.0, 387.0, 387.0, 387.0, 387.0, 387.0, 387.0, 387.0, 387.0, 387.0, 387.0, 387.0, 387.0, 387.0, 387.0, 387.0, 387.0, 387.0, 387.0, 387.0, 387.0, 387.0, 387.0, 387.0, 387.0, 387.0, 387.0, 387.0, 387.0, 387.0, 387.0, 387.0, 387.0, 387.0, 387.0, 387.0, 388.0, 382.0, 364.0, 346.0, 342.0, 342.0, 342.0, 342.0, 343.0, 343.0, 343.0, 344.0, 345.0, 345.0, 345.0, 345.0, 345.0, 345.0, 345.0, 345.0, 345.0, 345.0, 345.0, 345.0, 345.0, 345.0, 347.0, 349.0, 350.0, 351.0, 353.0, 353.0, 353.0, 354.0, 355.0, 358.0, 358.0, 359.0, 361.0, 362.0, 364.0, 367.0, 370.0, 370.0, 370.0]	[0.0145579616073519, 0.019061169965425506, 0.02634931556531228, 0.044870735437143594, 0.06131548434495926, 0.07679187107714824, 0.09472517389804125, 0.11172868520952761, 0.12655858692596667, 0.14498579883365892, 0.16147287306375802, 0.17679873187444173, 0.19472964535816573, 0.21149149278062396, 0.22659616771852598, 0.2447714757581707, 0.2656282970565371, 0.2763714168977458, 0.29889633337734267, 0.3113635269983206, 0.3263139193295501, 0.344855136499973, 0.36851669239695184, 0.37627314709243365, 0.4018369526602328, 0.4114871237252373, 0.4262822094897274, 0.44503368786536157, 0.4672548178350553, 0.476492999761831, 0.5006365180888679, 0.5115803418157157, 0.5263088675856125, 0.5448784154141322, 0.5670937427203171, 0.5764360312605277, 0.5980717748461757, 0.6115336132934317, 0.6265399842814077, 0.6450037188187707, 0.6643914422311354, 0.6767350732407067, 0.696566529746633, 0.7116476527007762, 0.7284712814143859, 0.7448907716898248, 0.7626813972310629, 0.7767156513873488, 0.7960252095072065, 0.8114981829130556, 0.8271448948944453, 0.8446365126292221, 0.8613959707145113, 0.8767129548650701, 0.8947329563088715, 0.9112876144936308, 0.9265237026847899, 0.9444546161685139, 0.9615967087447643, 0.9764935117855202, 0.9946933957980946, 1.0113050566287711, 1.0265199821442366, 1.0445734342501964, 1.0615708015393466, 1.0764979832456447, 1.0948193818621803, 1.1113252294017002, 1.126673616206972, 1.1444185031286906, 1.1615950703271665, 1.1765454626874998, 1.194784258666914, 1.216157175716944, 1.2263439225207549, 1.2492722947790753, 1.2613234032760374, 1.2763058809214272, 1.2948218394594733, 1.3186909258947708, 1.326288319338346, 1.3443496220861562, 1.361450413329294, 1.3762311630998738, 1.3947402949561365, 1.4218148411018774, 1.4306028046121355, 1.4504960424092133, 1.4614135834854096, 1.476265671895817, 1.4947952837392222, 1.5154425264918245, 1.5265071821631864, 1.5465598225709982, 1.561435804294888, 1.5763568419788498, 1.5948014618770685, 1.613066540507134, 1.6266621815448161, 1.6501216682081576, 1.6614901103894226, 1.678791264188476, 1.6949226692668162, 1.7123777643428184, 1.7268632609047927, 1.7447655024298, 1.7614020805631299, 1.776485592854442, 1.7943758876936045, 1.8134410512575414, 1.8265100152348168, 1.846580063633155, 1.8611450908356346, 1.8792371135787107, 1.8943885511544067, 1.911411518434761, 1.9266230306529906, 1.9455752129433677, 1.9613314928719774, 1.977236935403198, 1.994568126508966, 2.012048480246449, 2.0264732195064425, 2.045430863130605, 2.061143793776864, 2.076691177790053, 2.0945473393367138, 2.111531053291401, 2.126252069749171, 2.1450482628133614, 2.1613831024442334, 2.176679265277926, 2.194391725526657, 2.2116113007359672, 2.2263661091565154, 2.244843155698618, 2.261036000738386, 2.2767175287299324, 2.2944839196279645, 2.311612358869752, 2.3262548687052913, 2.344839093857445, 2.361119661509292, 2.376707322866423, 2.3945177457353566, 2.4116588142933324, 2.4263545721187256, 2.4448097733256873, 2.461363066191552, 2.4767152076528873, 2.494376467948314, 2.511518219165737, 2.5265764727955684, 2.5446790768473875, 2.561086620466085, 2.576669503148878, 2.598933982430026, 2.6155241392552853, 2.6263242617133074, 2.644841585570248, 2.6656431109295227, 2.6763456121261697, 2.6991760217642877, 2.7113759515050333, 2.726364914502483, 2.744677779788617, 2.761045728751924, 2.7766610380786005, 2.801820705208229, 2.8113022576726507, 2.8262659620086197, 2.8448167365277186, 2.8674665809376165, 2.876423504349077, 2.900701849255711, 2.9114746650739107, 2.926278625469422, 2.9448007280007005, 2.9610734450106975, 2.976394525147043, 2.9989842949144077, 3.0114579738583416, 3.026299480930902, 3.04475741283386, 3.0668717054941226, 3.076454975263914, 3.09660421294393, 3.1114859973313287, 3.1289366550627165, 3.14473969762912, 3.163067581568612, 3.176670390617801, 3.1963765778637026, 3.2115201647684444, 3.2276816071534995, 3.244727102428442, 3.262459360033972, 3.276700120739406, 3.295359780517174, 3.3115154202387203, 3.327174761565402, 3.344725429895334, 3.3615828506008256, 3.3765748855948914, 3.3946948976663407, 3.411178558540996, 3.429262730613118, 3.4444640028232243, 3.461806799285114, 3.4765441997442394, 3.495329811470583, 3.511350283253705, 3.527308632415952, 3.5446739568724297, 3.5621027692686766, 3.576485865894938, 3.595656501420308, 3.6112322161206976, 3.627630202390719, 3.6445773937157355, 3.662649619131116, 3.676486582698999, 3.695561986271059, 3.7110550983343273, 3.726688839669805, 3.7445074545394164, 3.7615130138292443, 3.7764821794989984, 3.7947892421507277, 3.8112756336922757, 3.8266489378293045, 3.8445733659900725, 3.861585069273133, 3.8765781282563694, 3.894796102948021, 3.9158720601408277, 3.926342113438295, 3.9444621255097445, 3.9616455193609, 3.976240583899198, 3.99465687313932, 4.019633585674455, 4.0262991396011785, 4.050499319215305, 4.061425052292179, 4.076284650014713, 4.094680459267693, 4.117399935639696, 4.126353445695713, 4.150618478626711, 4.161342825129395, 4.1763570467883255, 4.194639874738641, 4.214833144418662, 4.226477383781457, 4.248325095250038, 4.261436043219874]
25	衬衫	False	animate	inanimate	right	1.213	[0.0, 0.0, 0.0, 0.0, 0.0, 0.0, 0.0, 0.0, 0.0, 0.0, 0.0, 0.0, 0.0, 0.0, 0.0, 0.0, 0.0, 0.0, 0.0, 0.0, 0.0, 0.0, 0.0, 0.0, 0.0, 0.0, 0.0, 0.0, 0.0, 0.0, 0.0, 0.0, 0.0, 0.0, 0.0, 0.0, 2.0, 4.0, 4.0, 4.0, -19.0, -131.0, -181.0, -280.0, -382.0, -466.0, -514.0, -535.0, -535.0, -529.0, -510.0, -504.0, -424.0, -284.0, -224.0, -37.0, 33.0, 148.0, 261.0, 427.0, 471.0, 560.0, 601.0, 625.0, 645.0, 658.0, 661.0, 663.0, 665.0, 665.0, 668.0, 668.0, 670.0, 672.0]	[-490.0, -490.0, -490.0, -490.0, -490.0, -490.0, -490.0, -490.0, -490.0, -490.0, -490.0, -490.0, -490.0, -490.0, -490.0, -490.0, -490.0, -490.0, -490.0, -490.0, -490.0, -490.0, -490.0, -490.0, -490.0, -490.0, -490.0, -490.0, -490.0, -490.0, -490.0, -490.0, -490.0, -490.0, -490.0, -493.0, -507.0, -512.0, -512.0, -512.0, -490.0, -390.0, -344.0, -226.0, -97.0, 12.0, 82.0, 125.0, 130.0, 147.0, 170.0, 176.0, 232.0, 298.0, 321.0, 362.0, 373.0, 381.0, 381.0, 378.0, 374.0, 360.0, 356.0, 356.0, 356.0, 356.0, 356.0, 357.0, 358.0, 358.0, 361.0, 362.0, 365.0, 368.0]	[0.010953449324006215, 0.01530715374974534, 0.02020972190075554, 0.03887928035692312, 0.05540253588696942, 0.07338738001999445, 0.08869514818070456, 0.10676088827312924, 0.12048111591138877, 0.1407255855447147, 0.15534488472621888, 0.1715035964443814, 0.18862589169293642, 0.20663565312861465, 0.22067605127813295, 0.2391431991418358, 0.25533740952960216, 0.27081004160572775, 0.2886778084503021, 0.3057465143792797, 0.32056173880118877, 0.3389831480162684, 0.3554804622544907, 0.3707878890854772, 0.38881062119617127, 0.4055594979436137, 0.4204747329640668, 0.4390207288088277, 0.4555054137017578, 0.47075310721993446, 0.48877720467862673, 0.5055325667490251, 0.5206280256970786, 0.538990725617623, 0.555448786530178, 0.570729248051066, 0.5888226361130364, 0.6056776674813591, 0.6203939052938949, 0.6389122531400062, 0.6594792825926561, 0.6703087597270496, 0.6885502863733564, 0.7054660750436597, 0.7203277207736392, 0.7387771193461958, 0.7616399556281976, 0.7704559084377252, 0.7884550885646604, 0.8054630371916573, 0.8203400429047178, 0.8388515640981495, 0.8609306994476356, 0.8705231852072757, 0.8929764217173215, 0.9054948153207079, 0.9203803543641698, 0.9389007502177265, 0.9584396842110436, 0.9707228992483579, 0.9908786222513299, 1.0055344440916087, 1.0228512992325705, 1.0389011256629601, 1.0607938931207173, 1.0704669335100334, 1.0898590942379087, 1.1054593849403318, 1.1209879956441, 1.1385140880011022, 1.1553226980613545, 1.170527724956628, 1.1886832356394734, 1.205468976375414]
26	将军	True	animate	inanimate	left	0.93	[0.0, 0.0, 0.0, 0.0, 0.0, 0.0, 0.0, 0.0, 0.0, 0.0, 0.0, 1.0, 1.0, 1.0, 1.0, 1.0, 1.0, 1.0, 1.0, 1.0, 1.0, 1.0, 1.0, 1.0, 1.0, 1.0, 1.0, 1.0, 1.0, 1.0, 1.0, 1.0, 1.0, 1.0, 1.0, 1.0, 1.0, 1.0, 1.0, -3.0, -53.0, -145.0, -277.0, -421.0, -547.0, -668.0, -752.0, -803.0, -829.0, -839.0, -840.0, -840.0, -837.0, -836.0, -836.0, -836.0, -836.0]	[-490.0, -490.0, -490.0, -490.0, -490.0, -490.0, -490.0, -491.0, -491.0, -491.0, -492.0, -493.0, -493.0, -493.0, -493.0, -493.0, -493.0, -493.0, -493.0, -493.0, -493.0, -493.0, -493.0, -493.0, -493.0, -493.0, -493.0, -493.0, -493.0, -493.0, -493.0, -493.0, -493.0, -493.0, -493.0, -493.0, -493.0, -493.0, -493.0, -481.0, -418.0, -327.0, -209.0, -64.0, 83.0, 236.0, 368.0, 456.0, 505.0, 532.0, 540.0, 540.0, 540.0, 540.0, 540.0, 540.0, 540.0]	[0.015760102862259373, 0.024177719868021086, 0.029734965035459027, 0.052525097358739004, 0.0649407496675849, 0.07969385143951513, 0.09828524460317567, 0.11472760417382233, 0.13021457224385813, 0.1480642484384589, 0.16494863445404917, 0.17971197623410262, 0.19830200404976495, 0.22053815267281607, 0.22986064388533123, 0.24807383990264498, 0.2650155698938761, 0.27976628235774115, 0.29836245416663587, 0.31858746780199, 0.3298818406765349, 0.35396733236848377, 0.3650435933377594, 0.3798629137745593, 0.39834985896595754, 0.4167746815364808, 0.4301406053418759, 0.44952047811239026, 0.4650862941343803, 0.4826594904589001, 0.4982990344578866, 0.5196808261680417, 0.5299389115825761, 0.5489296645391732, 0.5649265843385365, 0.5809228214784525, 0.59817857798771, 0.6151080199924763, 0.6301932389324065, 0.6482572723471094, 0.664929349150043, 0.6798124988563359, 0.6981455027998891, 0.7148087049426977, 0.7302861156931613, 0.7478951519879047, 0.7644638048368506, 0.7799818342318758, 0.797922987723723, 0.8148019124055281, 0.8302530405053403, 0.8481078367040027, 0.8648485214507673, 0.8800214630027767, 0.8978718218859285, 0.9146957919292618, 0.9301052773662377]
27	葡萄	False	animate	inanimate	right	2.871	[0.0, 0.0, 0.0, 0.0, 0.0, 0.0, 0.0, -1.0, -2.0, -2.0, -2.0, -2.0, -2.0, -2.0, -2.0, -2.0, -2.0, -4.0, -5.0, -7.0, -9.0, -12.0, -18.0, -21.0, -30.0, -42.0, -42.0, -42.0, -42.0, -42.0, -42.0, -42.0, -42.0, -42.0, -42.0, -42.0, -42.0, -42.0, -42.0, -42.0, -42.0, -42.0, -42.0, -42.0, -42.0, -42.0, -43.0, -44.0, -44.0, -44.0, -44.0, -44.0, -44.0, -44.0, -44.0, -44.0, -44.0, -44.0, -44.0, -45.0, -46.0, -46.0, -46.0, -46.0, -47.0, -47.0, -47.0, -47.0, -47.0, -47.0, -47.0, -47.0, -47.0, -47.0, -47.0, -47.0, -47.0, -47.0, -47.0, -47.0, -47.0, -47.0, -47.0, -47.0, -47.0, -47.0, -45.0, -44.0, -40.0, -38.0, -35.0, -35.0, -35.0, -35.0, -35.0, -35.0, -35.0, -35.0, -35.0, -38.0, -47.0, -49.0, -49.0, -47.0, -41.0, -34.0, -29.0, -27.0, -25.0, -25.0, -25.0, -25.0, -25.0, -25.0, -25.0, -25.0, -25.0, -25.0, -25.0, -25.0, -25.0, -25.0, -25.0, -25.0, -96.0, -134.0, -180.0, -348.0, -521.0, -572.0, -665.0, -724.0, -763.0, -793.0, -859.0, -881.0, -950.0, -960.0, -960.0, -960.0, -960.0, -960.0, -956.0, -943.0, -916.0, -866.0, -741.0, -687.0, -492.0, -333.0, -249.0, -1.0, 153.0, 288.0, 418.0, 526.0, 607.0, 667.0, 716.0, 741.0, 759.0, 763.0, 765.0, 765.0, 765.0, 768.0, 786.0, 814.0, 839.0, 853.0, 854.0, 854.0, 854.0, 854.0]	[-490.0, -490.0, -490.0, -490.0, -490.0, -489.0, -484.0, -483.0, -481.0, -481.0, -481.0, -481.0, -479.0, -477.0, -477.0, -477.0, -475.0, -471.0, -467.0, -463.0, -459.0, -455.0, -450.0, -449.0, -442.0, -426.0, -426.0, -426.0, -426.0, -426.0, -426.0, -426.0, -426.0, -426.0, -426.0, -426.0, -426.0, -426.0, -426.0, -426.0, -420.0, -412.0, -405.0, -399.0, -392.0, -388.0, -382.0, -378.0, -377.0, -377.0, -377.0, -377.0, -377.0, -377.0, -377.0, -377.0, -377.0, -377.0, -377.0, -373.0, -372.0, -371.0, -371.0, -371.0, -370.0, -367.0, -367.0, -363.0, -362.0, -360.0, -359.0, -359.0, -359.0, -359.0, -359.0, -359.0, -359.0, -359.0, -359.0, -359.0, -359.0, -359.0, -359.0, -357.0, -348.0, -327.0, -307.0, -297.0, -271.0, -254.0, -233.0, -207.0, -162.0, -100.0, -29.0, 36.0, 93.0, 142.0, 184.0, 224.0, 286.0, 325.0, 349.0, 372.0, 389.0, 399.0, 405.0, 408.0, 409.0, 409.0, 409.0, 409.0, 409.0, 409.0, 409.0, 409.0, 409.0, 409.0, 409.0, 409.0, 409.0, 409.0, 409.0, 410.0, 422.0, 422.0, 422.0, 424.0, 424.0, 424.0, 424.0, 424.0, 425.0, 425.0, 430.0, 430.0, 437.0, 440.0, 448.0, 452.0, 454.0, 458.0, 462.0, 467.0, 470.0, 470.0, 470.0, 470.0, 470.0, 470.0, 470.0, 470.0, 470.0, 470.0, 470.0, 470.0, 470.0, 470.0, 470.0, 470.0, 470.0, 470.0, 470.0, 470.0, 470.0, 468.0, 464.0, 455.0, 452.0, 449.0, 449.0, 449.0, 449.0, 449.0]	[0.006191510445205495, 0.01501053525134921, 0.019446500984486192, 0.029087797389365733, 0.04524207179201767, 0.06077443715184927, 0.078557212051237, 0.09797667944803834, 0.1107517555647064, 0.12880247700377367, 0.14579916163347661, 0.1606116553884931, 0.179155261896085, 0.19611405854811892, 0.21020463266177103, 0.23109865927835926, 0.24509809745359235, 0.26278905372601, 0.2784640963654965, 0.29645747382892296, 0.3105651146033779, 0.32888924388680607, 0.3452237421879545, 0.3619005976652261, 0.3790993514994625, 0.3954236098215915, 0.410271602217108, 0.429007037950214, 0.44514322170289233, 0.46063360309926793, 0.4791072363150306, 0.4955478892370593, 0.5102545697009191, 0.5288927254732698, 0.5451439385069534, 0.5606995145208202, 0.5785840066964738, 0.595660221966682, 0.6104010357521474, 0.6288412183057517, 0.6452972312108614, 0.6606756553519517, 0.6785434221965261, 0.6955179201613646, 0.7108082803315483, 0.7289245377469342, 0.7498540630331263, 0.7603845323028509, 0.782593374256976, 0.795404631702695, 0.8103359093947802, 0.8288709825719707, 0.8496445186028723, 0.8603627211123239, 0.8829483948647976, 0.8955179884505924, 0.9102714315522462, 0.9288529260375071, 0.9519045195775107, 0.9604385312122758, 0.9853282037947793, 0.9955634198850021, 1.0102864843502175, 1.0289055254834238, 1.0514966605696827, 1.060411941347411, 1.0830242391093634, 1.0956037313153502, 1.1104554783960339, 1.128833538328763, 1.149346637132112, 1.1605232500878628, 1.1815162633429281, 1.1956112748011947, 1.2105626911506988, 1.2288663404469844, 1.2506109692913014, 1.2604874442331493, 1.2805694392882288, 1.2955891222809441, 1.3129117800563108, 1.3288366785855033, 1.346944402641384, 1.3606977396120783, 1.3795840445964132, 1.39552805776475, 1.411477532266872, 1.4287121261004359, 1.4495184301340487, 1.4606308724323753, 1.4786010392417666, 1.4953212440013885, 1.5105133002216462, 1.528664373588981, 1.5451224345015362, 1.5604865226487163, 1.5785816173884086, 1.595379646110814, 1.6105508810142055, 1.6284715544898063, 1.6452699245710392, 1.6604814367892686, 1.6786205634998623, 1.6954759361979086, 1.7105864137993194, 1.7284992366330698, 1.745095196121838, 1.7605442762142047, 1.7785294616769534, 1.795393367705401, 1.810319184063701, 1.8332042070105672, 1.8452672621642705, 1.8603511157853063, 1.8787496557051782, 1.8998645248939283, 1.9103809994994663, 1.9329035266418941, 1.9443613981129602, 1.9603190645866562, 1.9786452418775298, 1.999872068350669, 2.0103523616562597, 2.0359591752057895, 2.0453663170628715, 2.0602726774231996, 2.078900593216531, 2.101362704386702, 2.1104664010636043, 2.1286058691039216, 2.145476601785049, 2.1605338314257096, 2.178795838059159, 2.2008562000992242, 2.210454488522373, 2.234101367095718, 2.2454233879689127, 2.262889747013105, 2.2790074987569824, 2.2971633507986553, 2.3108890397707, 2.329838150064461, 2.345503976714099, 2.362918111786712, 2.3788153623172548, 2.39593765756581, 2.410694855323527, 2.4291176299157087, 2.4453865922405384, 2.460524717811495, 2.478337188716978, 2.495238641393371, 2.5103951989440247, 2.528445920383092, 2.5450947865319904, 2.561899983265903, 2.5785601133829914, 2.5954011500871275, 2.610532107675681, 2.6308431372744963, 2.645230671245372, 2.663467077916721, 2.6785922328417655, 2.6977935883332975, 2.7105864137993194, 2.730271779699251, 2.7450777881313115, 2.7616051396762487, 2.7784680217155255, 2.796045655355556, 2.810367312049493, 2.8291249344474636, 2.8452027502062265, 2.860855264851125]
28	绵羊	True	inanimate	animate	right	2.032	[0.0, 0.0, 0.0, 0.0, 0.0, 0.0, 0.0, 0.0, 0.0, 0.0, 0.0, 0.0, 0.0, 0.0, 0.0, 0.0, 0.0, 0.0, 0.0, 0.0, 0.0, 0.0, 0.0, 0.0, 0.0, 0.0, 0.0, 0.0, 0.0, 0.0, 0.0, 1.0, 3.0, 5.0, 7.0, 9.0, 10.0, 12.0, 13.0, 15.0, 17.0, 18.0, 19.0, 20.0, 20.0, 20.0, 21.0, 21.0, 21.0, 21.0, 21.0, 21.0, 21.0, 23.0, 23.0, 25.0, 28.0, 31.0, 35.0, 38.0, 39.0, 39.0, 39.0, 39.0, 39.0, 39.0, 34.0, -1.0, -41.0, -81.0, -127.0, -174.0, -215.0, -244.0, -286.0, -303.0, -369.0, -415.0, -440.0, -488.0, -511.0, -532.0, -566.0, -578.0, -601.0, -618.0, -640.0, -643.0, -644.0, -628.0, -570.0, -445.0, -261.0, -85.0, 120.0, 175.0, 259.0, 322.0, 368.0, 409.0, 465.0, 507.0, 545.0, 578.0, 606.0, 633.0, 654.0, 670.0, 680.0, 687.0, 696.0, 702.0, 704.0, 704.0, 704.0, 706.0, 710.0, 714.0, 717.0, 717.0, 717.0, 717.0]	[-490.0, -490.0, -490.0, -490.0, -490.0, -490.0, -490.0, -490.0, -490.0, -490.0, -490.0, -490.0, -490.0, -490.0, -490.0, -490.0, -490.0, -490.0, -490.0, -490.0, -490.0, -490.0, -490.0, -490.0, -490.0, -490.0, -490.0, -490.0, -490.0, -490.0, -490.0, -490.0, -490.0, -490.0, -490.0, -490.0, -490.0, -490.0, -490.0, -490.0, -490.0, -490.0, -490.0, -490.0, -490.0, -490.0, -490.0, -490.0, -490.0, -490.0, -490.0, -490.0, -490.0, -490.0, -490.0, -486.0, -482.0, -473.0, -455.0, -434.0, -402.0, -340.0, -231.0, -129.0, -36.0, 30.0, 64.0, 166.0, 232.0, 287.0, 332.0, 364.0, 390.0, 408.0, 432.0, 440.0, 469.0, 489.0, 495.0, 505.0, 507.0, 507.0, 505.0, 502.0, 495.0, 490.0, 475.0, 470.0, 456.0, 446.0, 437.0, 429.0, 427.0, 427.0, 427.0, 432.0, 443.0, 443.0, 443.0, 443.0, 441.0, 434.0, 429.0, 425.0, 420.0, 419.0, 417.0, 417.0, 417.0, 418.0, 421.0, 422.0, 423.0, 424.0, 425.0, 427.0, 427.0, 427.0, 427.0, 427.0, 427.0, 427.0]	[0.014098185842158273, 0.018731442134594545, 0.02621892630122602, 0.04495333804516122, 0.06685941750765778, 0.07657102853409015, 0.09651649033185095, 0.11170035455143079, 0.12649475762736984, 0.14502744146739133, 0.1628798483288847, 0.17682433186564595, 0.19951616023899987, 0.21163417003117502, 0.2276682951778639, 0.2448015130648855, 0.26179068835335784, 0.27683631266700104, 0.2949372100702021, 0.31150995890493505, 0.3264347512740642, 0.34470460857846774, 0.3628826472850051, 0.37652778162737377, 0.39628073151106946, 0.41136458510300145, 0.42766597410081886, 0.44474014136358164, 0.4623979883326683, 0.4764520397875458, 0.4960189631092362, 0.5115175365062896, 0.5278885574662127, 0.5448077594628558, 0.5622352065402083, 0.5766408311610576, 0.5950328857579734, 0.6114728559914511, 0.6266611575556453, 0.6448439749074169, 0.6616263023170177, 0.6766401826171204, 0.6949199385999236, 0.7114609434793238, 0.7267881676089019, 0.7448798490222543, 0.7617205443966668, 0.7765948194428347, 0.7950336366775446, 0.8113626736449078, 0.82677830310422, 0.844818101846613, 0.8617239918676205, 0.8766091895813588, 0.894909084221581, 0.9114340464002453, 0.9267435212386772, 0.9449297519167885, 0.9617431406513788, 0.9766870476596523, 0.9947944303858094, 1.0112330353294965, 1.0267077153839637, 1.0491264772426803, 1.0614308549556881, 1.0766536311421078, 1.094816309865564, 1.1112255601328798, 1.1267551948258188, 1.1444935964245815, 1.1614988143846858, 1.1764137080754153, 1.1948190746479668, 1.2174443430558313, 1.2264999117760453, 1.2506697127246298, 1.261486560513731, 1.2764024782227352, 1.2948474394506775, 1.3153345969622023, 1.3266013218380976, 1.3488746757793706, 1.3614483653509524, 1.3766953762096819, 1.3948553242371418, 1.4142696716298815, 1.4267180919123348, 1.4476042678870726, 1.4615501167427283, 1.4764684237889014, 1.4947840197419282, 1.5135054608108476, 1.5267966326791793, 1.550210039364174, 1.5615061189164408, 1.5794237203954253, 1.594829451176338, 1.6128982632653788, 1.626858106785221, 1.6463663207832724, 1.6615297050448135, 1.678369717730675, 1.6948694213060662, 1.7132379238901194, 1.7268188876041677, 1.7473200397798792, 1.7615215471596457, 1.7794176446623169, 1.7949005167465657, 1.812752923608059, 1.8268021964177024, 1.8459445012849756, 1.861590530606918, 1.8792664682259783, 1.8948019055824261, 1.912282259319909, 1.9268595745088533, 1.9445314161421265, 1.9611557062889915, 1.976371314493008, 1.9945080518664327, 2.012916490464704]
29	蚯蚓	True	inanimate	animate	right	1.506	[0.0, 0.0, 0.0, 0.0, 0.0, 0.0, 0.0, 0.0, 0.0, 0.0, 0.0, 1.0, 1.0, 1.0, 1.0, 1.0, 1.0, 1.0, 1.0, 0.0, 0.0, 0.0, 0.0, 0.0, 0.0, -1.0, -1.0, -3.0, -10.0, -24.0, -28.0, -40.0, -40.0, -40.0, -33.0, -9.0, -3.0, -2.0, -47.0, -79.0, -195.0, -273.0, -348.0, -418.0, -483.0, -544.0, -586.0, -632.0, -644.0, -673.0, -680.0, -681.0, -681.0, -680.0, -679.0, -677.0, -677.0, -677.0, -677.0, -686.0, -692.0, -719.0, -733.0, -738.0, -739.0, -739.0, -734.0, -712.0, -697.0, -616.0, -483.0, -203.0, -95.0, 105.0, 358.0, 431.0, 594.0, 648.0, 685.0, 712.0, 730.0, 742.0, 754.0, 757.0, 761.0, 768.0, 779.0, 779.0, 780.0, 780.0, 780.0]	[-490.0, -490.0, -490.0, -490.0, -490.0, -490.0, -490.0, -490.0, -490.0, -490.0, -490.0, -489.0, -489.0, -488.0, -488.0, -486.0, -486.0, -485.0, -485.0, -484.0, -483.0, -482.0, -480.0, -478.0, -477.0, -475.0, -474.0, -464.0, -442.0, -377.0, -348.0, -252.0, -203.0, -125.0, -67.0, 0.0, 19.0, 48.0, 109.0, 128.0, 175.0, 195.0, 211.0, 228.0, 247.0, 269.0, 283.0, 301.0, 304.0, 313.0, 314.0, 314.0, 316.0, 316.0, 318.0, 322.0, 328.0, 339.0, 348.0, 368.0, 376.0, 399.0, 409.0, 414.0, 416.0, 417.0, 419.0, 422.0, 424.0, 426.0, 426.0, 426.0, 426.0, 426.0, 426.0, 426.0, 426.0, 426.0, 428.0, 432.0, 434.0, 438.0, 442.0, 443.0, 447.0, 451.0, 455.0, 455.0, 455.0, 455.0, 455.0]	[0.008758335781749338, 0.013046162930550054, 0.018331365543417633, 0.034637874545296654, 0.057196924317395315, 0.07429942223825492, 0.09003965949523263, 0.10125450175837614, 0.11657080324948765, 0.13558988683507778, 0.15795608339249156, 0.16606376989511773, 0.19379265169845894, 0.20273831114172935, 0.21596667770063505, 0.2346147321513854, 0.26203675544820726, 0.27078478297335096, 0.2843421946745366, 0.3012767566833645, 0.31645345292054117, 0.3343956304015592, 0.3542475668946281, 0.36619286210043356, 0.39893353867228143, 0.40526185542694293, 0.4159650392830372, 0.4345393657858949, 0.46106880286242813, 0.46701311983633786, 0.4899032627581619, 0.5012140196340624, 0.516528614476556, 0.5348326051025651, 0.5573711748875212, 0.5661222744092811, 0.5841450065199751, 0.600922555255238, 0.6161047128261998, 0.6341581649030559, 0.6510968228976708, 0.6661018285667524, 0.6854137759946752, 0.7008703654282726, 0.7165723733778577, 0.7342537723307032, 0.7522700191184413, 0.7662264492828399, 0.7854882207757328, 0.8008338769141119, 0.8190074782760348, 0.8343538170738611, 0.8525052317709196, 0.8660906328295823, 0.8857626867538784, 0.9008543910167646, 0.9182412194495555, 0.9341927419591229, 0.9524233459669631, 0.9664722774468828, 0.9845236815162934, 1.001151385018602, 1.0159867480688263, 1.034433757304214, 1.0523793481115717, 1.0663217836408876, 1.0892030519316904, 1.1011145551747177, 1.1160560728458222, 1.1340347729856148, 1.1515332173439674, 1.1662218071578536, 1.1840731900301762, 1.201024136011256, 1.216006955015473, 1.234068599093007, 1.2511584676685743, 1.2664481451793108, 1.2871151852596086, 1.3009374715329614, 1.3165695061907172, 1.3353482912352774, 1.3509663312288467, 1.366007859527599, 1.38438762613805, 1.4122943425027188, 1.4226039692293853, 1.4341638993064407, 1.451238407898927, 1.4665704107028432, 1.4881798716669437]
30	太阳	False	inanimate	animate	left	1.219	[0.0, 0.0, 0.0, 0.0, 0.0, 0.0, 0.0, 0.0, 0.0, 0.0, 0.0, 0.0, 0.0, 0.0, 0.0, 0.0, 0.0, 0.0, 0.0, 0.0, 0.0, 0.0, 0.0, 3.0, 9.0, 10.0, 10.0, 10.0, 10.0, 10.0, 10.0, 10.0, 10.0, 10.0, 10.0, 10.0, 8.0, -21.0, -117.0, -162.0, -317.0, -425.0, -481.0, -610.0, -658.0, -668.0, -686.0, -691.0, -696.0, -697.0, -699.0, -699.0, -700.0, -700.0, -700.0, -700.0, -700.0, -700.0, -694.0, -690.0, -681.0, -675.0, -671.0, -671.0, -673.0, -682.0, -704.0, -746.0, -789.0, -820.0, -830.0, -830.0, -830.0, -830.0]	[-490.0, -490.0, -490.0, -490.0, -490.0, -490.0, -490.0, -490.0, -490.0, -490.0, -490.0, -490.0, -490.0, -490.0, -490.0, -490.0, -490.0, -490.0, -490.0, -490.0, -490.0, -490.0, -490.0, -488.0, -484.0, -483.0, -483.0, -483.0, -483.0, -483.0, -483.0, -483.0, -483.0, -483.0, -483.0, -483.0, -480.0, -459.0, -386.0, -348.0, -212.0, -106.0, -50.0, 71.0, 129.0, 145.0, 185.0, 196.0, 210.0, 214.0, 220.0, 221.0, 226.0, 227.0, 228.0, 233.0, 235.0, 236.0, 241.0, 245.0, 254.0, 265.0, 285.0, 291.0, 303.0, 314.0, 339.0, 388.0, 436.0, 472.0, 489.0, 491.0, 492.0, 492.0]	[0.015653948270482942, 0.020569145737681538, 0.02754292351892218, 0.04614319131360389, 0.06402529415208846, 0.07785201774095185, 0.09701036527985707, 0.11268916257540695, 0.1290533568826504, 0.14601556686102413, 0.16313786208047532, 0.17793704383075237, 0.19581982935778797, 0.21245197017560713, 0.23045149163226597, 0.24592685437528417, 0.2637481999117881, 0.27771418742486276, 0.2963069459074177, 0.3126561215321999, 0.32788640705985017, 0.34593064317596145, 0.3629587304312736, 0.3778644081321545, 0.3961769321176689, 0.41238206514390185, 0.4279274011787493, 0.44592589864623733, 0.4628338366455864, 0.47773849035729654, 0.49613907825550996, 0.512414184602676, 0.5278557553538121, 0.5500912212883122, 0.562667300197063, 0.5778835910605267, 0.5960804030764848, 0.6166849792061839, 0.6276011549343821, 0.6460474815103225, 0.6627216062915977, 0.6777470919478219, 0.6960200212488417, 0.7170724264578894, 0.7275349704432301, 0.7501097215572372, 0.7625769151782151, 0.7776580381323583, 0.7959613460698165, 0.8190023582719732, 0.8276247752073687, 0.8517809228214901, 0.862495712004602, 0.8774836510128807, 0.8960620735015254, 0.9183692194055766, 0.9275821426999755, 0.9520140875247307, 0.9624445461668074, 0.977587450412102, 0.9960378729738295, 1.0152231858228333, 1.0278525126923341, 1.047588395915227, 1.0626763455220498, 1.0804345444194041, 1.096060093754204, 1.1147907508420758, 1.1279938587395009, 1.1477266699657775, 1.1627654675976373, 1.1806178744591307, 1.1961539945041295, 1.217790079448605]
31	燕子	True	animate	inanimate	left	2.033	[0.0, 0.0, 0.0, 0.0, 0.0, 0.0, 0.0, 0.0, 0.0, 0.0, 0.0, 0.0, 0.0, 0.0, 0.0, 0.0, 0.0, 0.0, 0.0, 0.0, 0.0, 0.0, 0.0, 0.0, 0.0, 0.0, 0.0, 0.0, 0.0, 0.0, 0.0, 0.0, 0.0, 0.0, 0.0, 0.0, 0.0, 0.0, 0.0, 0.0, 0.0, 0.0, 0.0, 0.0, 0.0, 0.0, 0.0, 0.0, 0.0, 0.0, 0.0, 0.0, 0.0, 0.0, 0.0, 0.0, 0.0, 0.0, 0.0, 0.0, 0.0, 1.0, 1.0, 1.0, 1.0, 1.0, 1.0, 1.0, 1.0, 1.0, 1.0, 1.0, 1.0, 1.0, 1.0, 1.0, 1.0, 1.0, 1.0, 4.0, 7.0, 15.0, 30.0, 54.0, 89.0, 137.0, 188.0, 239.0, 271.0, 286.0, 286.0, 227.0, 145.0, 42.0, -72.0, -193.0, -318.0, -412.0, -481.0, -526.0, -582.0, -617.0, -666.0, -721.0, -777.0, -830.0, -861.0, -875.0, -883.0, -887.0, -888.0, -888.0, -888.0, -887.0, -886.0, -880.0, -875.0, -870.0, -866.0, -864.0, -864.0, -864.0]	[-490.0, -490.0, -490.0, -490.0, -490.0, -490.0, -490.0, -490.0, -490.0, -490.0, -490.0, -490.0, -490.0, -490.0, -490.0, -490.0, -490.0, -490.0, -490.0, -490.0, -490.0, -490.0, -490.0, -490.0, -490.0, -490.0, -490.0, -490.0, -490.0, -490.0, -490.0, -490.0, -490.0, -490.0, -490.0, -490.0, -490.0, -490.0, -490.0, -490.0, -490.0, -490.0, -490.0, -490.0, -490.0, -490.0, -490.0, -490.0, -490.0, -490.0, -490.0, -490.0, -490.0, -490.0, -490.0, -490.0, -485.0, -481.0, -477.0, -471.0, -467.0, -467.0, -466.0, -466.0, -466.0, -466.0, -466.0, -466.0, -466.0, -466.0, -466.0, -466.0, -466.0, -466.0, -466.0, -466.0, -466.0, -466.0, -465.0, -461.0, -453.0, -431.0, -384.0, -322.0, -241.0, -164.0, -88.0, -24.0, 20.0, 82.0, 96.0, 161.0, 201.0, 235.0, 267.0, 302.0, 342.0, 383.0, 417.0, 442.0, 477.0, 492.0, 507.0, 523.0, 536.0, 540.0, 540.0, 540.0, 540.0, 539.0, 536.0, 532.0, 523.0, 510.0, 505.0, 487.0, 478.0, 471.0, 467.0, 465.0, 465.0, 465.0]	[0.013937076611910015, 0.01875226348056458, 0.025878617190755904, 0.044687439542030916, 0.061105564469471574, 0.07644132195855491, 0.09438896077335812, 0.1112497948051896, 0.12624217112897895, 0.14457790573942475, 0.16108375327894464, 0.17656901470036246, 0.19435315491864458, 0.2112993222544901, 0.22627053590258583, 0.2445240092347376, 0.26111484874854796, 0.2765311608382035, 0.2944661703368183, 0.31127239105990157, 0.3262647673836909, 0.3445458886853885, 0.3609155442973133, 0.3765308536530938, 0.3944484551320784, 0.4113191878423095, 0.4262426148634404, 0.444543874822557, 0.46096438908716664, 0.47646364514366724, 0.49445156127330847, 0.5113813446077984, 0.5262668836512603, 0.5444916849955916, 0.561043953843182, 0.5765046392625663, 0.5944464754138608, 0.611292973451782, 0.6260133072501048, 0.6443558685132302, 0.6610678813012782, 0.6764865827281028, 0.6943997468915768, 0.7112674076051917, 0.7263021092221607, 0.7445842545421328, 0.7610788380843587, 0.7764944675145671, 0.7942765597545076, 0.8112718790653162, 0.826014058169676, 0.8444064540963154, 0.8611587441700976, 0.876534778974019, 0.8943998151517007, 0.9113603184814565, 0.9260847482655663, 0.9444757788442075, 0.9611202076775953, 0.9765856717422139, 0.9944971292570699, 1.0113296326308046, 1.0262704676424619, 1.0445785542833619, 1.0609748338756617, 1.07650344457943, 1.0944340167334303, 1.1113173787598498, 1.12631385109853, 1.1445816603954881, 1.1609950066776946, 1.1764256547612604, 1.1944364402152132, 1.211297956906492, 1.226282482559327, 1.244507625233382, 1.2612315846781712, 1.2765615395037457, 1.2945299996354152, 1.3113184710382484, 1.3262548687052913, 1.34449468870298, 1.3611363868694752, 1.3765011576469988, 1.3943938418233301, 1.411153641238343, 1.4262183801911306, 1.4444663921894971, 1.4611159409978427, 1.476563655771315, 1.4943430173152592, 1.5111864433565643, 1.526279171637725, 1.5445695089292713, 1.5612036977545358, 1.5764892792794853, 1.594378550100373, 1.6111854535120074, 1.6262215204769745, 1.6444992284523323, 1.6609613853506744, 1.67652583605377, 1.6943475229199976, 1.71122371693491, 1.7262997198849916, 1.74452861721511, 1.7611385713971686, 1.7765149475308135, 1.7943782770307735, 1.8111670897633303, 1.8260475088318344, 1.8444856433779933, 1.8609938802546822, 1.8765303416294046, 1.894352028524736, 1.911239827866666, 1.9260192123183515, 1.9443528989213519, 1.9608860531297978, 1.9765225251030643, 1.9941124467877671, 2.0111651100451127]
32	海豚	True	animate	inanimate	left	1.621	[0.0, 0.0, 0.0, 0.0, 0.0, 0.0, 0.0, 0.0, 0.0, 0.0, 0.0, 0.0, 0.0, 0.0, 0.0, 0.0, 0.0, 0.0, 0.0, 0.0, 0.0, 0.0, 2.0, 2.0, 3.0, 4.0, 4.0, 4.0, 4.0, 4.0, 4.0, 4.0, 4.0, 4.0, 4.0, 4.0, 4.0, 4.0, 4.0, 4.0, 4.0, 4.0, 4.0, 4.0, 4.0, 4.0, 4.0, 4.0, 4.0, 4.0, 4.0, 4.0, 4.0, 4.0, 4.0, 4.0, 4.0, 4.0, 4.0, 4.0, 4.0, 4.0, 4.0, 4.0, 4.0, 4.0, 3.0, 0.0, -6.0, -31.0, -111.0, -177.0, -256.0, -342.0, -425.0, -505.0, -592.0, -661.0, -709.0, -745.0, -766.0, -776.0, -782.0, -787.0, -795.0, -802.0, -811.0, -814.0, -814.0, -814.0, -814.0, -814.0, -814.0, -814.0, -814.0, -814.0, -813.0, -806.0]	[-490.0, -490.0, -490.0, -490.0, -490.0, -490.0, -490.0, -490.0, -490.0, -490.0, -490.0, -490.0, -490.0, -490.0, -490.0, -490.0, -490.0, -490.0, -490.0, -490.0, -490.0, -490.0, -490.0, -490.0, -488.0, -487.0, -485.0, -485.0, -485.0, -485.0, -485.0, -485.0, -485.0, -485.0, -485.0, -485.0, -485.0, -485.0, -485.0, -485.0, -485.0, -485.0, -485.0, -485.0, -485.0, -485.0, -485.0, -485.0, -485.0, -485.0, -485.0, -482.0, -482.0, -481.0, -480.0, -479.0, -479.0, -479.0, -479.0, -477.0, -477.0, -473.0, -471.0, -468.0, -463.0, -458.0, -452.0, -442.0, -422.0, -368.0, -241.0, -161.0, -62.0, 28.0, 104.0, 183.0, 271.0, 339.0, 383.0, 414.0, 435.0, 449.0, 462.0, 472.0, 484.0, 493.0, 505.0, 510.0, 512.0, 512.0, 512.0, 512.0, 512.0, 512.0, 512.0, 512.0, 510.0, 501.0]	[0.0019143328827340156, 0.007655215275008231, 0.019216852029785514, 0.037178826809395105, 0.05413659947225824, 0.06911771179875359, 0.08734797447687015, 0.10374937407323159, 0.11940666739246808, 0.13730344755458646, 0.15422776955529116, 0.16910272729001008, 0.18735620059305802, 0.2039982400892768, 0.21944015217013657, 0.23733454299508594, 0.25418411305872723, 0.26911743872915395, 0.2873866133741103, 0.3038190742954612, 0.31940639432286844, 0.33731955848634243, 0.3541820991958957, 0.36910791555419564, 0.3874603754666168, 0.40398567900410853, 0.4194289564329665, 0.4373069632856641, 0.45417359998100437, 0.46883078714017756, 0.48731363634578884, 0.5039420225075446, 0.5194300145667512, 0.537300512107322, 0.55417226877762, 0.5689622345380485, 0.5873034304822795, 0.6037785580556374, 0.619325259438483, 0.6373626688728109, 0.6541484096087515, 0.6691332765913103, 0.6875376191746909, 0.7039615467656404, 0.7193843442073558, 0.7373016043566167, 0.7541921343654394, 0.76919952937169, 0.7873867840389721, 0.8040182421973441, 0.8194267036451492, 0.8373088064836338, 0.8541553045215551, 0.869123787531862, 0.8874694208207075, 0.9038254230981693, 0.9194205937674269, 0.9373160086106509, 0.9543987092038151, 0.9691326963366009, 0.9873551083437633, 1.0039493611548096, 1.0194595399079844, 1.037372362712631, 1.0541499114769977, 1.0690613918413874, 1.087393371766666, 1.1039548566332087, 1.1193353287526406, 1.1370501783676445, 1.15391920437105, 1.1692450632108375, 1.187349715270102, 1.2039559147669934, 1.2194323014991824, 1.2370727404777426, 1.2540168598061427, 1.2691338227305096, 1.2873507734038867, 1.303911916911602, 1.31939376500668, 1.3371840492181946, 1.3540926699060947, 1.3691089395433664, 1.3873825515038334, 1.4036436631868128, 1.419372977805324, 1.4372475713316817, 1.4540718827047385, 1.469200450956123, 1.4873317270248663, 1.5038423532096203, 1.5192419399973005, 1.5370315415784717, 1.5540101355290972, 1.569116517144721, 1.5873935424315277, 1.6038550166704226]
