trialIndex	stimulus	left_option	right_option	response	response_time	xTrajectory	yTrajectory	tTrajectory
0	animate/a41.jpg	inanimate	animate	right	1.036	[0.0, 0.0, 0.0, 0.0, 0.0, -1.0, -1.0, -1.0, -1.0, -1.0, -1.0, -1.0, -2.0, -2.0, 0.0, 2.0, 3.0, 3.0, 5.0, 5.0, -4.0, -16.0, -31.0, -38.0, -39.0, -39.0, -39.0, -39.0, -39.0, -42.0, -50.0, -62.0, -76.0, -90.0, -98.0, -100.0, -100.0, -100.0, -100.0, -100.0, -100.0, -100.0, -99.0, -95.0, -91.0, -89.0, -86.0, -78.0, -51.0, 4.0, 105.0, 317.0, 465.0, 623.0, 773.0, 911.0, 959.0, 959.0, 959.0, 959.0, 958.0, 958.0, 958.0]	[-490.0, -490.0, -490.0, -490.0, -490.0, -490.0, -490.0, -490.0, -490.0, -490.0, -490.0, -490.0, -490.0, -490.0, -488.0, -487.0, -487.0, -487.0, -486.0, -475.0, -449.0, -417.0, -383.0, -356.0, -353.0, -352.0, -352.0, -352.0, -351.0, -350.0, -346.0, -344.0, -339.0, -335.0, -333.0, -332.0, -332.0, -332.0, -332.0, -332.0, -332.0, -332.0, -332.0, -332.0, -333.0, -333.0, -333.0, -333.0, -328.0, -301.0, -242.0, -83.0, 42.0, 171.0, 291.0, 397.0, 464.0, 501.0, 511.0, 513.0, 517.0, 517.0, 517.0]	[0.008154585695592687, 0.013324759056558833, 0.01766003150260076, 0.031548536382615566, 0.047780293418327346, 0.06496744195464998, 0.08111966834985651, 0.09830613422673196, 0.11447235525702126, 0.1318134450702928, 0.14783733017975464, 0.1650295987201389, 0.18121732375584543, 0.19838467496447265, 0.21451266671647318, 0.23185136716347188, 0.24787627629120834, 0.2650842461443972, 0.2812047285551671, 0.2982631945051253, 0.31466152210487053, 0.33159028145018965, 0.3480302516836673, 0.3649020083830692, 0.381568282522494, 0.39844208720023744, 0.41595179558498785, 0.4317828274797648, 0.44915497858892195, 0.4651604317186866, 0.48259265747037716, 0.4983537160442211, 0.5151268274639733, 0.531719032296678, 0.5483450291212648, 0.5646170634718146, 0.581670750718331, 0.5981680649565533, 0.6145568352367263, 0.6313842186063994, 0.6506296060979366, 0.6648222388175782, 0.6825705390656367, 0.6981967710598838, 0.7149429171695374, 0.7315525299927685, 0.7482355294632725, 0.7646348810521886, 0.7815660297055729, 0.798061978595797, 0.8150262365816161, 0.8315187721455004, 0.8482983688882086, 0.8648448350722902, 0.881683482468361, 0.897872572822962, 0.9150310493714642, 0.9315515742637217, 0.9483222963463049, 0.9644673547300044, 0.9815985246386845, 0.9980497588694561, 1.0149317555769812]
1	animate/a20.jpg	animate	inanimate	left	0.914	[0.0, 0.0, 0.0, 0.0, 0.0, 0.0, 0.0, 0.0, 0.0, 0.0, 0.0, 0.0, 0.0, 0.0, 0.0, 0.0, 0.0, 0.0, 0.0, 0.0, 9.0, 20.0, 23.0, 23.0, 23.0, 23.0, 23.0, 23.0, 23.0, 23.0, 24.0, 12.0, -36.0, -111.0, -199.0, -306.0, -437.0, -551.0, -634.0, -677.0, -686.0, -666.0, -588.0, -460.0, -290.0, -153.0, -103.0, -101.0, -125.0, -220.0, -459.0, -556.0, -770.0, -798.0, -798.0]	[-490.0, -490.0, -490.0, -490.0, -490.0, -490.0, -490.0, -490.0, -490.0, -490.0, -490.0, -490.0, -490.0, -490.0, -490.0, -490.0, -490.0, -490.0, -490.0, -490.0, -486.0, -482.0, -481.0, -481.0, -481.0, -481.0, -481.0, -481.0, -481.0, -481.0, -479.0, -454.0, -388.0, -295.0, -190.0, -74.0, 56.0, 169.0, 256.0, 318.0, 369.0, 393.0, 409.0, 415.0, 415.0, 415.0, 421.0, 425.0, 441.0, 470.0, 509.0, 527.0, 540.0, 540.0, 540.0]	[0.016522026766324416, 0.023086204746505246, 0.03382488724309951, 0.04823255987139419, 0.06525211382540874, 0.08158149212249555, 0.09828019290580414, 0.11495875503169373, 0.1320574982673861, 0.14817934602615424, 0.16530129991588183, 0.18162965422379784, 0.19867071218322963, 0.21487174922367558, 0.23211180439102463, 0.2481360308593139, 0.26498969687963836, 0.28209014679305255, 0.29836969045572914, 0.31548311104415916, 0.33201797190122306, 0.3487392006791197, 0.36481872311560437, 0.3819888049911242, 0.39823967666598037, 0.41547324651037343, 0.43185792077565566, 0.4488016987743322, 0.4649556318472605, 0.48193422579788603, 0.49846021202392876, 0.51537770734285, 0.5315528030623682, 0.5486395996704232, 0.5650075486046262, 0.5820151559018996, 0.5984073395084124, 0.6153518001665361, 0.6316214451799169, 0.6486737671075389, 0.6648140468460042, 0.68195511540398, 0.6983548083517235, 0.7156167088251095, 0.7314975753542967, 0.7486611719068605, 0.7650444808532484, 0.7821428827592172, 0.798412527772598, 0.8156133296433836, 0.8317205000494141, 0.8488513286283705, 0.8650120883539785, 0.8821616902423557, 0.898406076565152]
2	animate/a61.jpg	inanimate	animate	right	1.188	[0.0, 0.0, 0.0, 0.0, 0.0, 0.0, 0.0, 0.0, 0.0, 0.0, 0.0, 0.0, 0.0, 0.0, 0.0, 0.0, 0.0, 0.0, 0.0, 0.0, 0.0, 0.0, 0.0, 0.0, 0.0, 0.0, 0.0, 0.0, 0.0, 0.0, 0.0, 0.0, 0.0, 0.0, 0.0, 0.0, 0.0, 58.0, 138.0, 236.0, 340.0, 437.0, 500.0, 532.0, 538.0, 538.0, 538.0, 546.0, 561.0, 600.0, 632.0, 651.0, 652.0, 652.0, 652.0, 652.0, 652.0, 652.0, 652.0, 652.0, 650.0, 650.0, 650.0, 649.0, 650.0, 652.0, 656.0, 662.0, 673.0, 689.0, 705.0]	[-490.0, -490.0, -490.0, -490.0, -490.0, -490.0, -490.0, -490.0, -490.0, -490.0, -490.0, -490.0, -490.0, -490.0, -490.0, -490.0, -490.0, -490.0, -490.0, -490.0, -490.0, -490.0, -490.0, -490.0, -490.0, -490.0, -490.0, -490.0, -490.0, -490.0, -490.0, -490.0, -490.0, -490.0, -490.0, -490.0, -490.0, -453.0, -384.0, -290.0, -164.0, -42.0, 58.0, 118.0, 148.0, 172.0, 198.0, 239.0, 284.0, 339.0, 358.0, 365.0, 365.0, 365.0, 365.0, 365.0, 365.0, 365.0, 365.0, 365.0, 365.0, 364.0, 364.0, 365.0, 371.0, 375.0, 382.0, 389.0, 399.0, 413.0, 426.0]	[0.0005439485248643905, 0.006074911041650921, 0.015817242034245282, 0.032891750626731664, 0.04939077151357196, 0.0663782401534263, 0.08508397990954109, 0.09955855383304879, 0.11855852277949452, 0.13290612076525576, 0.14959765353705734, 0.16628031167783774, 0.1839364519692026, 0.19970263054710813, 0.21685769376927055, 0.2330310828401707, 0.24931233315146528, 0.26619296451099217, 0.2856226719159167, 0.29933743822039105, 0.3185951136983931, 0.3327150424593128, 0.3522546591120772, 0.3663008599251043, 0.3841730641142931, 0.39941529629868455, 0.4172349351865705, 0.43274101792485453, 0.4509910779015627, 0.46618757146643475, 0.48408674096572213, 0.49942659444059245, 0.5164031404128764, 0.5326772227417678, 0.5495339607878122, 0.5658234030997846, 0.5828504663950298, 0.5990665220888332, 0.6164338945236523, 0.6327516674937215, 0.6496855468431022, 0.6658971651922911, 0.68299863912398, 0.6994184707000386, 0.7163154860609211, 0.7326953816809691, 0.749600247683702, 0.7660924418887589, 0.7829123159463052, 0.7992195076076314, 0.8162779735284857, 0.832707703782944, 0.8496446551289409, 0.8660016814246774, 0.8830164567043539, 0.8991662937623914, 0.9164336555986665, 0.932558575324947, 0.9496620972349774, 0.9659604142361786, 0.9830062508408446, 0.9991980718914419, 1.0164094550709706, 1.0324644015054218, 1.0499369045719504, 1.065877845743671, 1.0829960449773353, 1.0992018606921192, 1.1163077719102148, 1.1330484566860832, 1.1495693229080644]
3	inanimate/n74.jpg	animate	inanimate	right	0.998	[0.0, 0.0, 0.0, 0.0, 0.0, 0.0, 0.0, 0.0, 0.0, 0.0, 0.0, 0.0, 0.0, 0.0, 0.0, 0.0, 0.0, 0.0, 0.0, 0.0, 0.0, 0.0, 0.0, 0.0, 0.0, 0.0, 0.0, 0.0, 0.0, 0.0, 0.0, 0.0, 1.0, 14.0, 73.0, 143.0, 192.0, 207.0, 192.0, 143.0, 54.0, -86.0, -279.0, -482.0, -651.0, -779.0, -788.0, -788.0, -782.0, -768.0, -741.0, -679.0, -544.0, -339.0, -72.0, 316.0, 429.0, 666.0, 748.0, 761.0]	[-490.0, -490.0, -490.0, -490.0, -490.0, -490.0, -490.0, -490.0, -490.0, -490.0, -490.0, -490.0, -490.0, -490.0, -490.0, -490.0, -490.0, -490.0, -490.0, -490.0, -490.0, -490.0, -490.0, -490.0, -490.0, -490.0, -490.0, -490.0, -490.0, -490.0, -490.0, -490.0, -488.0, -475.0, -392.0, -292.0, -202.0, -117.0, -27.0, 30.0, 87.0, 145.0, 220.0, 288.0, 353.0, 421.0, 430.0, 434.0, 438.0, 439.0, 439.0, 439.0, 439.0, 439.0, 439.0, 439.0, 439.0, 456.0, 467.0, 469.0]	[0.011950551765039563, 0.01702344516525045, 0.022419581073336303, 0.039171188487671316, 0.05539543618215248, 0.0725689313840121, 0.08898534966283478, 0.10587553834193386, 0.12248378581716679, 0.13910875865258276, 0.155478072934784, 0.1726065121765714, 0.18879765053861775, 0.20590970577904955, 0.22226400140789337, 0.23928662735852413, 0.25543680574628524, 0.27271406626095995, 0.2887488740379922, 0.30595581990201026, 0.3221315982809756, 0.339285978814587, 0.355536850518547, 0.3726779190765228, 0.38872160151368007, 0.40594288337160833, 0.42208452842896804, 0.4393095649429597, 0.4553945487132296, 0.47264245455153286, 0.48872129432857037, 0.5059231201885268, 0.5221217678918038, 0.539257716445718, 0.5553993615030777, 0.57275922462577, 0.5887360057677142, 0.6061033782316372, 0.6221327246748842, 0.6394478731381241, 0.6554461582854856, 0.6727329760906287, 0.6888428771926556, 0.7059266017749906, 0.7224177719908766, 0.7391680140863173, 0.7555028537171893, 0.7727009249210823, 0.7889709112641867, 0.8059873932215851, 0.8245074477163143, 0.8392284642031882, 0.8581376385118347, 0.8725801271211822, 0.8914264961204026, 0.9058290487446357, 0.9245938391541131, 0.9391080077330116, 0.9554305593774188, 0.9722596494248137]
4	inanimate/n1.jpg	animate	inanimate	right	0.747	[0.0, 0.0, 0.0, 0.0, 0.0, 0.0, 0.0, 0.0, 0.0, 0.0, 0.0, 0.0, 0.0, 0.0, 0.0, 0.0, 0.0, 0.0, 0.0, 0.0, 0.0, 0.0, 0.0, 0.0, 0.0, 0.0, 0.0, 0.0, 0.0, 0.0, 0.0, 0.0, 0.0, 0.0, 0.0, 0.0, 3.0, 73.0, 179.0, 311.0, 553.0, 723.0, 848.0, 916.0, 939.0]	[-490.0, -490.0, -490.0, -490.0, -490.0, -490.0, -490.0, -490.0, -490.0, -490.0, -490.0, -490.0, -490.0, -490.0, -490.0, -490.0, -490.0, -490.0, -490.0, -490.0, -490.0, -490.0, -490.0, -490.0, -490.0, -490.0, -490.0, -490.0, -490.0, -490.0, -490.0, -490.0, -490.0, -490.0, -490.0, -490.0, -472.0, -367.0, -226.0, -62.0, 201.0, 357.0, 473.0, 540.0, 540.0]	[0.0010498042975086719, 0.005568372638663277, 0.019097453710855916, 0.0341451260028407, 0.05087147478479892, 0.06765141285723075, 0.08433884964324534, 0.10052316135261208, 0.1172853501047939, 0.13512854097643867, 0.1531417157384567, 0.16734766046283767, 0.18418357719201595, 0.20089490729151294, 0.21761306407279335, 0.23404859699076042, 0.2541968106816057, 0.2670343507779762, 0.2839221501199063, 0.30053005629451945, 0.31718199444003403, 0.333902199199656, 0.35046880404115655, 0.36735899274935946, 0.38390580026316456, 0.4006935890065506, 0.4173745404696092, 0.4340967932366766, 0.4506248274410609, 0.4671245309873484, 0.4839580583793577, 0.5006274045153987, 0.5173899345973041, 0.5341630459879525, 0.550632029568078, 0.5674068476364482, 0.5838205352483783, 0.6006557692890055, 0.6172821074433159, 0.6340644348529167, 0.6505951997241937, 0.6674949457228649, 0.6840929532481823, 0.70062474210863, 0.7169930324016605]
5	animate/a75.jpg	animate	inanimate	left	0.879	[0.0, 1.0, 1.0, 1.0, -3.0, -15.0, -30.0, -43.0, -45.0, -46.0, -45.0, -42.0, -41.0, -34.0, -21.0, -13.0, -7.0, -7.0, -7.0, -7.0, -7.0, -7.0, -5.0, 1.0, 3.0, 9.0, 10.0, 20.0, 29.0, 42.0, 72.0, 104.0, 152.0, 221.0, 313.0, 461.0, 516.0, 641.0, 669.0, 703.0, 707.0, 701.0, 668.0, 575.0, 440.0, 246.0, 15.0, -202.0, -380.0, -567.0, -609.0, -663.0, -670.0]	[-490.0, -493.0, -493.0, -495.0, -502.0, -512.0, -518.0, -521.0, -521.0, -521.0, -518.0, -514.0, -512.0, -508.0, -505.0, -504.0, -504.0, -504.0, -504.0, -504.0, -504.0, -504.0, -502.0, -499.0, -497.0, -493.0, -491.0, -481.0, -467.0, -449.0, -399.0, -316.0, -216.0, -83.0, 39.0, 198.0, 247.0, 350.0, 374.0, 408.0, 416.0, 421.0, 427.0, 431.0, 431.0, 433.0, 458.0, 492.0, 521.0, 540.0, 540.0, 540.0, 540.0]	[0.010523437842493877, 0.015695317852078006, 0.021770024090074003, 0.03632549397298135, 0.05254666964174248, 0.06977102349628694, 0.08593690322595648, 0.10303598779137246, 0.1192025501804892, 0.13658391730859876, 0.1525982450984884, 0.16994650289416313, 0.1859932573279366, 0.20308210191433318, 0.21956542148836888, 0.23654742879443802, 0.2526846365071833, 0.26978576910914853, 0.2884997008368373, 0.30304254140355624, 0.3222694968862925, 0.336353244347265, 0.3552760719903745, 0.36967930727405474, 0.3866759919037577, 0.40291082093608566, 0.41977711630170234, 0.43609045195626095, 0.4533711257681716, 0.46997493592789397, 0.4865435887768399, 0.5030245190137066, 0.5192965533351526, 0.5361171100812498, 0.5554379321692977, 0.5694383943337016, 0.5890401336364448, 0.6028214599064086, 0.6223375245754141, 0.6362284188217018, 0.655437624984188, 0.6695384390768595, 0.686464467755286, 0.7028173980361316, 0.7206506902584806, 0.7361950023041572, 0.7534309614566155, 0.769483177253278, 0.7869468056305777, 0.8027832988591399, 0.8200380313792266, 0.8359584925347008, 0.8532913903472945]
6	inanimate/n18.jpg	animate	inanimate	right	0.895	[0.0, 0.0, 0.0, 0.0, 0.0, 0.0, 1.0, 1.0, 1.0, 1.0, 1.0, 1.0, 1.0, 1.0, 1.0, 1.0, 1.0, 1.0, 1.0, 1.0, 1.0, 1.0, 1.0, 1.0, 1.0, 1.0, 1.0, 1.0, 1.0, 1.0, 1.0, 1.0, 1.0, 1.0, 1.0, 1.0, 1.0, 1.0, 1.0, 1.0, 1.0, 1.0, 11.0, 40.0, 89.0, 158.0, 238.0, 325.0, 431.0, 543.0, 638.0, 697.0, 717.0, 717.0]	[-490.0, -490.0, -490.0, -490.0, -490.0, -490.0, -490.0, -491.0, -491.0, -491.0, -491.0, -491.0, -491.0, -491.0, -491.0, -491.0, -491.0, -491.0, -491.0, -491.0, -491.0, -491.0, -491.0, -491.0, -491.0, -491.0, -491.0, -491.0, -491.0, -491.0, -491.0, -491.0, -491.0, -491.0, -491.0, -491.0, -491.0, -491.0, -491.0, -491.0, -491.0, -491.0, -480.0, -431.0, -343.0, -226.0, -99.0, 23.0, 139.0, 225.0, 297.0, 347.0, 370.0, 370.0]	[0.004121461359318346, 0.009612829220714048, 0.022958614397794008, 0.039880888391053304, 0.05959833963424899, 0.0733195912616793, 0.0926489467092324, 0.10635688636102714, 0.12458032235736027, 0.13968021862092428, 0.15733670027111657, 0.17324623878812417, 0.1900562141672708, 0.20669006166281179, 0.22396766347810626, 0.23976899939589202, 0.25733809973462485, 0.2733285342110321, 0.29018834422458895, 0.30685291171539575, 0.3235389831534121, 0.3399550601025112, 0.3569391153869219, 0.3733712349785492, 0.39022592501714826, 0.4063856607535854, 0.4235103453102056, 0.43989024093025364, 0.4569620188558474, 0.47317329587531276, 0.4902020658191759, 0.5067485320323613, 0.5235765980614815, 0.539981069683563, 0.5569361116504297, 0.57308526604902, 0.5902171186171472, 0.6064659423136618, 0.6235145095852204, 0.6397138399479445, 0.6569347804761492, 0.6730183988984209, 0.6902499207353685, 0.7063970271265134, 0.7235944156709593, 0.7397869193810038, 0.7570023985754233, 0.7730221876990981, 0.7902499548799824, 0.8064230025920551, 0.8235347165027633, 0.839945673418697, 0.8569191473943647, 0.8731235977611504]
7	inanimate/n60.jpg	animate	inanimate	right	0.813	[0.0, 0.0, 0.0, 0.0, 0.0, 0.0, 0.0, 0.0, 0.0, 0.0, 0.0, 0.0, 0.0, 0.0, 0.0, 0.0, 0.0, 0.0, 0.0, 0.0, 0.0, 0.0, 0.0, 0.0, 0.0, 0.0, 0.0, 0.0, 0.0, 0.0, 0.0, 0.0, 0.0, 0.0, 0.0, 0.0, 0.0, 0.0, 0.0, -5.0, -7.0, 23.0, 95.0, 206.0, 344.0, 496.0, 646.0, 772.0, 845.0]	[-490.0, -490.0, -490.0, -490.0, -490.0, -490.0, -490.0, -490.0, -490.0, -490.0, -490.0, -490.0, -490.0, -490.0, -490.0, -490.0, -490.0, -490.0, -490.0, -490.0, -490.0, -490.0, -490.0, -490.0, -490.0, -490.0, -490.0, -490.0, -490.0, -490.0, -490.0, -490.0, -490.0, -490.0, -490.0, -490.0, -490.0, -490.0, -490.0, -474.0, -413.0, -300.0, -157.0, -5.0, 146.0, 298.0, 426.0, 537.0, 540.0]	[0.003712885605636984, 0.009391304018208757, 0.02251931861974299, 0.039419405977241695, 0.05576414428651333, 0.07273454626556486, 0.09159934727358632, 0.10614355315919966, 0.12484587958897464, 0.13940817612456158, 0.15743398023187183, 0.1726850870763883, 0.19179633061867207, 0.20605415798490867, 0.22514867622521706, 0.2392972769739572, 0.2583071445696987, 0.27260422526160255, 0.28989957639714703, 0.3061316747625824, 0.32273480226285756, 0.33916965252137743, 0.35559631075011566, 0.37244827012182213, 0.39184145486797206, 0.4055944505089428, 0.42338166272384115, 0.4391195106727537, 0.45617524592671543, 0.47247424558736384, 0.48935760761378333, 0.5058204471715726, 0.5227898251614533, 0.5388812942546792, 0.5561705013969913, 0.5723097571462858, 0.5893767563975416, 0.6055361508042552, 0.6226976993493736, 0.638918533717515, 0.6561773621942848, 0.6723545059212483, 0.6895679371082224, 0.7055918222467881, 0.7226905654824805, 0.7391254157410003, 0.7561459936841857, 0.7724535266752355, 0.789406179334037]
8	animate/a6.jpg	inanimate	animate	right	0.997	[0.0, 0.0, 0.0, 0.0, 0.0, 0.0, 0.0, 0.0, 0.0, 0.0, 0.0, 0.0, 0.0, 0.0, 0.0, 0.0, 0.0, 0.0, 0.0, 0.0, 0.0, 0.0, 0.0, 0.0, 0.0, 0.0, 0.0, 0.0, 0.0, 0.0, 0.0, 0.0, 0.0, 1.0, 11.0, 30.0, 61.0, 100.0, 124.0, 126.0, 106.0, 42.0, -70.0, -316.0, -496.0, -662.0, -750.0, -764.0, -756.0, -706.0, -579.0, -377.0, -140.0, 135.0, 399.0, 715.0, 839.0, 889.0, 898.0, 898.0]	[-490.0, -490.0, -490.0, -490.0, -490.0, -490.0, -490.0, -490.0, -490.0, -490.0, -490.0, -490.0, -490.0, -490.0, -490.0, -490.0, -490.0, -490.0, -490.0, -490.0, -490.0, -490.0, -490.0, -490.0, -490.0, -490.0, -490.0, -490.0, -490.0, -490.0, -490.0, -490.0, -490.0, -489.0, -471.0, -432.0, -357.0, -265.0, -181.0, -129.0, -78.0, -16.0, 48.0, 152.0, 224.0, 293.0, 337.0, 356.0, 371.0, 388.0, 402.0, 402.0, 402.0, 402.0, 402.0, 435.0, 466.0, 483.0, 488.0, 488.0]	[0.002566688839579001, 0.007631390239112079, 0.02258109991089441, 0.03705328449723311, 0.0561774987145327, 0.07054045668337494, 0.08919294847873971, 0.10367332506575622, 0.12086627626558766, 0.137079942622222, 0.15327108101337217, 0.17019710966269486, 0.18998624087544158, 0.2035047406097874, 0.22177937658852898, 0.23657275567529723, 0.25451800515293144, 0.27002408789121546, 0.28775668679736555, 0.3035631427192129, 0.3210527124174405, 0.33682332836906426, 0.3544173460104503, 0.370124473964097, 0.38715665726340376, 0.4035375768726226, 0.42037554158014245, 0.4368411118048243, 0.453716964519117, 0.4701873134181369, 0.4871631767018698, 0.5034806083713192, 0.5204349676787388, 0.5365919727482833, 0.553895174554782, 0.5699832303216681, 0.5870829975465313, 0.6034663064929191, 0.6203803885146044, 0.6368691693933215, 0.6537153261015192, 0.6703184536017943, 0.6870523116958793, 0.7033028420410119, 0.7203940759645775, 0.7366722543083597, 0.7537365228927229, 0.769900354614947, 0.7871414338005707, 0.8032339268829674, 0.8204023021098692, 0.8365965124685317, 0.8537741036852822, 0.8699782127223443, 0.8871165506134275, 0.903270483657252, 0.9204600215307437, 0.9365886959421914, 0.9538263617723715, 0.9700028228398878]
9	animate/a57.jpg	inanimate	animate	right	1.148	[0.0, -3.0, -3.0, -3.0, -3.0, -4.0, -6.0, -8.0, -9.0, -9.0, -9.0, -9.0, -9.0, -9.0, -9.0, -9.0, -9.0, -9.0, -9.0, -9.0, -9.0, -9.0, -9.0, -9.0, -9.0, -9.0, -9.0, -9.0, -9.0, -9.0, -9.0, 13.0, 131.0, 196.0, 405.0, 538.0, 675.0, 805.0, 896.0, 923.0, 924.0, 898.0, 816.0, 691.0, 525.0, 304.0, -89.0, -208.0, -518.0, -637.0, -707.0, -750.0, -775.0, -791.0, -800.0, -800.0, -800.0, -801.0, -784.0, -681.0, -521.0, -282.0, 1.0, 293.0, 569.0, 818.0, 959.0, 959.0, 959.0]	[-490.0, -491.0, -491.0, -491.0, -491.0, -491.0, -494.0, -496.0, -497.0, -497.0, -497.0, -497.0, -497.0, -497.0, -497.0, -497.0, -497.0, -497.0, -497.0, -497.0, -497.0, -497.0, -497.0, -497.0, -497.0, -497.0, -497.0, -497.0, -497.0, -497.0, -499.0, -500.0, -435.0, -387.0, -203.0, -67.0, 79.0, 200.0, 279.0, 317.0, 333.0, 352.0, 379.0, 400.0, 408.0, 408.0, 408.0, 408.0, 408.0, 408.0, 417.0, 425.0, 432.0, 436.0, 438.0, 438.0, 438.0, 440.0, 443.0, 452.0, 452.0, 452.0, 452.0, 459.0, 485.0, 522.0, 540.0, 540.0, 540.0]	[0.016098773601697758, 0.022913148772204295, 0.042644936009310186, 0.047298672288889065, 0.06429057827335782, 0.08051209530094638, 0.09777024111826904, 0.11387331553851254, 0.1310792374133598, 0.14723112247884274, 0.16442612165701576, 0.18057527605560608, 0.19777676058583893, 0.21385013902909122, 0.23108439153293148, 0.2472328632720746, 0.2643647158402018, 0.28052001423202455, 0.2977655307331588, 0.3138443705101963, 0.33092160974047147, 0.34718306275317445, 0.3643418806314003, 0.38082008020137437, 0.3978143754939083, 0.4140461325296201, 0.43106227315729484, 0.45007828474626876, 0.4643559094402008, 0.4833852330339141, 0.49776798833045177, 0.5165433600486722, 0.5310131552978419, 0.5496642817452084, 0.5642535436199978, 0.5818001159641426, 0.597746859799372, 0.614024355483707, 0.6307029176095966, 0.6500670890090987, 0.6640498018532526, 0.6831880107347388, 0.6975209313968662, 0.715537519485224, 0.7307316237129271, 0.7482310920895543, 0.7641795426025055, 0.7808871180459391, 0.7974666935624555, 0.8147780873405281, 0.8308224524662364, 0.8476877238426823, 0.8640519181208219, 0.880938010814134, 0.8985791324521415, 0.9142797750828322, 0.9304913934320211, 0.9476181259960867, 0.9639577443012968, 0.9808431543351617, 0.9974916791252326, 1.01452829974005, 1.030573688854929, 1.0476656054379418, 1.0641093303565867, 1.0809121377533302, 1.0973992119834293, 1.1142675553564914, 1.1307877388899215]
10	animate/a32.jpg	inanimate	animate	right	0.732	[0.0, 1.0, 1.0, 1.0, 1.0, 1.0, 1.0, 1.0, 1.0, 1.0, 1.0, 1.0, 1.0, 1.0, 1.0, 1.0, 1.0, 1.0, 1.0, 1.0, 1.0, 1.0, 1.0, 1.0, 1.0, 1.0, 1.0, 1.0, 6.0, 25.0, 54.0, 107.0, 203.0, 327.0, 521.0, 585.0, 726.0, 761.0, 821.0, 863.0, 885.0, 897.0, 904.0, 905.0]	[-490.0, -490.0, -490.0, -490.0, -490.0, -490.0, -490.0, -490.0, -490.0, -490.0, -490.0, -490.0, -490.0, -490.0, -490.0, -490.0, -490.0, -490.0, -492.0, -495.0, -495.0, -495.0, -495.0, -495.0, -495.0, -495.0, -495.0, -495.0, -491.0, -472.0, -441.0, -377.0, -264.0, -132.0, 62.0, 129.0, 286.0, 326.0, 406.0, 457.0, 484.0, 501.0, 513.0, 515.0]	[0.0014317560999188572, 0.010452167480252683, 0.017943064973223954, 0.03474416572134942, 0.051736071676714346, 0.06813781260279939, 0.08517101989127696, 0.10166014212882146, 0.1186605814145878, 0.13493432241375558, 0.15183543376042508, 0.16975781391374767, 0.18517037134733982, 0.20428127358900383, 0.21842134100734256, 0.23752200321177952, 0.2516859639727045, 0.2706163009570446, 0.2851615308318287, 0.3038085612934083, 0.3185179724241607, 0.3374742507294286, 0.3517317367368378, 0.37056820711586624, 0.38506257833796553, 0.4038533100683708, 0.4186060705105774, 0.4352788299729582, 0.45171094956458546, 0.4680567118630279, 0.48488341257325374, 0.5040465387573931, 0.5182948088040575, 0.5363468955620192, 0.5515536291059107, 0.5695705585530959, 0.5848598947341088, 0.6017780727124773, 0.6181818616460077, 0.634992861043429, 0.651595305884257, 0.6687786997645162, 0.6848725581949111, 0.7023716852127109]
11	inanimate/n65.jpg	inanimate	animate	left	0.899	[0.0, 0.0, 0.0, 0.0, 0.0, 0.0, 1.0, 3.0, 4.0, 5.0, 5.0, 5.0, 5.0, 5.0, 5.0, 5.0, 5.0, 5.0, 5.0, 5.0, 5.0, 5.0, 5.0, 5.0, 5.0, 5.0, 5.0, 5.0, 5.0, 5.0, 5.0, 6.0, 12.0, 24.0, 56.0, 104.0, 200.0, 274.0, 355.0, 411.0, 458.0, 475.0, 475.0, 452.0, 368.0, 244.0, 71.0, -123.0, -395.0, -549.0, -665.0, -748.0, -812.0, -858.0, -882.0]	[-490.0, -490.0, -490.0, -490.0, -490.0, -491.0, -494.0, -496.0, -498.0, -498.0, -498.0, -498.0, -498.0, -498.0, -498.0, -498.0, -498.0, -498.0, -498.0, -498.0, -498.0, -498.0, -498.0, -498.0, -498.0, -498.0, -498.0, -498.0, -498.0, -498.0, -498.0, -498.0, -495.0, -481.0, -446.0, -388.0, -252.0, -131.0, -14.0, 84.0, 169.0, 219.0, 247.0, 271.0, 305.0, 338.0, 367.0, 391.0, 437.0, 481.0, 517.0, 540.0, 540.0, 540.0, 540.0]	[0.011190812423592433, 0.01616779121104628, 0.020723906229250133, 0.037862244120333344, 0.054172849078895524, 0.07129275499028154, 0.08736306143691763, 0.10475603386294097, 0.12076148699270561, 0.13842069928068668, 0.1540875499485992, 0.1712712851294782, 0.18768053539679386, 0.20481102261692286, 0.2207622037967667, 0.23820705886464566, 0.25425688532413915, 0.27124674327205867, 0.2876003562414553, 0.30462605418870226, 0.32088580052368343, 0.33807636238634586, 0.35406474888441153, 0.37120069743832573, 0.3876864063204266, 0.4045400723698549, 0.42093396265408956, 0.43803850855329074, 0.4542241856106557, 0.4711369022843428, 0.4876635711407289, 0.5044711572118104, 0.5209606207499746, 0.5379129320790526, 0.5543453930004034, 0.5711611710721627, 0.5873407041071914, 0.6045957779278979, 0.6207684843393508, 0.637904432893265, 0.6539706433250103, 0.6711758825113066, 0.6872997782775201, 0.7044657641381491, 0.7206295958603732, 0.7378406377101783, 0.7539860374527052, 0.7711516819836106, 0.7873697856848594, 0.8045187049137894, 0.8207634325954132, 0.8379458024573978, 0.8539928982499987, 0.8712059881072491, 0.8873449024977162]
12	inanimate/n69.jpg	inanimate	animate	left	1.35	[0.0, 0.0, 0.0, 0.0, 0.0, 0.0, 0.0, 0.0, 0.0, 1.0, 1.0, 1.0, 1.0, 1.0, 1.0, 1.0, 1.0, 1.0, 1.0, 1.0, 1.0, 1.0, 1.0, 1.0, 1.0, 1.0, 1.0, 1.0, 1.0, 1.0, 1.0, 1.0, 1.0, 1.0, 1.0, 62.0, 133.0, 223.0, 332.0, 456.0, 556.0, 625.0, 648.0, 648.0, 620.0, 458.0, 370.0, 37.0, -220.0, -457.0, -681.0, -849.0, -951.0, -960.0, -960.0, -960.0, -960.0, -960.0, -960.0, -957.0, -936.0, -900.0, -853.0, -801.0, -757.0, -705.0, -663.0, -615.0, -566.0, -523.0, -498.0, -463.0, -448.0, -443.0, -443.0, -444.0, -495.0, -590.0, -704.0, -802.0, -868.0, -893.0]	[-490.0, -490.0, -490.0, -490.0, -490.0, -490.0, -490.0, -490.0, -490.0, -490.0, -490.0, -490.0, -490.0, -490.0, -490.0, -490.0, -490.0, -490.0, -490.0, -490.0, -490.0, -490.0, -490.0, -490.0, -490.0, -490.0, -490.0, -490.0, -490.0, -490.0, -490.0, -490.0, -490.0, -490.0, -490.0, -419.0, -335.0, -231.0, -102.0, 48.0, 164.0, 242.0, 277.0, 293.0, 314.0, 360.0, 380.0, 451.0, 509.0, 540.0, 540.0, 540.0, 540.0, 540.0, 540.0, 540.0, 540.0, 540.0, 540.0, 527.0, 497.0, 459.0, 423.0, 386.0, 354.0, 317.0, 284.0, 245.0, 201.0, 162.0, 141.0, 112.0, 102.0, 101.0, 101.0, 103.0, 155.0, 246.0, 351.0, 423.0, 470.0, 483.0]	[0.008577224391046911, 0.013689712446648628, 0.018586477934150025, 0.032689340034266934, 0.048958302388200536, 0.06603963763336651, 0.08225501066772267, 0.09938003655406646, 0.1155582042702008, 0.13279006746597588, 0.14886003255378455, 0.16606424775091, 0.1822086234751623, 0.19933774537639692, 0.21551898508914746, 0.23279556291527115, 0.24889590666862205, 0.2662909271020908, 0.2823605508892797, 0.2994777261046693, 0.3155900165438652, 0.33278467439231463, 0.34892836745711975, 0.3659765933989547, 0.3826049795607105, 0.3993480536446441, 0.41578938922611997, 0.4329519617604092, 0.4491113561671227, 0.4661343234474771, 0.48500765778589994, 0.49933579977368936, 0.5185777739388868, 0.5327325186808594, 0.5515218850632664, 0.5659524270158727, 0.5849848226062022, 0.5993566552351695, 0.6160604760225397, 0.6325714435661212, 0.6491919790569227, 0.6657101146120112, 0.6850654113513883, 0.698973372229375, 0.7175593040592503, 0.7322543791960925, 0.7506283431139309, 0.7657859246828593, 0.7842107472533826, 0.7991218862880487, 0.8164056321256794, 0.8324537519074511, 0.849463407183066, 0.865758652187651, 0.882864222076023, 0.8991185071063228, 0.9160233731090557, 0.9322824367845897, 0.9493559213879053, 0.9657972569693811, 0.9828007682517637, 0.9991953411954455, 1.016069145873189, 1.0323961348622106, 1.0493528835067991, 1.0655808858573437, 1.0827055704430677, 1.0988629168423358, 1.1159968173888046, 1.1322101424157154, 1.1493556483183056, 1.1655246000445914, 1.1827568045409862, 1.198892646934837, 1.2162241793994326, 1.2322702512028627, 1.2494546690722927, 1.2656219141208567, 1.28281349997269, 1.298883806419326, 1.3161491202481557, 1.332233080000151]
13	animate/a8.jpg	inanimate	animate	right	0.8	[0.0, 0.0, 0.0, 0.0, 0.0, 0.0, 0.0, 0.0, 0.0, 0.0, 0.0, 0.0, 0.0, 0.0, 0.0, 0.0, 0.0, 0.0, 0.0, 0.0, 0.0, 0.0, 0.0, 0.0, 0.0, 0.0, 0.0, 1.0, 5.0, 17.0, 54.0, 139.0, 246.0, 370.0, 514.0, 619.0, 746.0, 776.0, 846.0, 869.0, 886.0, 900.0, 914.0, 929.0, 944.0, 955.0, 956.0, 956.0, 956.0]	[-490.0, -490.0, -490.0, -490.0, -490.0, -490.0, -490.0, -490.0, -490.0, -490.0, -491.0, -492.0, -496.0, -498.0, -499.0, -499.0, -499.0, -499.0, -499.0, -499.0, -499.0, -499.0, -499.0, -499.0, -499.0, -499.0, -499.0, -494.0, -487.0, -471.0, -420.0, -321.0, -192.0, -29.0, 137.0, 266.0, 422.0, 461.0, 540.0, 540.0, 540.0, 540.0, 540.0, 540.0, 540.0, 540.0, 540.0, 540.0, 540.0]	[0.008123934007016942, 0.014170992217259482, 0.01918210432631895, 0.031153340882156044, 0.048158217483432963, 0.0644814518163912, 0.08130678717861883, 0.09782560539315455, 0.11468166077975184, 0.13095198845257983, 0.14813538230373524, 0.16425654737395234, 0.18136689596576616, 0.19757339433999732, 0.21479911351343617, 0.23087351594585925, 0.24815487241721712, 0.2642070882138796, 0.28141539939679205, 0.2976242871081922, 0.3147107423574198, 0.33087047809385695, 0.3481579785584472, 0.3642074636882171, 0.38142976953531615, 0.39753284395555966, 0.4147739231120795, 0.43091488553909585, 0.4481412873719819, 0.4642617697827518, 0.4815618995926343, 0.49754584874608554, 0.5147271946188994, 0.5309463223093189, 0.5480201482423581, 0.5643498678691685, 0.5812772618664894, 0.5976274615095463, 0.6146954847499728, 0.6336763390572742, 0.6481570569740143, 0.6669054633530322, 0.6814776585670188, 0.7000789503799751, 0.7147224842046853, 0.7335988905397244, 0.7480639071436599, 0.7654193329217378, 0.7815305993426591]
14	inanimate/n59.jpg	animate	inanimate	right	1.129	[0.0, 0.0, 0.0, 0.0, 0.0, 0.0, 0.0, 0.0, 0.0, 1.0, 1.0, 1.0, 1.0, 1.0, 1.0, 1.0, 1.0, 3.0, 7.0, 11.0, 3.0, 3.0, 3.0, 3.0, 3.0, 3.0, 3.0, 3.0, 3.0, 3.0, 3.0, 3.0, 3.0, 3.0, 3.0, 3.0, 4.0, 5.0, 9.0, 13.0, 13.0, 7.0, -57.0, -174.0, -304.0, -421.0, -525.0, -599.0, -665.0, -729.0, -795.0, -851.0, -896.0, -918.0, -927.0, -928.0, -928.0, -915.0, -859.0, -716.0, -479.0, -193.0, 84.0, 351.0, 575.0, 729.0, 853.0, 857.0]	[-490.0, -489.0, -489.0, -488.0, -488.0, -487.0, -487.0, -487.0, -486.0, -486.0, -486.0, -486.0, -486.0, -486.0, -486.0, -486.0, -486.0, -486.0, -486.0, -481.0, -473.0, -473.0, -473.0, -473.0, -473.0, -473.0, -473.0, -473.0, -473.0, -473.0, -473.0, -473.0, -473.0, -473.0, -473.0, -473.0, -473.0, -473.0, -467.0, -462.0, -444.0, -403.0, -319.0, -229.0, -136.0, -53.0, 30.0, 104.0, 189.0, 282.0, 372.0, 443.0, 497.0, 527.0, 540.0, 540.0, 540.0, 540.0, 540.0, 540.0, 540.0, 540.0, 540.0, 540.0, 540.0, 540.0, 527.0, 526.0]	[0.010223064658930525, 0.01625134955975227, 0.021697661461075768, 0.03505709994351491, 0.05231626977911219, 0.0684425548533909, 0.08567544203833677, 0.10205840962589718, 0.11903120094211772, 0.13561828579986468, 0.15233575989259407, 0.1703571266552899, 0.18566694282344542, 0.2045242345193401, 0.21903703775024042, 0.23760692690848373, 0.25229790605953895, 0.27008307026699185, 0.28577756890445016, 0.3027848348719999, 0.3190162505488843, 0.3363358363567386, 0.352267220208887, 0.36932090745540336, 0.38556392848840915, 0.4019847840827424, 0.41864184220321476, 0.43834939479711466, 0.452055286441464, 0.47175055101979524, 0.4854581493418664, 0.5036157080321573, 0.5185490337316878, 0.5360208541096654, 0.5521034485427663, 0.5688564213050995, 0.5854714954621159, 0.602422100113472, 0.6185070838837419, 0.6356570271018427, 0.6521191840001848, 0.6690605726616923, 0.6854356896074023, 0.7023112009628676, 0.7187880352139473, 0.735663205239689, 0.7520526581793092, 0.7689766388502903, 0.7854961397242732, 0.8024143177317455, 0.8188570186321158, 0.8357711006538011, 0.8521120842779055, 0.8689797449624166, 0.8852459766494576, 0.9023095625743736, 0.9186614688660484, 0.9357400734443218, 0.9518318838963751, 0.9690190324326977, 0.9851391734846402, 1.0022102687507868, 1.018472404422937, 1.035605280980235, 1.0518168993585277, 1.0689627465908416, 1.0852204449183773, 1.1023908681236207]
15	animate/a14.jpg	inanimate	animate	right	0.867	[0.0, 0.0, 0.0, 0.0, 1.0, 1.0, 1.0, 1.0, 1.0, 1.0, 1.0, 1.0, 1.0, 1.0, 1.0, 1.0, 1.0, 1.0, 1.0, 1.0, 1.0, 1.0, 1.0, 1.0, 1.0, 1.0, 1.0, 1.0, 12.0, 24.0, 39.0, 64.0, 104.0, 144.0, 207.0, 294.0, 413.0, 536.0, 636.0, 701.0, 738.0, 740.0, 742.0, 743.0, 748.0, 751.0, 752.0, 752.0, 752.0, 752.0, 752.0, 752.0]	[-490.0, -490.0, -490.0, -490.0, -490.0, -490.0, -490.0, -490.0, -490.0, -490.0, -490.0, -490.0, -490.0, -490.0, -490.0, -490.0, -490.0, -490.0, -490.0, -490.0, -490.0, -490.0, -490.0, -490.0, -490.0, -490.0, -490.0, -490.0, -479.0, -455.0, -425.0, -365.0, -271.0, -182.0, -83.0, 29.0, 147.0, 244.0, 329.0, 388.0, 431.0, 437.0, 440.0, 446.0, 455.0, 458.0, 460.0, 460.0, 460.0, 460.0, 460.0, 461.0]	[0.0024301555822603405, 0.009644231875427067, 0.020030658575706184, 0.036805817973800004, 0.053805574600119144, 0.06996940632234327, 0.08713846420869231, 0.10330434393836185, 0.12054849512060173, 0.13663143088342622, 0.15381619008257985, 0.1700424857554026, 0.18722724495455623, 0.20334226606064476, 0.2205737878975924, 0.2366894916340243, 0.2539486614696216, 0.2701234158594161, 0.2872143084532581, 0.30359454537392594, 0.3205826967023313, 0.3369069549953565, 0.35388554897508584, 0.3727326006628573, 0.38707746798172593, 0.4061453622125555, 0.4204451735713519, 0.4383699430618435, 0.4538139031501487, 0.47269850148586556, 0.48722768868901767, 0.5043711465841625, 0.5205400983104482, 0.5374422336462885, 0.5538593345845584, 0.5710990484221838, 0.5871587735309731, 0.6041759381478187, 0.6206319510529283, 0.6370166253473144, 0.6536849474650808, 0.6700747417344246, 0.6868881304690149, 0.7061768672720063, 0.7201534361229278, 0.7382597948308103, 0.7534436590503901, 0.7715520657948218, 0.7869489219156094, 0.8049498086911626, 0.8204698860936332, 0.8376723946130369]
16	inanimate/n6.jpg	inanimate	animate	left	1.278	[0.0, 0.0, 0.0, 0.0, 0.0, 0.0, 0.0, 0.0, 0.0, 0.0, 0.0, 4.0, 5.0, 5.0, 5.0, 5.0, 5.0, 5.0, 6.0, 7.0, 8.0, 9.0, 12.0, 16.0, 20.0, 26.0, 34.0, 48.0, 68.0, 87.0, 120.0, 148.0, 183.0, 238.0, 302.0, 380.0, 434.0, 450.0, 443.0, 386.0, 263.0, 83.0, -272.0, -517.0, -741.0, -890.0, -960.0, -960.0, -960.0, -960.0, -960.0, -960.0, -960.0, -960.0, -960.0, -960.0, -960.0, -960.0, -951.0, -938.0, -923.0, -912.0, -897.0, -864.0, -847.0, -776.0, -751.0, -711.0, -709.0, -708.0, -714.0, -747.0, -798.0, -868.0, -878.0, -887.0, -887.0]	[-490.0, -490.0, -490.0, -490.0, -490.0, -490.0, -490.0, -490.0, -490.0, -490.0, -490.0, -494.0, -494.0, -494.0, -494.0, -494.0, -494.0, -494.0, -494.0, -494.0, -494.0, -494.0, -494.0, -492.0, -487.0, -478.0, -464.0, -439.0, -400.0, -352.0, -248.0, -171.0, -92.0, -4.0, 86.0, 173.0, 239.0, 276.0, 297.0, 321.0, 345.0, 370.0, 420.0, 450.0, 482.0, 506.0, 528.0, 536.0, 536.0, 536.0, 536.0, 536.0, 536.0, 536.0, 536.0, 536.0, 536.0, 536.0, 528.0, 519.0, 508.0, 497.0, 478.0, 439.0, 419.0, 348.0, 330.0, 309.0, 308.0, 309.0, 330.0, 372.0, 424.0, 482.0, 491.0, 501.0, 501.0]	[0.010237400652840734, 0.015134166140342131, 0.020511870039626956, 0.03553701436612755, 0.05110829172190279, 0.06901804255903699, 0.08466134121408686, 0.10190446837805212, 0.11796146281994879, 0.13525954462238587, 0.1510305018746294, 0.16818727177451365, 0.18458355136681348, 0.20163382531609386, 0.21786592368152924, 0.23480799500248395, 0.2510325840266887, 0.2681572685833089, 0.28456481217290275, 0.3015816354600247, 0.31791681644972414, 0.33484352778759785, 0.35114286877796985, 0.36806138811516576, 0.3846129743033089, 0.40163525892421603, 0.4176908880181145, 0.4348138659261167, 0.4511138895759359, 0.4682177528156899, 0.48459252843167633, 0.5015069517830852, 0.5178858233848587, 0.5349582839698996, 0.5512927823001519, 0.5681051470164675, 0.5845222479547374, 0.6014824099256657, 0.6177090469573159, 0.6348002808517776, 0.6509866405685898, 0.6681379491346888, 0.6843007568677422, 0.7015565133478958, 0.7176698277762625, 0.7348624376463704, 0.7510385573550593, 0.7681874765839893, 0.7843509669764899, 0.8015954594593495, 0.8177254992187954, 0.8348351651220582, 0.851043711474631, 0.868205601349473, 0.8844366757257376, 0.9017088162072469, 0.9179112185665872, 0.934876500570681, 0.9512195322022308, 0.9682247501623351, 0.9847183097153902, 1.0015002957952674, 1.0204985580639914, 1.034720204101177, 1.053518445143709, 1.0681155576603487, 1.0853283061878756, 1.1016064845316578, 1.1178515535430051, 1.1345222649979405, 1.1541861269506626, 1.1678981625882443, 1.1875138965551741, 1.2012726948305499, 1.220465858350508, 1.23433729656972, 1.2524887112667784]
17	inanimate/n75.jpg	inanimate	animate	left	1.286	[0.0, 0.0, 0.0, 0.0, 0.0, 0.0, 0.0, 0.0, 0.0, 0.0, 0.0, 0.0, 0.0, 0.0, 0.0, 0.0, 0.0, 0.0, 0.0, 0.0, 0.0, 0.0, 0.0, 0.0, 0.0, 0.0, 0.0, 0.0, 0.0, 0.0, 0.0, 0.0, 0.0, 8.0, 24.0, 106.0, 188.0, 283.0, 354.0, 388.0, 388.0, 343.0, 234.0, 47.0, -185.0, -417.0, -636.0, -893.0, -960.0, -960.0, -960.0, -960.0, -960.0, -960.0, -960.0, -960.0, -960.0, -960.0, -960.0, -960.0, -960.0, -960.0, -955.0, -932.0, -894.0, -851.0, -814.0, -791.0, -771.0, -767.0, -766.0, -766.0, -766.0, -766.0, -766.0, -766.0, -766.0]	[-490.0, -490.0, -490.0, -490.0, -490.0, -490.0, -490.0, -490.0, -490.0, -490.0, -490.0, -490.0, -490.0, -490.0, -490.0, -490.0, -490.0, -490.0, -490.0, -490.0, -490.0, -490.0, -490.0, -490.0, -490.0, -490.0, -490.0, -490.0, -490.0, -490.0, -490.0, -490.0, -490.0, -489.0, -475.0, -393.0, -306.0, -201.0, -111.0, -48.0, -4.0, 50.0, 105.0, 170.0, 250.0, 319.0, 386.0, 465.0, 508.0, 532.0, 540.0, 540.0, 540.0, 540.0, 540.0, 540.0, 540.0, 540.0, 540.0, 540.0, 540.0, 540.0, 533.0, 502.0, 471.0, 445.0, 428.0, 419.0, 408.0, 406.0, 405.0, 405.0, 405.0, 405.0, 405.0, 405.0, 405.0]	[0.005364938057027757, 0.010691100644180551, 0.026573673851089552, 0.04276686022058129, 0.059612675599055365, 0.07608336585690267, 0.09275100531522185, 0.10911622361163609, 0.1255049938627053, 0.14242248921073042, 0.16069507718202658, 0.17577688279561698, 0.19555918732658029, 0.20906608176301233, 0.2283537945477292, 0.2424307153269183, 0.25985474907793105, 0.2756400423240848, 0.2925237456802279, 0.30911868120892905, 0.3264235896640457, 0.3424444028059952, 0.3593673594587017, 0.375846241688123, 0.39273233438143507, 0.4088436008023564, 0.4260269946826156, 0.44238606895669363, 0.4593994789174758, 0.4758769958280027, 0.49273407517466694, 0.509092125488678, 0.5260068901407067, 0.5424601723789237, 0.5593124731094576, 0.5758811259584036, 0.5927061199909076, 0.6091440422460437, 0.626151649543317, 0.6424127612262964, 0.6593589285330381, 0.6760112080082763, 0.6926723621436395, 0.7091461243689992, 0.7260301690839697, 0.7422097021189984, 0.7593391653499566, 0.7755473703728057, 0.792750902910484, 0.8088877693226095, 0.8260452218528371, 0.8421950589399785, 0.8593603621411603, 0.8755129298660904, 0.8927529850334395, 0.9088427474780474, 0.9260667599737644, 0.9422104530676734, 0.959424225584371, 0.9755610919673927, 0.99280251248274, 1.0089441575400997, 1.0261330127541441, 1.0426470522943418, 1.0594955983397085, 1.0756054994126316, 1.0926940026693046, 1.1093677861208562, 1.1279141232953407, 1.142193113337271, 1.1593594405276235, 1.1758031654462684, 1.192524394224165, 1.209032631100854, 1.2260361424123403, 1.242512293974869, 1.2589915175340138]
18	inanimate/n53.jpg	inanimate	animate	left	1.269	[0.0, 2.0, 3.0, 6.0, 8.0, 8.0, 8.0, 8.0, 8.0, 8.0, 8.0, 8.0, 8.0, 8.0, 8.0, 8.0, 8.0, 8.0, 8.0, 8.0, 8.0, 8.0, 8.0, 8.0, 8.0, 8.0, 8.0, 8.0, 8.0, 8.0, 8.0, 8.0, 8.0, 9.0, 12.0, 15.0, 25.0, 35.0, 43.0, 44.0, 44.0, 22.0, -28.0, -112.0, -239.0, -382.0, -529.0, -649.0, -741.0, -809.0, -829.0, -834.0, -837.0, -837.0, -837.0, -836.0, -835.0, -832.0, -828.0, -821.0, -800.0, -774.0, -749.0, -730.0, -724.0, -723.0, -723.0, -723.0, -723.0, -723.0, -723.0, -723.0, -723.0, -723.0, -723.0, -723.0]	[-490.0, -494.0, -496.0, -501.0, -502.0, -502.0, -502.0, -502.0, -502.0, -502.0, -502.0, -502.0, -502.0, -502.0, -502.0, -502.0, -502.0, -502.0, -502.0, -502.0, -502.0, -502.0, -502.0, -502.0, -502.0, -502.0, -502.0, -502.0, -502.0, -502.0, -502.0, -502.0, -502.0, -502.0, -497.0, -493.0, -474.0, -449.0, -422.0, -389.0, -348.0, -304.0, -243.0, -171.0, -78.0, 14.0, 97.0, 165.0, 220.0, 279.0, 309.0, 327.0, 342.0, 350.0, 357.0, 362.0, 368.0, 372.0, 377.0, 382.0, 388.0, 393.0, 401.0, 403.0, 406.0, 406.0, 406.0, 406.0, 406.0, 406.0, 406.0, 406.0, 406.0, 406.0, 406.0, 406.0]	[0.004624586435966194, 0.009585181251168251, 0.024708629498491064, 0.04110695709823631, 0.058187951013678685, 0.07453439600067213, 0.09143721399595961, 0.1103716469660867, 0.12470081297215074, 0.14305361424339935, 0.15811016119550914, 0.17721730875200592, 0.19136932282708585, 0.21047783573158085, 0.22469879910931922, 0.24372334402869456, 0.2580890326644294, 0.2754461651202291, 0.2914809729263652, 0.3077908952254802, 0.324497446679743, 0.3442544925492257, 0.3579289815679658, 0.3770607050973922, 0.39120213786372915, 0.40940065652830526, 0.4245469741290435, 0.44377631894894876, 0.4579484716814477, 0.47604493174003437, 0.4909475374442991, 0.509513671946479, 0.52451116827433, 0.5426373243099079, 0.557607172668213, 0.5751612543244846, 0.5909567875787616, 0.6086907518329099, 0.6245180290716235, 0.6414539563993458, 0.6578727639862336, 0.6747325740288943, 0.6911889282637276, 0.7080528342921752, 0.7245327405107673, 0.7413891372270882, 0.7578837207693141, 0.7747418241633568, 0.7911817943968344, 0.8081214763806202, 0.8245215106580872, 0.8415243392810225, 0.8576441390323453, 0.8747032876417506, 0.8911610071954783, 0.9082003584771883, 0.9243034328974318, 0.9414523521263618, 0.9579981356509961, 0.9747968470619526, 0.9912091693258844, 1.008129736641422, 1.0242543150670826, 1.0414906155783683, 1.0576336259837262, 1.0747490945504978, 1.091220808768412, 1.1081717547785956, 1.1246509783377405, 1.1414735830621794, 1.1577947693585884, 1.1747972566518001, 1.1910122883564327, 1.2082141142163891, 1.2243520046176855, 1.2414411905338056]
19	inanimate/n32.jpg	inanimate	animate	left	0.932	[0.0, 0.0, 0.0, 0.0, 0.0, 0.0, 0.0, 0.0, 0.0, 0.0, 0.0, 0.0, 0.0, 0.0, 0.0, 0.0, 0.0, 0.0, 0.0, 0.0, 0.0, 0.0, 0.0, 0.0, 0.0, 0.0, 0.0, 0.0, 0.0, 0.0, 0.0, 0.0, 0.0, -23.0, -77.0, -159.0, -251.0, -348.0, -436.0, -518.0, -614.0, -662.0, -694.0, -716.0, -727.0, -734.0, -737.0, -738.0, -738.0, -738.0, -738.0, -738.0, -739.0, -739.0, -739.0, -739.0]	[-490.0, -490.0, -490.0, -490.0, -490.0, -490.0, -490.0, -490.0, -490.0, -490.0, -490.0, -490.0, -490.0, -490.0, -490.0, -490.0, -490.0, -490.0, -490.0, -490.0, -490.0, -490.0, -490.0, -490.0, -490.0, -490.0, -490.0, -490.0, -490.0, -490.0, -490.0, -490.0, -490.0, -467.0, -410.0, -316.0, -211.0, -108.0, -15.0, 65.0, 176.0, 242.0, 298.0, 340.0, 366.0, 384.0, 394.0, 400.0, 402.0, 404.0, 407.0, 414.0, 425.0, 429.0, 430.0, 430.0]	[0.01600866168155335, 0.021502760209841654, 0.029385166853899136, 0.046656283346237615, 0.06270679243607447, 0.08021615949110128, 0.09601851939805783, 0.11389379558386281, 0.1295954622037243, 0.14715807721950114, 0.16287544515216723, 0.18000900439801626, 0.19624861207557842, 0.2130732648074627, 0.22958866966655478, 0.24639420773019083, 0.2628386153082829, 0.279769763990771, 0.29596363301970996, 0.313123816245934, 0.32955388783011585, 0.3464365671679843, 0.3628321641299408, 0.3797687741171103, 0.39618143771076575, 0.4131334077101201, 0.42956313796457835, 0.44647039330448024, 0.4629588328534737, 0.479772221588064, 0.4961712318472564, 0.5130600552074611, 0.5293351615255233, 0.5464758887537755, 0.5626011498388834, 0.5797780583670828, 0.5959719274251256, 0.6131546386168338, 0.6293392916559242, 0.6464909415517468, 0.6626257599564269, 0.6798804924474098, 0.6959494335751515, 0.7131161020952277, 0.7293072404863779, 0.746458549023373, 0.7626131647557486, 0.7799416252237279, 0.7959569770318922, 0.8131809895276092, 0.8292929386370815, 0.8465292391192634, 0.8626684948685579, 0.8799071847170126, 0.8959921684872825, 0.9131154876959044]
20	animate/a17.jpg	animate	inanimate	left	0.978	[0.0, 0.0, 0.0, 0.0, 0.0, 0.0, 0.0, 0.0, 0.0, 0.0, 0.0, 0.0, 0.0, 0.0, 0.0, 0.0, 0.0, 0.0, 0.0, 0.0, 0.0, 0.0, 0.0, 0.0, 0.0, 0.0, 0.0, 0.0, 0.0, 0.0, -4.0, -22.0, -49.0, -80.0, -96.0, -71.0, 4.0, 126.0, 282.0, 461.0, 631.0, 750.0, 792.0, 794.0, 776.0, 695.0, 471.0, 250.0, 21.0, -195.0, -372.0, -491.0, -586.0, -643.0, -672.0, -680.0, -680.0, -680.0, -680.0]	[-490.0, -490.0, -490.0, -490.0, -490.0, -490.0, -490.0, -490.0, -490.0, -490.0, -490.0, -490.0, -490.0, -490.0, -490.0, -490.0, -490.0, -490.0, -490.0, -490.0, -490.0, -490.0, -490.0, -490.0, -490.0, -490.0, -490.0, -490.0, -490.0, -490.0, -491.0, -477.0, -433.0, -338.0, -170.0, -55.0, 71.0, 187.0, 283.0, 378.0, 456.0, 514.0, 538.0, 540.0, 540.0, 540.0, 534.0, 507.0, 484.0, 475.0, 464.0, 462.0, 462.0, 462.0, 465.0, 466.0, 466.0, 466.0, 466.0]	[0.014889771584421396, 0.023043538065394387, 0.030212217068765312, 0.04492333487723954, 0.062158270040526986, 0.07826714712427929, 0.09545805031666532, 0.11168775934493169, 0.12869843863882124, 0.1450629742757883, 0.16212587751215324, 0.17838528254651465, 0.1954560364538338, 0.214199322857894, 0.22869130477192812, 0.2477568096946925, 0.2620371650264133, 0.279294286883669, 0.29538268398027867, 0.3119079875177704, 0.3284281710512005, 0.34491319727385417, 0.36177403130568564, 0.38107983476947993, 0.3949553689744789, 0.4131002983485814, 0.4285053464700468, 0.44775346462847665, 0.4615740441950038, 0.47997975212638266, 0.4951257283682935, 0.5120845250203274, 0.5286050498834811, 0.5461113449127879, 0.5618314435414504, 0.5794947518443223, 0.5951960771344602, 0.6125006442598533, 0.62852214006125, 0.645388094097143, 0.6618700483231805, 0.6788414742914028, 0.6951292099547572, 0.712078449287219, 0.7285081795416772, 0.7453871042234823, 0.7618571117927786, 0.778662308526691, 0.7949234202096704, 0.8121856620418839, 0.8284815896768123, 0.8454366316727828, 0.8616049007396214, 0.8787702039408032, 0.8951292782148812, 0.9121327895263676, 0.9285901677503716, 0.9453905858390499, 0.9618861933704466]
21	inanimate/n71.jpg	inanimate	animate	left	0.764	[0.0, 0.0, 0.0, 0.0, 0.0, 0.0, -1.0, -1.0, -1.0, 0.0, 4.0, 6.0, 6.0, 6.0, 6.0, 6.0, 6.0, 6.0, 6.0, 7.0, 9.0, 10.0, 18.0, 22.0, 27.0, 38.0, 64.0, 92.0, 121.0, 144.0, 170.0, 177.0, 175.0, 111.0, 3.0, -133.0, -310.0, -524.0, -748.0, -943.0, -960.0, -960.0, -960.0, -960.0, -960.0, -959.0]	[-490.0, -490.0, -490.0, -490.0, -490.0, -490.0, -492.0, -494.0, -497.0, -499.0, -504.0, -510.0, -511.0, -511.0, -511.0, -511.0, -511.0, -511.0, -511.0, -512.0, -512.0, -512.0, -507.0, -496.0, -469.0, -410.0, -326.0, -224.0, -129.0, -42.0, 47.0, 123.0, 144.0, 202.0, 253.0, 296.0, 340.0, 381.0, 418.0, 449.0, 485.0, 524.0, 529.0, 531.0, 532.0, 533.0]	[0.011081858887337148, 0.01632951488136314, 0.037515722680836916, 0.04175883517018519, 0.053776834363816306, 0.07079229230294004, 0.08730155319790356, 0.10406749660614878, 0.12043237357283942, 0.1374775275180582, 0.15398951905081049, 0.17085240109008737, 0.18739852594444528, 0.20419792001484893, 0.22059693027404137, 0.23752364161191508, 0.2540329025068786, 0.27081932590226643, 0.2870783895778004, 0.30406654087710194, 0.32034301254316233, 0.33746940377750434, 0.3536799981375225, 0.37091151997447014, 0.3870787650521379, 0.40431540689314716, 0.42043452395591885, 0.4375820778659545, 0.453709386929404, 0.470840556838084, 0.4871607191453222, 0.5042376170458738, 0.523057362093823, 0.5374046187498607, 0.5562189024349209, 0.5707620843313634, 0.5898576265608426, 0.604230141849257, 0.6233833693841007, 0.6374411755241454, 0.6564128138124943, 0.6708491584286094, 0.6883489681349602, 0.7043288212735206, 0.7210903273662552, 0.7374715883051977]
22	inanimate/n33.jpg	animate	inanimate	left	0.784	[0.0, 0.0, 0.0, 0.0, 0.0, 0.0, 0.0, 1.0, 1.0, 1.0, 2.0, 2.0, 2.0, 2.0, 2.0, 2.0, 2.0, 2.0, 2.0, 2.0, 2.0, 2.0, 2.0, 3.0, 8.0, 20.0, 58.0, 80.0, 208.0, 333.0, 466.0, 587.0, 689.0, 762.0, 807.0, 826.0, 827.0, 820.0, 793.0, 726.0, 599.0, 331.0, 110.0, -132.0, -359.0, -543.0, -666.0, -709.0]	[-490.0, -490.0, -490.0, -490.0, -490.0, -490.0, -490.0, -490.0, -490.0, -490.0, -491.0, -491.0, -491.0, -491.0, -491.0, -491.0, -491.0, -491.0, -491.0, -491.0, -491.0, -491.0, -489.0, -481.0, -463.0, -438.0, -371.0, -339.0, -172.0, -47.0, 83.0, 210.0, 319.0, 410.0, 475.0, 513.0, 531.0, 540.0, 540.0, 540.0, 540.0, 540.0, 540.0, 540.0, 540.0, 540.0, 540.0, 540.0]	[0.009128477482590824, 0.015408324950840324, 0.02076452487381175, 0.033285307785263285, 0.05007889919215813, 0.06639872016967274, 0.08355719671817496, 0.09992446299293078, 0.11692592629697174, 0.13367241373634897, 0.1502769065555185, 0.1675589457154274, 0.18355347617762163, 0.20232065592426807, 0.21691435511456802, 0.23380966379772872, 0.2501107114367187, 0.2669650601455942, 0.283303995791357, 0.29975284068495966, 0.3167068586917594, 0.33511802792781964, 0.3499339350091759, 0.3678709924861323, 0.38322859528125264, 0.4011281061102636, 0.4163659009791445, 0.43495524613535963, 0.44988447581999935, 0.4677389306889381, 0.48327470940421335, 0.5006932818214409, 0.5166410496458411, 0.5342227793007623, 0.5496718593931291, 0.5672163837589324, 0.5830842796131037, 0.6001918975380249, 0.616642790439073, 0.6334326271899045, 0.6499046827375423, 0.6668566527368966, 0.6832938923325855, 0.7002284543123096, 0.7165585152979475, 0.7334599679743405, 0.7499593301909044, 0.7668184575450141]
23	animate/a18.jpg	inanimate	animate	right	0.711	[0.0, 0.0, 0.0, 0.0, 0.0, 0.0, 4.0, 9.0, 13.0, 16.0, 18.0, 18.0, 18.0, 18.0, 18.0, 18.0, 18.0, 18.0, 18.0, 18.0, 18.0, 18.0, 18.0, 18.0, 18.0, 19.0, 19.0, 19.0, 21.0, 23.0, 26.0, 35.0, 51.0, 88.0, 140.0, 219.0, 326.0, 435.0, 543.0, 690.0, 764.0, 812.0, 838.0]	[-490.0, -491.0, -491.0, -491.0, -491.0, -495.0, -501.0, -506.0, -507.0, -510.0, -511.0, -511.0, -511.0, -511.0, -511.0, -511.0, -511.0, -511.0, -511.0, -511.0, -511.0, -511.0, -510.0, -509.0, -508.0, -508.0, -505.0, -503.0, -500.0, -497.0, -493.0, -480.0, -454.0, -404.0, -321.0, -209.0, -86.0, 41.0, 164.0, 353.0, 466.0, 540.0, 540.0]	[0.00014697806909680367, 0.005548575310967863, 0.01403650696738623, 0.03147146335686557, 0.04767693774192594, 0.06453777177375741, 0.0809961740160361, 0.09784130670595914, 0.11421574099222198, 0.13119706563884392, 0.14768072654260322, 0.1645705738919787, 0.1808979041816201, 0.19786728217150085, 0.21431134841986932, 0.23129915838944726, 0.2477104566351045, 0.2645726560149342, 0.28079861038713716, 0.29790008428972214, 0.31420079059898853, 0.3311670965922531, 0.34744083759142086, 0.36454128750483505, 0.3806911245628726, 0.3979137717396952, 0.41406053680111654, 0.4312893280002754, 0.4474227810569573, 0.46461368424934335, 0.48073621466755867, 0.49795135253225453, 0.5140766135882586, 0.5313344181049615, 0.5473903885576874, 0.5646775476925541, 0.580802808777662, 0.597975962649798, 0.6141025890538003, 0.6312880309124012, 0.6474781453143805, 0.6646103391831275, 0.6809148001775611]
24	inanimate/n48.jpg	inanimate	animate	left	1.295	[0.0, 0.0, 0.0, 0.0, 0.0, 0.0, 0.0, 0.0, 0.0, 0.0, 0.0, 0.0, 0.0, 0.0, 0.0, 0.0, 0.0, 0.0, 0.0, 0.0, -1.0, -1.0, -1.0, -1.0, -1.0, -1.0, -1.0, -1.0, -1.0, -1.0, -1.0, -1.0, -1.0, -1.0, -1.0, -1.0, -1.0, -1.0, 11.0, 50.0, 100.0, 146.0, 178.0, 184.0, 174.0, 115.0, -1.0, -295.0, -420.0, -779.0, -960.0, -960.0, -960.0, -960.0, -960.0, -960.0, -960.0, -960.0, -960.0, -953.0, -906.0, -778.0, -687.0, -630.0, -595.0, -575.0, -556.0, -538.0, -508.0, -481.0, -464.0, -458.0, -458.0, -465.0, -528.0, -601.0, -682.0, -749.0]	[-490.0, -490.0, -490.0, -490.0, -490.0, -491.0, -494.0, -498.0, -504.0, -507.0, -509.0, -509.0, -509.0, -509.0, -509.0, -509.0, -509.0, -510.0, -510.0, -510.0, -511.0, -511.0, -511.0, -511.0, -511.0, -511.0, -511.0, -511.0, -511.0, -511.0, -511.0, -511.0, -511.0, -511.0, -511.0, -511.0, -511.0, -510.0, -496.0, -460.0, -403.0, -316.0, -233.0, -189.0, -161.0, -129.0, -92.0, 19.0, 76.0, 238.0, 319.0, 379.0, 402.0, 406.0, 406.0, 406.0, 406.0, 406.0, 406.0, 406.0, 385.0, 329.0, 293.0, 268.0, 253.0, 238.0, 223.0, 203.0, 167.0, 150.0, 149.0, 159.0, 209.0, 244.0, 383.0, 476.0, 540.0, 540.0]	[0.003638474940089509, 0.009386183985043317, 0.02183323894860223, 0.03923884069081396, 0.055436464404920116, 0.07246421035961248, 0.08885093263234012, 0.10589062524377368, 0.12201520364033058, 0.13922146684490144, 0.1553839332482312, 0.17263422839459963, 0.18868917485815473, 0.20592035536537878, 0.22204152043559588, 0.23923720230231993, 0.25538430869346485, 0.27263938254327513, 0.288717198302038, 0.3060494134260807, 0.3220985571970232, 0.339231433783425, 0.3553529401833657, 0.37256603004061617, 0.3887281550851185, 0.40596650360384956, 0.42204261271399446, 0.4392461452225689, 0.4553710649779532, 0.47255616550683044, 0.48869337324867956, 0.5059463990910444, 0.5220443535072263, 0.5390918967896141, 0.5556455309560988, 0.5725800929649267, 0.5916671018640045, 0.6059245879005175, 0.623195704392856, 0.6391475682030432, 0.6564545246947091, 0.6724698764737695, 0.6891996385820676, 0.7057897954364307, 0.7220232591207605, 0.7388748771627434, 0.7581496192724444, 0.7722405347449239, 0.7904574854183011, 0.8057133709371556, 0.8235330097959377, 0.8388885646127164, 0.8560798091348261, 0.8720036836457439, 0.88883004305535, 0.9058024930127431, 0.922021279373439, 0.9387643534864765, 0.955692088813521, 0.9724167309177574, 0.9889382797991857, 1.0057434765039943, 1.0222698040597606, 1.0391422434186097, 1.055518725712318, 1.0723921890603378, 1.0887140580452979, 1.1062596064002719, 1.1221967928868253, 1.1391545655496884, 1.1555399224744178, 1.1726471990696155, 1.1889359587221406, 1.2058916833775584, 1.2222538296773564, 1.2393068342644256, 1.2553972793684807, 1.2725287905777805]
25	inanimate/n72.jpg	inanimate	animate	left	1.53	[0.0, 0.0, 0.0, 0.0, 0.0, 0.0, 0.0, 1.0, 3.0, 4.0, 5.0, 6.0, 7.0, 7.0, 7.0, 7.0, 7.0, 7.0, 7.0, 7.0, 7.0, 7.0, 7.0, 7.0, 7.0, 7.0, 7.0, 7.0, 7.0, 7.0, 7.0, 7.0, 7.0, 7.0, 7.0, 7.0, 10.0, 13.0, 16.0, 21.0, 25.0, 35.0, 69.0, 112.0, 171.0, 243.0, 296.0, 335.0, 341.0, 341.0, 337.0, 331.0, 320.0, 291.0, 253.0, 173.0, 68.0, -66.0, -228.0, -404.0, -579.0, -755.0, -927.0, -960.0, -960.0, -960.0, -960.0, -960.0, -960.0, -960.0, -957.0, -920.0, -839.0, -727.0, -605.0, -434.0, -394.0, -316.0, -297.0, -286.0, -278.0, -266.0, -261.0, -257.0, -257.0, -261.0, -302.0, -393.0, -521.0, -669.0, -810.0, -896.0]	[-490.0, -490.0, -490.0, -490.0, -490.0, -490.0, -492.0, -495.0, -498.0, -500.0, -501.0, -503.0, -504.0, -504.0, -504.0, -504.0, -504.0, -504.0, -504.0, -504.0, -505.0, -505.0, -505.0, -505.0, -505.0, -505.0, -505.0, -505.0, -505.0, -505.0, -505.0, -504.0, -504.0, -502.0, -501.0, -498.0, -497.0, -494.0, -491.0, -488.0, -485.0, -477.0, -427.0, -347.0, -233.0, -108.0, 1.0, 87.0, 118.0, 129.0, 135.0, 138.0, 139.0, 139.0, 139.0, 158.0, 200.0, 258.0, 326.0, 387.0, 442.0, 498.0, 540.0, 540.0, 540.0, 540.0, 540.0, 540.0, 540.0, 540.0, 540.0, 526.0, 488.0, 431.0, 363.0, 289.0, 266.0, 218.0, 198.0, 175.0, 151.0, 114.0, 92.0, 82.0, 82.0, 81.0, 117.0, 212.0, 340.0, 466.0, 540.0, 540.0]	[0.005248543428024277, 0.013142214069375768, 0.02454717888031155, 0.042559329653158784, 0.05781316719367169, 0.07463031058432534, 0.09119213678059168, 0.10820554671227, 0.12452366104116663, 0.14145822302089073, 0.15760294010397047, 0.1747962326335255, 0.19119217089610174, 0.20806256227660924, 0.22427144995890558, 0.2414333398337476, 0.2578668247733731, 0.27477612809161656, 0.2909464451659005, 0.30812369502382353, 0.324505638651317, 0.34154737924109213, 0.35786446955171414, 0.3748123435652815, 0.39128781243925914, 0.40815274248598143, 0.4242541102285031, 0.44141736545134336, 0.45786416236660443, 0.47460860179853626, 0.4910304813820403, 0.5080636886705179, 0.5243268483318388, 0.5414979541965295, 0.5576071726391092, 0.5747782785037998, 0.5909212889091577, 0.608068501460366, 0.6242661251744721, 0.6414461056992877, 0.6576031107688323, 0.6747878699679859, 0.6910489816509653, 0.7080248449346982, 0.7244750552054029, 0.7415946197579615, 0.7578311554389074, 0.7748496854037512, 0.7911002157488838, 0.8081771136785392, 0.8248198358051013, 0.8415192192769609, 0.8606038388388697, 0.8746527702896856, 0.8937015498813707, 0.9080331052246038, 0.9269951861642767, 0.9415516800363548, 0.9604564170294907, 0.9747354070714209, 0.9922918780648615, 1.0081778645981103, 1.0271669108769856, 1.0414663809060585, 1.0604622538376134, 1.0746897025383078, 1.0936702154867817, 1.1080536534718703, 1.1251032447325997, 1.141479727026308, 1.1576845187228173, 1.1744279341364745, 1.193923860177165, 1.2076942637795582, 1.2273434483795427, 1.2410087214084342, 1.2608623645501211, 1.2743088430142961, 1.2939218463143334, 1.3078065965382848, 1.3269284214184154, 1.3413173207081854, 1.3584815999201965, 1.3744873943796847, 1.391457113699289, 1.407799121341668, 1.4247801046294626, 1.440891371050384, 1.45812084490899, 1.4744980098621454, 1.491544187796535, 1.5078827820834704]
26	inanimate/n49.jpg	animate	inanimate	right	0.747	[0.0, 0.0, 0.0, 0.0, 0.0, 0.0, 0.0, 0.0, 0.0, 0.0, 0.0, 0.0, 0.0, 0.0, 1.0, 1.0, 6.0, 11.0, 17.0, 23.0, 26.0, 27.0, 27.0, 27.0, 27.0, 27.0, 27.0, 27.0, 23.0, -25.0, -55.0, -65.0, -65.0, -65.0, -65.0, -65.0, -33.0, 99.0, 307.0, 639.0, 849.0, 959.0, 959.0, 959.0, 959.0]	[-490.0, -490.0, -490.0, -490.0, -490.0, -490.0, -490.0, -490.0, -490.0, -490.0, -490.0, -490.0, -492.0, -493.0, -493.0, -493.0, -493.0, -493.0, -493.0, -490.0, -489.0, -489.0, -489.0, -489.0, -489.0, -489.0, -489.0, -489.0, -507.0, -539.0, -539.0, -539.0, -539.0, -539.0, -539.0, -539.0, -525.0, -443.0, -298.0, 38.0, 301.0, 540.0, 540.0, 540.0, 540.0]	[0.013644246879266575, 0.018916137516498566, 0.02526425159885548, 0.04259885606006719, 0.05877531709847972, 0.07609353758743964, 0.09212936935364269, 0.10933290189132094, 0.12549263762775809, 0.1426722768228501, 0.15880026857485063, 0.1760812837164849, 0.19211882216040976, 0.2093291813507676, 0.22547423976357095, 0.24259687631274574, 0.2589719932875596, 0.27596901924698614, 0.2922270589042455, 0.3093671034730505, 0.32573129775119014, 0.34263889444991946, 0.36164125270443037, 0.3759680293733254, 0.39479289439623244, 0.4091613136988599, 0.4257180198910646, 0.4423648380325176, 0.45897206154768355, 0.4757704315998126, 0.4923329404555261, 0.5089998972543981, 0.5269830347097013, 0.5424123174743727, 0.559353023476433, 0.5757318951073103, 0.5926323237654287, 0.608972624730086, 0.625840968103148, 0.6423399889899883, 0.659203895018436, 0.675757187884301, 0.6926282618951518, 0.7087576189951506, 0.7261099727766123]
27	animate/a72.jpg	inanimate	animate	right	1.116	[0.0, 0.0, 0.0, 0.0, 0.0, 0.0, 0.0, 1.0, 1.0, 1.0, 1.0, 1.0, 1.0, 1.0, 1.0, 1.0, 1.0, 1.0, 1.0, 1.0, 1.0, 1.0, 1.0, 1.0, 1.0, 1.0, 1.0, 1.0, 1.0, 1.0, 1.0, 1.0, 1.0, 1.0, 6.0, 19.0, 48.0, 121.0, 192.0, 234.0, 372.0, 461.0, 546.0, 604.0, 625.0, 627.0, 627.0, 627.0, 627.0, 627.0, 627.0, 618.0, 614.0, 607.0, 594.0, 570.0, 523.0, 456.0, 393.0, 359.0, 355.0, 394.0, 480.0, 599.0, 773.0, 844.0, 861.0]	[-490.0, -490.0, -490.0, -490.0, -490.0, -490.0, -490.0, -491.0, -491.0, -491.0, -491.0, -491.0, -491.0, -491.0, -491.0, -491.0, -491.0, -492.0, -493.0, -493.0, -493.0, -493.0, -493.0, -493.0, -493.0, -493.0, -493.0, -493.0, -493.0, -493.0, -493.0, -493.0, -493.0, -493.0, -488.0, -470.0, -439.0, -340.0, -247.0, -187.0, 3.0, 130.0, 249.0, 341.0, 378.0, 383.0, 384.0, 384.0, 384.0, 384.0, 384.0, 362.0, 349.0, 339.0, 325.0, 296.0, 230.0, 147.0, 74.0, 38.0, 46.0, 135.0, 267.0, 396.0, 528.0, 540.0, 540.0]	[0.0006743378180544823, 0.006042825756594539, 0.016091332596261054, 0.03325356380082667, 0.04977443002280779, 0.06666154670529068, 0.08312199695501477, 0.10004324695910327, 0.11625930265290663, 0.133307187265018, 0.14952529093716294, 0.1666899115080014, 0.1828346285619773, 0.1999296171416063, 0.216067166213179, 0.2333515947102569, 0.2494341891433578, 0.26673022293834947, 0.28277254005661234, 0.2999794859206304, 0.3161166936624795, 0.33333934083930217, 0.34945197257911786, 0.3666411691228859, 0.3827916888403706, 0.4000730453408323, 0.4161293571232818, 0.43330558299203403, 0.4494922840385698, 0.4666186752729118, 0.4830357761820778, 0.4999252822017297, 0.51633555648732, 0.5333134677784983, 0.5521164874953683, 0.5665907200891525, 0.5855067210504785, 0.599967641668627, 0.616714470408624, 0.6330643287219573, 0.6498661121004261, 0.6665948502195533, 0.6830102444801014, 0.6997546839120332, 0.7177088080497924, 0.7330974721699022, 0.7506525778444484, 0.7663242071575951, 0.7832171265035868, 0.7996731394086964, 0.816587904089829, 0.832983159692958, 0.8499392256780993, 0.8663204866170418, 0.8833987498655915, 0.8997458775120322, 0.9163981569872703, 0.9327463085937779, 0.9499030784936622, 0.9660962648631539, 0.9832431360846385, 0.9998353409173433, 1.0165490603540093, 1.0330020012625027, 1.0498624939646106, 1.0664328534912784, 1.0833500075095799]
28	inanimate/n63.jpg	inanimate	animate	left	1.228	[0.0, 0.0, 0.0, 0.0, 0.0, 0.0, 0.0, 0.0, 0.0, 0.0, 0.0, 0.0, 0.0, 0.0, 0.0, 0.0, 0.0, 0.0, 0.0, 0.0, 0.0, 1.0, 6.0, 10.0, 13.0, 13.0, 13.0, 13.0, 13.0, 13.0, 13.0, 13.0, 13.0, 13.0, 13.0, 13.0, 17.0, 74.0, 161.0, 252.0, 302.0, 312.0, 288.0, 199.0, 55.0, -148.0, -383.0, -609.0, -782.0, -848.0, -852.0, -839.0, -830.0, -824.0, -824.0, -826.0, -830.0, -830.0, -830.0, -830.0, -830.0, -827.0, -825.0, -820.0, -814.0, -808.0, -800.0, -796.0, -794.0, -793.0, -792.0, -791.0, -790.0, -790.0]	[-490.0, -490.0, -490.0, -490.0, -490.0, -490.0, -490.0, -490.0, -490.0, -490.0, -490.0, -490.0, -490.0, -490.0, -490.0, -490.0, -490.0, -490.0, -490.0, -490.0, -490.0, -490.0, -490.0, -490.0, -490.0, -490.0, -490.0, -490.0, -490.0, -490.0, -490.0, -490.0, -490.0, -490.0, -490.0, -490.0, -490.0, -456.0, -391.0, -320.0, -259.0, -206.0, -130.0, -54.0, 20.0, 91.0, 165.0, 235.0, 283.0, 304.0, 311.0, 332.0, 342.0, 348.0, 350.0, 354.0, 354.0, 354.0, 354.0, 354.0, 354.0, 354.0, 353.0, 353.0, 353.0, 354.0, 359.0, 362.0, 365.0, 369.0, 375.0, 382.0, 386.0, 387.0]	[0.005513759300811216, 0.011205148388398811, 0.02600023415288888, 0.04287915883469395, 0.05938637172221206, 0.07623286976013333, 0.0926796666753944, 0.10981663924758323, 0.12605351625825278, 0.14293960895156488, 0.15916522196494043, 0.17631584784248844, 0.1925329275545664, 0.2095982201572042, 0.22579993985709734, 0.24300790971028619, 0.2590993788035121, 0.27634250596747734, 0.2924780070607085, 0.30962419559364207, 0.3257552593422588, 0.3430314958386589, 0.3591547089163214, 0.376350049424218, 0.39245346520328894, 0.40965733904158697, 0.4258013734652195, 0.44298920466098934, 0.45930902563850395, 0.4761947769729886, 0.4926050512585789, 0.5096147065341938, 0.5287699820764828, 0.5429066361684818, 0.5617161412083078, 0.5762565924087539, 0.5950893081026152, 0.6095573967031669, 0.6286621549224947, 0.6429660622670781, 0.660417402657913, 0.6763518585066777, 0.6934540150687099, 0.709640374785522, 0.7261482703324873, 0.7428084004786797, 0.7593449680134654, 0.7760778021183796, 0.7926737616071478, 0.8094284410472028, 0.825828475295566, 0.8425773520721123, 0.8610509852587711, 0.8760877349122893, 0.8933032140776049, 0.9091055740136653, 0.9262722425337415, 0.9424586022505537, 0.959753953415202, 0.9760198437434155, 0.992851664457703, 1.0093261093425099, 1.0266037111869082, 1.0425159803708084, 1.0595324623282067, 1.076091216498753, 1.0930752718122676, 1.1091373862582259, 1.1262214521702845, 1.1427556303679012, 1.1595437604410108, 1.176024349348154, 1.1930292259785347, 1.2093712335918099]
29	animate/a66.jpg	animate	inanimate	left	1.395	[0.0, 0.0, 0.0, 0.0, 0.0, 0.0, 0.0, 0.0, 0.0, 0.0, 0.0, 0.0, 0.0, 0.0, 0.0, 0.0, 0.0, 0.0, 0.0, 0.0, 0.0, 0.0, 0.0, 0.0, 0.0, 0.0, 0.0, 0.0, -1.0, -1.0, -1.0, -1.0, 15.0, 47.0, 103.0, 187.0, 343.0, 465.0, 570.0, 667.0, 739.0, 780.0, 810.0, 814.0, 814.0, 814.0, 814.0, 814.0, 814.0, 811.0, 783.0, 721.0, 648.0, 600.0, 525.0, 506.0, 475.0, 450.0, 390.0, 303.0, 179.0, 27.0, -145.0, -313.0, -480.0, -626.0, -739.0, -818.0, -846.0, -861.0, -863.0, -863.0, -863.0, -863.0, -863.0, -863.0, -863.0, -863.0, -863.0, -863.0, -863.0, -863.0, -863.0]	[-490.0, -490.0, -490.0, -490.0, -490.0, -490.0, -490.0, -490.0, -490.0, -490.0, -490.0, -490.0, -490.0, -490.0, -490.0, -490.0, -490.0, -490.0, -490.0, -490.0, -490.0, -490.0, -490.0, -490.0, -490.0, -490.0, -489.0, -487.0, -486.0, -484.0, -483.0, -479.0, -464.0, -440.0, -392.0, -321.0, -152.0, -4.0, 147.0, 288.0, 406.0, 482.0, 540.0, 540.0, 540.0, 540.0, 540.0, 540.0, 540.0, 539.0, 534.0, 528.0, 517.0, 501.0, 462.0, 452.0, 433.0, 423.0, 417.0, 417.0, 417.0, 417.0, 417.0, 417.0, 417.0, 417.0, 417.0, 417.0, 417.0, 417.0, 417.0, 417.0, 417.0, 417.0, 417.0, 417.0, 417.0, 417.0, 417.0, 417.0, 417.0, 417.0, 417.0]	[0.005558473989367485, 0.01147753227269277, 0.02651120992959477, 0.04336828927625902, 0.059504473028937355, 0.07641616568434983, 0.09338861567084678, 0.10953606342081912, 0.12675768657936715, 0.1431290488690138, 0.15998646957450546, 0.17647251981543377, 0.19333096451009624, 0.2097600121051073, 0.22640887822490185, 0.2435595041315537, 0.2596537038916722, 0.2768070604361128, 0.29283265222329646, 0.3100375500798691, 0.32641505636274815, 0.3433786316891201, 0.35982884193072096, 0.3768227958935313, 0.3931149688723963, 0.4102263414533809, 0.42662057306733914, 0.44338207913096994, 0.459770849411143, 0.4766733261058107, 0.4931644963216968, 0.5100509303447325, 0.5265373219153844, 0.5434630092349835, 0.5597777102084365, 0.5768153548415285, 0.5931273251480889, 0.6100711031467654, 0.6265250680444296, 0.6433893154026009, 0.6595777231268585, 0.676625607709866, 0.6931119992805179, 0.7103008544945624, 0.7264858488633763, 0.7435627467930317, 0.7597197518334724, 0.7768553590867668, 0.7928399908996653, 0.8128789779730141, 0.826529573649168, 0.8458476650703233, 0.8597853219544049, 0.8793235732882749, 0.8928229583543725, 0.9108293064928148, 0.926411165157333, 0.9441031454480253, 0.9597215267713182, 0.9767202594084665, 0.9930851363751572, 1.0098678051144816, 1.0263746766431723, 1.043511649215361, 1.059735214250395, 1.0766373495862354, 1.0928284879482817, 1.1100446498021483, 1.126540940022096, 1.1432543181290384, 1.1597314937098417, 1.1766503543767612, 1.1931097806082107, 1.2099712973285932, 1.226411950221518, 1.243319888249971, 1.2597765838145278, 1.2766896418179385, 1.2931354147440288, 1.3100242381042335, 1.326485370984301, 1.3433857996715233, 1.359550655412022]
30	animate/a10.jpg	animate	inanimate	left	1.249	[0.0, 0.0, 0.0, 0.0, 0.0, 0.0, 0.0, 0.0, 0.0, 0.0, 0.0, 0.0, 0.0, 0.0, 0.0, 0.0, -1.0, -1.0, -2.0, -3.0, -3.0, -4.0, -4.0, -4.0, -4.0, -4.0, -4.0, -3.0, -3.0, -2.0, -2.0, -1.0, 4.0, 18.0, 65.0, 145.0, 307.0, 428.0, 527.0, 607.0, 664.0, 689.0, 693.0, 693.0, 688.0, 683.0, 683.0, 686.0, 692.0, 698.0, 701.0, 701.0, 694.0, 655.0, 555.0, 397.0, 181.0, -38.0, -270.0, -457.0, -608.0, -708.0, -772.0, -784.0, -788.0, -788.0, -788.0, -788.0, -788.0, -801.0, -804.0, -806.0, -806.0, -806.0, -806.0]	[-490.0, -490.0, -490.0, -490.0, -490.0, -490.0, -490.0, -490.0, -490.0, -490.0, -490.0, -490.0, -490.0, -491.0, -491.0, -491.0, -491.0, -491.0, -491.0, -491.0, -490.0, -489.0, -489.0, -486.0, -483.0, -477.0, -474.0, -468.0, -463.0, -459.0, -456.0, -453.0, -444.0, -425.0, -367.0, -275.0, -118.0, -12.0, 75.0, 157.0, 219.0, 257.0, 281.0, 301.0, 325.0, 345.0, 360.0, 375.0, 388.0, 399.0, 405.0, 407.0, 411.0, 412.0, 412.0, 400.0, 391.0, 391.0, 391.0, 399.0, 422.0, 452.0, 478.0, 486.0, 490.0, 493.0, 495.0, 498.0, 501.0, 504.0, 504.0, 504.0, 504.0, 504.0, 504.0]	[0.016644224000629038, 0.021954002615530044, 0.030163065064698458, 0.04835782910231501, 0.06373249855823815, 0.08089916710741818, 0.09697152153239585, 0.11415389139438048, 0.13060785632114857, 0.14749531433335505, 0.16390080994460732, 0.1808507319074124, 0.19724086753558367, 0.21417816018220037, 0.2305590797914192, 0.24753699111170135, 0.2639540920499712, 0.28074734209803864, 0.2972948323003948, 0.31413621033425443, 0.3303966393577866, 0.3474885559407994, 0.3637984782399144, 0.38076273622573353, 0.3970337465580087, 0.4140935778268613, 0.4303860921645537, 0.4474947340786457, 0.4638316216878593, 0.48083581565879285, 0.49695390873239376, 0.5141352546052076, 0.5302786063402891, 0.5474695095326751, 0.5636572345974855, 0.5807976204669103, 0.5969904655357823, 0.614282403344987, 0.630354416440241, 0.6476989195507485, 0.6638156473054551, 0.6808205239358358, 0.6972219235321973, 0.7141506828775164, 0.730512487818487, 0.7474299831665121, 0.7664688640797976, 0.7807048461399972, 0.7997464577201754, 0.814064701058669, 0.8329243820626289, 0.847496918606339, 0.8651301895733923, 0.8808472161763348, 0.8979493727674708, 0.9141278818133287, 0.9305910627299454, 0.9470777956012171, 0.963935898966156, 0.9805243491427973, 0.9972134926065337, 1.0138152547879145, 1.0330152449314483, 1.0470256057742517, 1.0654623750015162, 1.0806482872285414, 1.0986102620372549, 1.113947043515509, 1.133163758990122, 1.147193917160621, 1.1641295031586196, 1.1804483001178596, 1.1997100716107525, 1.213935813633725, 1.231097703537671]
31	animate/a14.jpg	animate	inanimate	left	1.161	[0.0, 0.0, 0.0, 0.0, 0.0, 0.0, 0.0, 0.0, 0.0, 0.0, 0.0, 0.0, 0.0, 0.0, 0.0, 0.0, 0.0, 0.0, 0.0, 0.0, 0.0, 0.0, 0.0, 0.0, 0.0, 0.0, 0.0, 0.0, 0.0, -5.0, -14.0, 0.0, 86.0, 220.0, 448.0, 629.0, 789.0, 918.0, 959.0, 959.0, 959.0, 959.0, 959.0, 958.0, 958.0, 954.0, 932.0, 875.0, 767.0, 639.0, 494.0, 322.0, 148.0, -44.0, -239.0, -404.0, -546.0, -682.0, -734.0, -765.0, -775.0, -777.0, -777.0, -777.0, -777.0, -777.0, -777.0, -777.0, -778.0, -778.0]	[-490.0, -490.0, -490.0, -490.0, -490.0, -490.0, -490.0, -490.0, -490.0, -490.0, -490.0, -490.0, -490.0, -490.0, -490.0, -490.0, -490.0, -490.0, -490.0, -490.0, -490.0, -490.0, -490.0, -490.0, -490.0, -490.0, -490.0, -490.0, -490.0, -480.0, -414.0, -365.0, -240.0, -102.0, 96.0, 234.0, 346.0, 426.0, 484.0, 508.0, 515.0, 515.0, 516.0, 518.0, 518.0, 518.0, 518.0, 516.0, 500.0, 480.0, 444.0, 402.0, 360.0, 333.0, 320.0, 320.0, 329.0, 355.0, 373.0, 384.0, 389.0, 392.0, 396.0, 398.0, 399.0, 399.0, 401.0, 405.0, 406.0, 407.0]	[0.014522497076541185, 0.01987699035089463, 0.02495056641055271, 0.04188956573489122, 0.05901868763612583, 0.07523440200020559, 0.09231710259336978, 0.11119111959123984, 0.12549639225471765, 0.14192509852000512, 0.15897230044356547, 0.1771564831433352, 0.1924028113426175, 0.21109899377916008, 0.2254626344074495, 0.24465170191251673, 0.2588822226389311, 0.27622297109337524, 0.2922403708798811, 0.3089755943219643, 0.3254490152176004, 0.34208730002865195, 0.35856413425062783, 0.3780501616129186, 0.39198850115644746, 0.41130078994319774, 0.4253350440703798, 0.4438486132712569, 0.4600902689562645, 0.47773514525033534, 0.4919704446219839, 0.5088725799578242, 0.5252995795744937, 0.5444278897775803, 0.5583863679494243, 0.5769101771293208, 0.5919919827429112, 0.6090794620104134, 0.6251258751144633, 0.6421925330359954, 0.6587202259106562, 0.6755534119729418, 0.6918104276410304, 0.7090197628422175, 0.7253330984676722, 0.7421976871846709, 0.7584134015487507, 0.7755752914235927, 0.7917278591485228, 0.8090296956361271, 0.8250453887449112, 0.8422738386143465, 0.8586424702371005, 0.8755456295621116, 0.8919354238314554, 0.9089672658010386, 0.9253645693825092, 0.9421632807934657, 0.9583912831440102, 0.9755927676742431, 0.9917272447491996, 1.0091901904670522, 1.0250949503388256, 1.0422571815433912, 1.0584186239284463, 1.0755433085141703, 1.0917112362221815, 1.1089123794226907, 1.1250588031543884, 1.1422947623359505]
32	inanimate/n67.jpg	animate	inanimate	right	0.812	[0.0, 1.0, 1.0, 1.0, 1.0, 1.0, 1.0, 1.0, 1.0, 1.0, 1.0, 1.0, 1.0, 1.0, 1.0, 1.0, 1.0, 1.0, 1.0, 1.0, 1.0, 1.0, 1.0, 1.0, 1.0, 1.0, 1.0, 1.0, 5.0, 42.0, 109.0, 177.0, 269.0, 362.0, 489.0, 549.0, 594.0, 629.0, 646.0, 651.0, 652.0, 652.0, 653.0, 654.0, 656.0, 666.0, 668.0, 669.0, 669.0]	[-490.0, -478.0, -478.0, -477.0, -477.0, -476.0, -476.0, -476.0, -477.0, -478.0, -478.0, -478.0, -478.0, -478.0, -478.0, -478.0, -478.0, -478.0, -478.0, -478.0, -478.0, -478.0, -478.0, -478.0, -478.0, -478.0, -478.0, -478.0, -478.0, -422.0, -327.0, -217.0, -82.0, 48.0, 219.0, 301.0, 364.0, 411.0, 439.0, 454.0, 460.0, 463.0, 465.0, 469.0, 473.0, 487.0, 490.0, 491.0, 491.0]	[0.01334421502542682, 0.018358740460826084, 0.024700027890503407, 0.041904243087628856, 0.05839985061902553, 0.07529242863529362, 0.09171294289990328, 0.10872942485730164, 0.12712898876634426, 0.1420309118111618, 0.15988912133616395, 0.1752863187866751, 0.19456652225926518, 0.2086506110499613, 0.2275935773504898, 0.2419408339774236, 0.26088721363339573, 0.2752897662576288, 0.29250797608983703, 0.308758165105246, 0.32551079653785564, 0.34179307086742483, 0.3586706302303355, 0.3751338111178484, 0.3916294186783489, 0.4083277781319339, 0.4266362061025575, 0.44180163834244013, 0.45898025354836136, 0.4751526186009869, 0.4919663486361969, 0.5084585428703576, 0.5253763795481063, 0.5418518484511878, 0.5587898237572517, 0.5751407060597558, 0.5919800361152738, 0.6085391316155437, 0.6253743656852748, 0.6418344745761715, 0.6586768766283058, 0.6751625855104066, 0.6919882622314617, 0.7084705577872228, 0.7253436798346229, 0.7418416767031886, 0.7587619027181063, 0.7752032382995822, 0.7919824937125668]
33	animate/a71.jpg	animate	inanimate	left	0.982	[0.0, 0.0, 0.0, 0.0, 0.0, 0.0, 0.0, 0.0, 1.0, 1.0, 1.0, 1.0, 1.0, 1.0, 1.0, 1.0, 1.0, 1.0, 1.0, 1.0, 1.0, 1.0, 1.0, 4.0, 9.0, 15.0, 23.0, 32.0, 35.0, 47.0, 55.0, 118.0, 201.0, 322.0, 449.0, 559.0, 627.0, 640.0, 627.0, 547.0, 420.0, 123.0, -105.0, -325.0, -498.0, -635.0, -725.0, -771.0, -792.0, -795.0, -795.0, -795.0, -795.0, -795.0, -795.0, -795.0, -795.0, -795.0, -795.0]	[-490.0, -490.0, -490.0, -490.0, -490.0, -490.0, -490.0, -491.0, -491.0, -491.0, -491.0, -491.0, -491.0, -491.0, -491.0, -491.0, -491.0, -491.0, -491.0, -491.0, -491.0, -491.0, -491.0, -491.0, -491.0, -488.0, -481.0, -463.0, -454.0, -415.0, -387.0, -269.0, -162.0, -32.0, 77.0, 172.0, 234.0, 258.0, 277.0, 305.0, 323.0, 347.0, 368.0, 391.0, 391.0, 405.0, 418.0, 426.0, 429.0, 430.0, 430.0, 430.0, 430.0, 430.0, 430.0, 430.0, 430.0, 430.0, 430.0]	[0.0033036271343007684, 0.009013448201585561, 0.02381262998096645, 0.03847391312592663, 0.05750869805342518, 0.07177164542372338, 0.09072587572154589, 0.10508644435321912, 0.12255792340147309, 0.1386603151622694, 0.15509414143161848, 0.1716883942426648, 0.18810139919514768, 0.2048666599439457, 0.22421342335292138, 0.23800601364928298, 0.2561980469909031, 0.27135255656321533, 0.29080206126673147, 0.30498889135196805, 0.3232430473144632, 0.33824463965720497, 0.3564489609852899, 0.37163214254542254, 0.3908877700159792, 0.4047144936048426, 0.423082654888276, 0.43829553242539987, 0.4575665198790375, 0.4716195473447442, 0.4888773518614471, 0.5047435410670005, 0.5218668603047263, 0.5380283026897814, 0.5553369658300653, 0.5716813627805095, 0.5886060261400416, 0.6046954472258221, 0.6218795237655286, 0.638260784704471, 0.6552424506808165, 0.671601866313722, 0.6885248229664285, 0.7049822012195364, 0.72178159528994, 0.7385069200536236, 0.7551291621930432, 0.7716503697447479, 0.7885084731096867, 0.8047934781061485, 0.8218280507135205, 0.8380065597593784, 0.8552404709334951, 0.8713650493591558, 0.8886627898318693, 0.9047300242818892, 0.9218878181418404, 0.9380516498931684, 0.9552504037274048]
34	inanimate/n42.jpg	animate	inanimate	right	0.693	[0.0, 0.0, 0.0, 0.0, 0.0, 0.0, 3.0, 3.0, 3.0, 3.0, 4.0, 5.0, 5.0, 5.0, 5.0, 5.0, 5.0, 5.0, 5.0, 5.0, 6.0, 7.0, 7.0, 8.0, 9.0, 11.0, 24.0, 74.0, 156.0, 254.0, 367.0, 551.0, 612.0, 761.0, 829.0, 863.0, 876.0, 879.0, 879.0, 879.0, 879.0]	[-490.0, -490.0, -490.0, -490.0, -490.0, -490.0, -494.0, -494.0, -494.0, -494.0, -495.0, -495.0, -495.0, -495.0, -495.0, -495.0, -495.0, -495.0, -495.0, -495.0, -496.0, -496.0, -496.0, -496.0, -495.0, -490.0, -466.0, -391.0, -274.0, -149.0, -22.0, 162.0, 218.0, 374.0, 434.0, 475.0, 493.0, 501.0, 502.0, 502.0, 502.0]	[0.011255938763497397, 0.01625646953471005, 0.03783316249609925, 0.04206398699898273, 0.054010647523682564, 0.07112611611955799, 0.08733671047957614, 0.10448699502740055, 0.12063922142260708, 0.13784684994607233, 0.15400419634534046, 0.1712275261816103, 0.18736132059711963, 0.20459079442662187, 0.220697282202309, 0.2379974120121915, 0.25402505180682056, 0.27115656301612034, 0.2873715947207529, 0.3046461245394312, 0.3209580948459916, 0.33780015556840226, 0.35410359254456125, 0.3712733330903575, 0.3876655166968703, 0.40457994004827924, 0.4210543849330861, 0.43799816293176264, 0.45418008530396037, 0.47119588460191153, 0.48755530023481697, 0.5045513022050727, 0.5210943550628144, 0.5379551890946459, 0.554114242142532, 0.5712925160187297, 0.5876184809894767, 0.6045789843192324, 0.6235461852629669, 0.6377616873360239, 0.6561557899112813]
35	animate/a45.jpg	inanimate	animate	right	1.062	[0.0, 0.0, 0.0, 0.0, 0.0, 0.0, 0.0, 0.0, 1.0, 1.0, 1.0, 1.0, 1.0, 1.0, 1.0, 1.0, 1.0, 1.0, 1.0, 1.0, 1.0, 1.0, -1.0, -5.0, -20.0, -48.0, -89.0, -136.0, -184.0, -220.0, -253.0, -277.0, -290.0, -292.0, -292.0, -293.0, -309.0, -329.0, -359.0, -398.0, -450.0, -499.0, -535.0, -556.0, -562.0, -562.0, -562.0, -562.0, -546.0, -521.0, -487.0, -425.0, -335.0, -216.0, -54.0, 129.0, 321.0, 496.0, 669.0, 799.0, 917.0, 933.0, 933.0, 933.0]	[-490.0, -490.0, -490.0, -490.0, -490.0, -490.0, -490.0, -490.0, -490.0, -490.0, -491.0, -491.0, -491.0, -491.0, -491.0, -491.0, -491.0, -491.0, -491.0, -491.0, -491.0, -491.0, -489.0, -479.0, -423.0, -341.0, -249.0, -161.0, -76.0, -10.0, 48.0, 100.0, 139.0, 166.0, 199.0, 211.0, 240.0, 252.0, 261.0, 263.0, 263.0, 263.0, 263.0, 263.0, 263.0, 263.0, 263.0, 264.0, 264.0, 265.0, 270.0, 278.0, 291.0, 307.0, 331.0, 355.0, 382.0, 406.0, 430.0, 449.0, 452.0, 452.0, 452.0, 452.0]	[0.0009767589799594134, 0.011075100483139977, 0.017136836046120152, 0.03382734482875094, 0.05099606138537638, 0.06716194108594209, 0.08425624700612389, 0.10067744393018074, 0.11761849126196466, 0.1339891708921641, 0.1510786981380079, 0.1690533022629097, 0.1842846118088346, 0.20340814333758317, 0.21766494671464898, 0.2366655983205419, 0.2509224016685039, 0.26792284098337404, 0.2843041019223165, 0.3004972882918082, 0.31729122102842666, 0.336726048408309, 0.35069374259910546, 0.3699480047507677, 0.3841491708008107, 0.40242346544982865, 0.4173806844628416, 0.4357375817198772, 0.45049136618035845, 0.467519112105947, 0.48390207972261123, 0.5013411321269814, 0.5174090492364485, 0.5348061176773626, 0.5507637841510586, 0.5683485858316999, 0.5841055484197568, 0.6009414651489351, 0.617440827365499, 0.6343651493662037, 0.6504808531026356, 0.6675901776761748, 0.6840267345833126, 0.7009725605894346, 0.7174176508269738, 0.734426964801969, 0.750632097828202, 0.7676932944159489, 0.7839086674503051, 0.8010394960292615, 0.8173944743175525, 0.8344184655870777, 0.8504843347182032, 0.8676366672443692, 0.8840998481609859, 0.9009729701792821, 0.9172351058514323, 0.9343051771284081, 0.9505017768242396, 0.9676752720260993, 0.9838254504429642, 1.001126945571741, 1.0171648253744934, 1.034418875206029]
36	animate/a27.jpg	animate	inanimate	left	1.304	[0.0, 0.0, 0.0, 0.0, 0.0, 0.0, 0.0, -1.0, -1.0, -1.0, -1.0, -1.0, -1.0, -1.0, -1.0, -1.0, -6.0, -12.0, -17.0, -22.0, -25.0, -30.0, -35.0, -36.0, -43.0, -58.0, -65.0, -65.0, -65.0, -63.0, -54.0, -44.0, -40.0, -40.0, -48.0, -51.0, -60.0, -59.0, -35.0, 34.0, 138.0, 264.0, 414.0, 546.0, 637.0, 674.0, 683.0, 683.0, 639.0, 507.0, 336.0, 136.0, -65.0, -227.0, -341.0, -417.0, -473.0, -509.0, -541.0, -547.0, -562.0, -572.0, -587.0, -610.0, -635.0, -658.0, -672.0, -676.0, -683.0, -686.0, -691.0, -697.0, -712.0, -720.0, -726.0, -730.0, -730.0, -730.0]	[-490.0, -490.0, -490.0, -490.0, -490.0, -490.0, -491.0, -491.0, -491.0, -491.0, -491.0, -491.0, -491.0, -491.0, -491.0, -491.0, -484.0, -474.0, -462.0, -455.0, -449.0, -440.0, -424.0, -397.0, -345.0, -253.0, -196.0, -142.0, -87.0, -48.0, -13.0, 25.0, 79.0, 93.0, 129.0, 138.0, 165.0, 181.0, 198.0, 225.0, 246.0, 256.0, 260.0, 260.0, 266.0, 277.0, 281.0, 281.0, 291.0, 308.0, 314.0, 311.0, 288.0, 267.0, 249.0, 238.0, 235.0, 235.0, 237.0, 239.0, 249.0, 258.0, 267.0, 277.0, 286.0, 302.0, 313.0, 320.0, 333.0, 346.0, 362.0, 382.0, 407.0, 418.0, 426.0, 429.0, 429.0, 429.0]	[0.000642252474790439, 0.006533321458846331, 0.016208751156227663, 0.03313068381976336, 0.050037256500218064, 0.06624580288189463, 0.08335546878515743, 0.09987394566996954, 0.11675730769638903, 0.13307064332184382, 0.15008405328262597, 0.16628986899740994, 0.18345756153576076, 0.19970399589510635, 0.2167628031456843, 0.23292902420507744, 0.25028069532709196, 0.26621890583192, 0.283427558344556, 0.29956203541951254, 0.31674099195515737, 0.3329604609753005, 0.35012849487247877, 0.36623259328189306, 0.3834030164871365, 0.3995962028566282, 0.41679495671996847, 0.4329246551496908, 0.4503104595642071, 0.466284168738639, 0.4834784852573648, 0.4996020396647509, 0.5166649429302197, 0.5330274305597413, 0.5500251391786151, 0.566304341511568, 0.5833938687574118, 0.59956896447693, 0.6167335850186646, 0.6331544406129979, 0.6501255252514966, 0.666324514313601, 0.6835096148424782, 0.7020655093365349, 0.7166605738748331, 0.7355578015267383, 0.7501235113886651, 0.7688712351373397, 0.7832751530804671, 0.8009026214131154, 0.8166657279944047, 0.8333879807614721, 0.8502535934676416, 0.8662948865967337, 0.8830516140151303, 0.9013480952999089, 0.9164927062229253, 0.934566638286924, 0.9495491159614176, 0.9675984720524866, 0.9831571200920735, 1.0000415061076637, 1.0163452844135463, 1.0335788542579394, 1.0498505472787656, 1.0667209386301693, 1.0830281302914955, 1.1000941055535804, 1.1165548971330281, 1.1333918378222734, 1.149647146841744, 1.1667653460754082, 1.1831561643630266, 1.2000047104083933, 1.2163190700521227, 1.2332382720487658, 1.249942092836136, 1.2667237375571858]
37	inanimate/n11.jpg	animate	inanimate	right	1.493	[0.0, 0.0, 0.0, 0.0, 0.0, 0.0, 0.0, 0.0, 0.0, 0.0, 0.0, 0.0, 0.0, 0.0, 1.0, 1.0, 4.0, 7.0, 10.0, 13.0, 17.0, 25.0, 43.0, 67.0, 131.0, 159.0, 247.0, 337.0, 425.0, 506.0, 581.0, 656.0, 722.0, 775.0, 805.0, 826.0, 850.0, 852.0, 852.0, 852.0, 839.0, 803.0, 743.0, 654.0, 570.0, 518.0, 503.0, 503.0, 507.0, 524.0, 546.0, 563.0, 565.0, 565.0, 557.0, 511.0, 426.0, 309.0, 174.0, 33.0, -89.0, -176.0, -207.0, -207.0, -187.0, -105.0, 16.0, 153.0, 290.0, 426.0, 539.0, 663.0, 715.0, 746.0, 764.0, 773.0, 777.0, 777.0, 779.0, 780.0, 782.0, 782.0, 782.0, 783.0, 785.0, 789.0, 791.0, 791.0, 791.0, 791.0]	[-490.0, -490.0, -490.0, -490.0, -490.0, -490.0, -490.0, -490.0, -490.0, -490.0, -490.0, -490.0, -490.0, -490.0, -487.0, -484.0, -481.0, -479.0, -475.0, -472.0, -468.0, -460.0, -448.0, -435.0, -379.0, -352.0, -251.0, -164.0, -76.0, 16.0, 95.0, 160.0, 208.0, 251.0, 278.0, 300.0, 333.0, 347.0, 358.0, 369.0, 383.0, 400.0, 421.0, 445.0, 456.0, 462.0, 464.0, 464.0, 467.0, 471.0, 472.0, 474.0, 474.0, 474.0, 474.0, 469.0, 454.0, 432.0, 411.0, 390.0, 372.0, 361.0, 359.0, 359.0, 359.0, 364.0, 374.0, 389.0, 405.0, 426.0, 440.0, 458.0, 466.0, 470.0, 471.0, 472.0, 472.0, 473.0, 473.0, 473.0, 473.0, 473.0, 473.0, 473.0, 470.0, 464.0, 459.0, 455.0, 455.0, 455.0]	[0.01515157413086854, 0.021119784389156848, 0.02693405342870392, 0.04087751294719055, 0.05776155763305724, 0.07748003286542371, 0.09111458589904942, 0.11067434120923281, 0.12444611015962437, 0.14229373834677972, 0.15754825854673982, 0.17531499077449553, 0.19100368674844503, 0.20936843467643484, 0.22448096028529108, 0.24191694069304504, 0.2579944151220843, 0.2746463532675989, 0.291122163500404, 0.30801235217950307, 0.3245045464136638, 0.34133636712795123, 0.3575691481528338, 0.3746818860527128, 0.3911788589321077, 0.4080441303085536, 0.42448375921230763, 0.44146030518459156, 0.45797707539168186, 0.47466178151080385, 0.4911143810895737, 0.5079513218079228, 0.524559227982536, 0.5414664833224379, 0.5575675097352359, 0.5747546582715586, 0.5912048685131595, 0.6080257665598765, 0.6242838062462397, 0.6414132694771979, 0.657902733044466, 0.6747454764263239, 0.691006929409923, 0.7080159020551946, 0.7243763416772708, 0.7414057942805812, 0.7576477912953123, 0.7747065985749941, 0.7909619075653609, 0.8078524376032874, 0.8242292611976154, 0.8413409751083236, 0.8575355268258136, 0.8746830807067454, 0.8908568111073691, 0.9080958422564436, 0.9242279300233349, 0.9414321451913565, 0.9576150915818289, 0.9747100801614579, 0.9909616344957612, 1.0082208043313585, 1.024270630790852, 1.0415117099473719, 1.0578369922586717, 1.0748032982519362, 1.0911647618631832, 1.1081088811915834, 1.124350536876591, 1.1414383574738167, 1.1604502730770037, 1.1746572417905554, 1.1936684747342952, 1.2079682860639878, 1.2270819189434405, 1.2413329196569975, 1.2592539344914258, 1.274613243935164, 1.2926339280675165, 1.3080516055051703, 1.3255520978709683, 1.3413885910995305, 1.3579016066505574, 1.3744613848393783, 1.3939614068367518, 1.4075577305338811, 1.4259112144936807, 1.4409233881160617, 1.4586655443708878, 1.4741863044328056]
38	animate/a52.jpg	inanimate	animate	right	0.964	[0.0, 0.0, 0.0, 0.0, 0.0, 0.0, 0.0, 0.0, 2.0, 3.0, 7.0, 12.0, 13.0, 13.0, 13.0, 13.0, 13.0, 13.0, 13.0, 13.0, 16.0, 22.0, 47.0, 71.0, 110.0, 146.0, 185.0, 228.0, 281.0, 362.0, 481.0, 608.0, 727.0, 816.0, 865.0, 870.0, 870.0, 870.0, 870.0, 865.0, 862.0, 861.0, 861.0, 853.0, 818.0, 737.0, 591.0, 540.0, 537.0, 552.0, 604.0, 656.0, 713.0, 773.0, 812.0, 819.0, 819.0, 819.0]	[-490.0, -490.0, -490.0, -490.0, -490.0, -490.0, -494.0, -501.0, -506.0, -512.0, -527.0, -539.0, -539.0, -539.0, -539.0, -539.0, -539.0, -539.0, -538.0, -533.0, -523.0, -505.0, -438.0, -354.0, -267.0, -179.0, -87.0, 27.0, 128.0, 217.0, 296.0, 362.0, 412.0, 450.0, 472.0, 475.0, 475.0, 475.0, 475.0, 475.0, 475.0, 475.0, 475.0, 476.0, 476.0, 476.0, 468.0, 460.0, 460.0, 462.0, 470.0, 478.0, 485.0, 494.0, 497.0, 497.0, 497.0, 497.0]	[0.01610150429769419, 0.02076240858878009, 0.029498830786906183, 0.046591430029366165, 0.06288121370016597, 0.08007723689661361, 0.09632503657485358, 0.1132875878829509, 0.12952924356795847, 0.1464890642091632, 0.16307751438580453, 0.1799349350912962, 0.19606053750612773, 0.21324836870189756, 0.2296883389353752, 0.24661778094014153, 0.26276249802322127, 0.27989059590618126, 0.29634421947412193, 0.3132105148397386, 0.329815007688012, 0.3465771964401938, 0.36280622277990915, 0.379927835369017, 0.39617938970332034, 0.4134518715145532, 0.42942523935926147, 0.4465953212347813, 0.4627652969502378, 0.47988247219473124, 0.49605927456286736, 0.5132546150998678, 0.5294000148423947, 0.5465765820408706, 0.5627523604198359, 0.5799347302818205, 0.5960634046932682, 0.6132826385437511, 0.6294065342808608, 0.6466424934624229, 0.662748298549559, 0.6799535377358552, 0.6961084947979543, 0.7134840592334513, 0.7294287550903391, 0.7466172689455561, 0.7627817833272275, 0.7799757585453335, 0.7961010196013376, 0.8134714640618768, 0.8295072958280798, 0.8464780391659588, 0.8628309694468044, 0.8799532646662556, 0.8961969683587085, 0.9133390609058551, 0.9319659527100157, 0.9465924199030269]
39	inanimate/n71.jpg	animate	inanimate	right	1.413	[0.0, 0.0, 0.0, 0.0, 0.0, 0.0, 0.0, 0.0, 0.0, 0.0, 0.0, 5.0, 10.0, 20.0, 28.0, 35.0, 40.0, 47.0, 50.0, 50.0, 50.0, 50.0, 42.0, 38.0, 29.0, 25.0, 19.0, 19.0, 19.0, 19.0, 19.0, 19.0, 19.0, 19.0, 19.0, 19.0, 19.0, 19.0, 19.0, 19.0, 19.0, 19.0, 19.0, 19.0, 19.0, 19.0, 19.0, 19.0, 19.0, 19.0, 19.0, 19.0, 19.0, 19.0, 19.0, 19.0, 19.0, -13.0, -62.0, -62.0, -62.0, -48.0, -13.0, 95.0, 295.0, 554.0, 812.0, 959.0, 959.0, 959.0, 959.0, 959.0, 959.0, 959.0, 957.0, 942.0, 919.0, 878.0, 834.0, 792.0, 773.0, 769.0, 767.0, 764.0, 764.0]	[-490.0, -490.0, -490.0, -490.0, -490.0, -490.0, -490.0, -490.0, -490.0, -490.0, -490.0, -490.0, -487.0, -483.0, -481.0, -478.0, -477.0, -475.0, -473.0, -473.0, -473.0, -471.0, -466.0, -465.0, -458.0, -446.0, -440.0, -440.0, -440.0, -440.0, -440.0, -440.0, -440.0, -440.0, -440.0, -440.0, -440.0, -440.0, -440.0, -440.0, -440.0, -440.0, -440.0, -440.0, -440.0, -440.0, -440.0, -440.0, -440.0, -440.0, -440.0, -440.0, -440.0, -440.0, -440.0, -440.0, -440.0, -447.0, -443.0, -441.0, -440.0, -430.0, -414.0, -361.0, -267.0, -79.0, 165.0, 379.0, 540.0, 540.0, 540.0, 540.0, 540.0, 540.0, 540.0, 538.0, 534.0, 530.0, 523.0, 514.0, 512.0, 512.0, 512.0, 518.0, 518.0]	[0.011627650586888194, 0.01763374885194935, 0.024792529176920652, 0.03840899153146893, 0.05537427353556268, 0.07449234373052604, 0.08871330713736825, 0.10785800131270662, 0.12200114075676538, 0.14093625638633966, 0.15527668638969772, 0.1737892315723002, 0.18866521326708607, 0.20764913957100362, 0.222304620052455, 0.23966516583459452, 0.255324848491, 0.2722464398248121, 0.288799050002126, 0.3050270523817744, 0.3217295078211464, 0.3413141804630868, 0.3551013093965594, 0.37459621141897514, 0.3886137402441818, 0.4077618477749638, 0.42174080593395047, 0.4401096498768311, 0.4551327461958863, 0.47196729757706635, 0.48852332108072005, 0.5054049764585216, 0.5217391334008425, 0.5387627833697479, 0.5551157136505935, 0.5719956623506732, 0.5884786405658815, 0.6053145572950598, 0.6215155943355057, 0.6387648654927034, 0.6551010704715736, 0.6719823844905477, 0.6885223653516732, 0.7053890020470135, 0.7218409189663362, 0.7387246223224793, 0.7551161232695449, 0.7719042533426546, 0.7884534501936287, 0.8053422735538334, 0.8217317264934536, 0.8387048591393977, 0.8552042213559616, 0.8721026020357385, 0.8882800870924257, 0.9053351396869402, 0.9215655313746538, 0.9387277625792194, 0.9548591676575597, 0.972115948155988, 0.9881941052444745, 1.005396613792982, 1.0215717095125, 1.0388411193271168, 1.0548663697845768, 1.072130318294512, 1.0882043793972116, 1.105278205301147, 1.1216383035934996, 1.1386018789198715, 1.1551111397857312, 1.1719921124749817, 1.1883866854186635, 1.2056103566137608, 1.2218028603238054, 1.2388886329135858, 1.254992731323, 1.2721450638782699, 1.2887935886683408, 1.3054445028246846, 1.3237211868108716, 1.3387589604244567, 1.3577879426884465, 1.371929716784507, 1.3908682457404211]
40	animate/a76.jpg	inanimate	animate	right	1.06	[0.0, 0.0, 0.0, 0.0, 0.0, 0.0, 0.0, 0.0, 0.0, 0.0, 0.0, 0.0, 0.0, 0.0, 0.0, 0.0, 0.0, 0.0, 0.0, 0.0, 0.0, 0.0, 3.0, 9.0, 18.0, 27.0, 42.0, 49.0, 78.0, 99.0, 124.0, 149.0, 164.0, 187.0, 231.0, 290.0, 354.0, 416.0, 466.0, 509.0, 565.0, 591.0, 607.0, 616.0, 619.0, 623.0, 628.0, 638.0, 651.0, 676.0, 684.0, 713.0, 741.0, 761.0, 780.0, 792.0, 806.0, 815.0, 822.0, 827.0, 828.0, 829.0, 829.0, 829.0]	[-490.0, -490.0, -490.0, -490.0, -490.0, -490.0, -492.0, -492.0, -493.0, -493.0, -493.0, -493.0, -493.0, -493.0, -493.0, -493.0, -493.0, -493.0, -493.0, -493.0, -492.0, -489.0, -483.0, -472.0, -459.0, -443.0, -415.0, -404.0, -367.0, -339.0, -297.0, -223.0, -130.0, -56.0, 9.0, 59.0, 98.0, 133.0, 162.0, 187.0, 215.0, 227.0, 233.0, 239.0, 241.0, 245.0, 250.0, 257.0, 271.0, 299.0, 307.0, 336.0, 362.0, 380.0, 399.0, 415.0, 432.0, 445.0, 452.0, 455.0, 456.0, 457.0, 458.0, 458.0]	[0.00220453436486423, 0.00878885097336024, 0.019036696408875287, 0.036283578258007765, 0.05275768181309104, 0.06964787049219012, 0.08602230477845296, 0.10298178408993408, 0.11945964233018458, 0.13633617767482065, 0.15276829726644792, 0.16975474191713147, 0.1861291762033943, 0.20301117288181558, 0.21950404977542348, 0.23637341713765636, 0.2525512435240671, 0.2697090373840183, 0.28609234633040614, 0.30299891901086085, 0.3192187293898314, 0.33636901393765584, 0.35252192299230956, 0.3697360368387308, 0.3858257992833387, 0.40300441448925994, 0.41914913154323585, 0.4363656347268261, 0.4524939678085502, 0.4697418736468535, 0.48572548147058114, 0.5030266352696344, 0.5194894748565275, 0.5369032685994171, 0.553137414943194, 0.5708041365724057, 0.5858664861880243, 0.6030430533865001, 0.6190270025399514, 0.6363145030336455, 0.6530388038081583, 0.669704395259032, 0.685907821636647, 0.702976186235901, 0.7191543539520353, 0.7364582384179812, 0.7529681819723919, 0.7700147012365051, 0.7859481330960989, 0.802998748345999, 0.8213983122550417, 0.8363364166289102, 0.8541099755093455, 0.8696860315394588, 0.888463109935401, 0.9028537159028929, 0.9221062713768333, 0.9362244934600312, 0.9538311404467095, 0.9696864070137963, 0.9860884892696049, 1.0026909341104329, 1.0224763106380124, 1.0358569117961451]
41	inanimate/n66.jpg	animate	inanimate	right	0.96	[0.0, -1.0, -1.0, -1.0, -1.0, -1.0, -1.0, -1.0, -1.0, -1.0, -1.0, -1.0, -1.0, -1.0, -1.0, -1.0, -1.0, -1.0, -1.0, -1.0, -1.0, -1.0, -1.0, -1.0, -1.0, -1.0, -1.0, -1.0, -1.0, 2.0, 16.0, 53.0, 107.0, 241.0, 379.0, 526.0, 623.0, 674.0, 705.0, 723.0, 730.0, 731.0, 731.0, 724.0, 709.0, 644.0, 548.0, 414.0, 298.0, 248.0, 248.0, 322.0, 469.0, 669.0, 868.0, 959.0, 959.0, 959.0]	[-490.0, -491.0, -491.0, -491.0, -491.0, -491.0, -491.0, -491.0, -491.0, -491.0, -491.0, -491.0, -491.0, -491.0, -491.0, -491.0, -491.0, -491.0, -491.0, -491.0, -491.0, -491.0, -491.0, -491.0, -491.0, -491.0, -491.0, -491.0, -490.0, -488.0, -479.0, -449.0, -377.0, -185.0, -1.0, 168.0, 291.0, 377.0, 440.0, 495.0, 536.0, 540.0, 540.0, 540.0, 540.0, 540.0, 540.0, 530.0, 514.0, 507.0, 507.0, 513.0, 520.0, 522.0, 522.0, 522.0, 526.0, 530.0]	[0.0021485556790139526, 0.007919475407106802, 0.020332055719336495, 0.03636788751464337, 0.05384209722978994, 0.06961953980498947, 0.08631926460657269, 0.10275343217654154, 0.11946919962065294, 0.13618599105393514, 0.15251775868819095, 0.1692604914715048, 0.18878031079657376, 0.20255207974696532, 0.22048606522730552, 0.23586995070218109, 0.2540350187337026, 0.26940320286666974, 0.2874962495989166, 0.30269171914551407, 0.31951978520373814, 0.33603928607772104, 0.3542640874220524, 0.3691383624682203, 0.386519729567226, 0.40271701192250475, 0.41958398997667246, 0.43609086150536314, 0.4527748849650379, 0.46935275380383246, 0.4863033584842924, 0.5026682354218792, 0.5196993947029114, 0.5358229491102975, 0.5529872283223085, 0.5692541426687967, 0.5864423151942901, 0.6024522056686692, 0.6195379782584496, 0.6361568070715293, 0.6528971505176742, 0.6694494193652645, 0.6863324400619604, 0.7025147037638817, 0.7196346096752677, 0.7358564680325799, 0.7530367899162229, 0.769257965584984, 0.7863922074902803, 0.8025212232314516, 0.8196957424515858, 0.8358309021859895, 0.8530020080506802, 0.8691136158013251, 0.8863546949869487, 0.9024570867186412, 0.9197049925569445, 0.9358630216156598]
42	animate/a56.jpg	inanimate	animate	right	0.804	[0.0, 0.0, 0.0, 0.0, 0.0, 0.0, 0.0, 0.0, 0.0, 0.0, 0.0, 0.0, 0.0, 0.0, 0.0, 0.0, 0.0, 0.0, 0.0, 0.0, 0.0, 0.0, 0.0, 0.0, 0.0, 0.0, 0.0, 0.0, -1.0, -5.0, -10.0, -10.0, -17.0, -37.0, -55.0, -49.0, 11.0, 123.0, 289.0, 478.0, 680.0, 844.0, 959.0, 959.0, 959.0, 959.0, 959.0, 959.0]	[-490.0, -490.0, -490.0, -490.0, -490.0, -490.0, -490.0, -490.0, -490.0, -490.0, -490.0, -490.0, -490.0, -490.0, -490.0, -490.0, -490.0, -490.0, -490.0, -490.0, -490.0, -490.0, -490.0, -490.0, -490.0, -490.0, -490.0, -490.0, -490.0, -486.0, -443.0, -424.0, -373.0, -323.0, -245.0, -160.0, -71.0, 14.0, 110.0, 208.0, 295.0, 364.0, 413.0, 440.0, 454.0, 464.0, 465.0, 465.0]	[0.002520608832128346, 0.010223132907412946, 0.02014227447216399, 0.03680001528118737, 0.053929819841869175, 0.07013665954582393, 0.0873756907240022, 0.10348968781181611, 0.12059150304412469, 0.1368423747480847, 0.15408277124515735, 0.17022817098768428, 0.1873931328591425, 0.20354228725773282, 0.22075367043726146, 0.23685606219805777, 0.2540657387289684, 0.2701875864586327, 0.28738292699563317, 0.3035453933698591, 0.32054685667390004, 0.3369291416311171, 0.35391626894124784, 0.37049550309893675, 0.38736282248282805, 0.4036181314731948, 0.4207284800650086, 0.43859180956496857, 0.4539538497047033, 0.47297429863829166, 0.48725601931801066, 0.5061058016726747, 0.5205353196070064, 0.5395223179075401, 0.553903366526356, 0.5730231433990411, 0.5872611734666862, 0.6063611530116759, 0.6205660737468861, 0.6397141812776681, 0.6539208086614963, 0.6710700692201499, 0.6873830635158811, 0.7036114072252531, 0.7203288813179825, 0.7398483593424316, 0.7535170456685591, 0.773482646123739]
43	animate/a31.jpg	animate	inanimate	left	0.868	[0.0, 0.0, 0.0, 0.0, -1.0, -3.0, -3.0, -3.0, -3.0, -3.0, -3.0, -3.0, -3.0, -3.0, -3.0, -3.0, -3.0, -3.0, -3.0, -3.0, -3.0, -3.0, -3.0, -3.0, -3.0, 16.0, 66.0, 158.0, 278.0, 425.0, 559.0, 663.0, 756.0, 832.0, 905.0, 925.0, 928.0, 929.0, 928.0, 917.0, 884.0, 806.0, 682.0, 522.0, 337.0, 119.0, -107.0, -334.0, -660.0, -814.0, -909.0, -932.0]	[-490.0, -490.0, -490.0, -490.0, -490.0, -490.0, -490.0, -490.0, -490.0, -490.0, -490.0, -490.0, -490.0, -490.0, -490.0, -490.0, -490.0, -490.0, -490.0, -490.0, -490.0, -490.0, -490.0, -490.0, -490.0, -475.0, -426.0, -321.0, -181.0, -32.0, 114.0, 235.0, 345.0, 428.0, 518.0, 540.0, 540.0, 540.0, 540.0, 540.0, 540.0, 540.0, 525.0, 501.0, 490.0, 490.0, 490.0, 490.0, 490.0, 506.0, 522.0, 529.0]	[0.0002681513433344662, 0.006059209699742496, 0.015708698105299845, 0.032198503002291545, 0.04898560905712657, 0.06638404281693511, 0.08220585872186348, 0.0997302444302477, 0.11557117497432046, 0.13301568871247582, 0.14897745120106265, 0.16606356512056664, 0.18234071944607422, 0.19941659338655882, 0.21582516096532345, 0.23268838433432393, 0.24914849325432442, 0.2660222979320679, 0.2825332654756494, 0.2994555394980125, 0.31577774981269613, 0.33278774641803466, 0.34911678338539787, 0.36616466799750924, 0.38244557700818405, 0.3994040323304944, 0.4158330798964016, 0.4325635246641468, 0.44912023085635155, 0.4660698115185369, 0.48249066711287014, 0.4993129305075854, 0.5156713221222162, 0.5326703960890882, 0.5489437957585324, 0.566064042999642, 0.5822135387279559, 0.5994580312108155, 0.6156447322573513, 0.6327226542052813, 0.6488721499335952, 0.6660941144509707, 0.6822203995252494, 0.699422908044653, 0.7155563611013349, 0.7327394136518706, 0.7489244080206845, 0.7661112152272835, 0.7822180443035904, 0.7995011074817739, 0.8157045338302851, 0.8327421784342732]
