trialIndex	left_option	right_option	response	response_time	xTrajectory	yTrajectory	tTrajectory
0	images/0533.jpg	images/0359.jpg	left	1.066	[0.0, 0.0, 0.0, 0.0, 0.0, 0.0, 0.0, 0.0, 0.0, 0.0, 0.0, 0.0, 0.0, 0.0, -1.0, -1.0, -1.0, -1.0, -1.0, -1.0, -1.0, -1.0, -1.0, -1.0, -1.0, 12.0, 22.0, 42.0, 45.0, 39.0, 28.0, 26.0, -5.0, -83.0, -172.0, -250.0, -331.0, -408.0, -480.0, -551.0, -564.0, -600.0, -623.0, -643.0, -655.0, -658.0, -658.0, -656.0, -647.0, -640.0, -632.0, -627.0, -623.0, -623.0, -623.0, -621.0, -613.0, -610.0, -610.0, -610.0, -613.0, -613.0, -613.0]	[-490.0, -490.0, -490.0, -490.0, -490.0, -490.0, -490.0, -490.0, -490.0, -490.0, -490.0, -490.0, -490.0, -490.0, -481.0, -465.0, -450.0, -436.0, -422.0, -420.0, -420.0, -420.0, -420.0, -420.0, -419.0, -378.0, -340.0, -161.0, -96.0, 39.0, 56.0, 57.0, 49.0, 18.0, -5.0, -38.0, -78.0, -117.0, -145.0, -160.0, -160.0, -156.0, -141.0, -119.0, -100.0, -85.0, -73.0, -59.0, -45.0, -24.0, 4.0, 47.0, 95.0, 150.0, 239.0, 274.0, 297.0, 319.0, 340.0, 365.0, 378.0, 382.0, 382.0]	[0.008091439049167093, 0.01200823704857612, 0.017509162229544017, 0.033375010105373804, 0.04962519912078278, 0.0666642090654932, 0.08296184338541934, 0.09997252267203294, 0.11641658892040141, 0.1333214549376862, 0.14947641199978534, 0.1667045205103932, 0.18311240544426255, 0.20057603383611422, 0.2165234603380668, 0.23331739306740928, 0.24950716611056123, 0.26668407465331256, 0.28291549034474883, 0.29984459100523964, 0.3162261932884576, 0.33329114454681985, 0.34954235756595153, 0.3665796608402161, 0.38990841689519584, 0.3998340438120067, 0.41925385253853165, 0.43310412811115384, 0.4495809623404057, 0.4665322496657609, 0.48291999594221124, 0.4999296512323781, 0.5166088960249908, 0.5332342101755785, 0.552631832244515, 0.5666090837548836, 0.5834142804887961, 0.5999235413692077, 0.6188060916974791, 0.6332567723002285, 0.6517232375117601, 0.666678067187604, 0.6846028366780956, 0.700011980785348, 0.7177237583891838, 0.7332274517830228, 0.7509549307069392, 0.766644992007059, 0.7842379856665502, 0.7998300843464676, 0.8171083688357612, 0.8332018859291566, 0.8496282028499991, 0.8661828610420343, 0.8831549696842558, 0.899702459879336, 0.9164335873138043, 0.9330937174527207, 0.9494708823986002, 0.9662934871157631, 0.9839629394045915, 0.9997277526708785, 1.016858581228007]
1	images/0355.jpg	images/0204.jpg	right	0.978	[0.0, 0.0, 0.0, 0.0, 0.0, 0.0, 0.0, 0.0, 0.0, 0.0, 0.0, 0.0, 0.0, 0.0, 0.0, 0.0, 0.0, 0.0, 0.0, 0.0, 0.0, 0.0, 0.0, 1.0, 5.0, 6.0, 8.0, 8.0, 8.0, 8.0, 8.0, -2.0, -19.0, -27.0, -27.0, -13.0, 4.0, 19.0, 33.0, 50.0, 91.0, 111.0, 201.0, 293.0, 376.0, 452.0, 508.0, 558.0, 599.0, 628.0, 647.0, 653.0, 653.0, 653.0, 653.0, 653.0, 653.0, 653.0, 653.0]	[-490.0, -490.0, -490.0, -490.0, -490.0, -490.0, -490.0, -490.0, -490.0, -490.0, -490.0, -490.0, -490.0, -490.0, -490.0, -490.0, -490.0, -490.0, -490.0, -490.0, -490.0, -490.0, -490.0, -490.0, -490.0, -490.0, -490.0, -491.0, -491.0, -491.0, -491.0, -474.0, -419.0, -354.0, -294.0, -247.0, -220.0, -196.0, -174.0, -145.0, -64.0, -32.0, 54.0, 95.0, 131.0, 162.0, 187.0, 211.0, 230.0, 243.0, 252.0, 256.0, 256.0, 256.0, 256.0, 256.0, 256.0, 256.0, 256.0]	[0.0069834033492952585, 0.01048309222824173, 0.015250833785103168, 0.031176414966466837, 0.047445377305848524, 0.0645243232283974, 0.08069122694723774, 0.09779201819037553, 0.11416474580619251, 0.13112763845856534, 0.14758365136367502, 0.16446633072337136, 0.18080151169124292, 0.19781662831519498, 0.21430575053818757, 0.2311013899379759, 0.24760689615504816, 0.2645114208353334, 0.28089780177833745, 0.29779618245811434, 0.3140453474698006, 0.3311372640528134, 0.34775950620678486, 0.36433839905657806, 0.38071283333556494, 0.39777676059748046, 0.4140900962447631, 0.4310925835452508, 0.44757556176773505, 0.4644425398000749, 0.480711160802457, 0.4980857012415072, 0.5143266742597916, 0.5313226762227714, 0.5474868492819951, 0.5645111818957957, 0.5806794509553583, 0.5977734155312646, 0.6143543563812273, 0.6311790090985596, 0.647395064792363, 0.6644224694100558, 0.68063135711418, 0.6976713910553372, 0.7142042039195076, 0.7313879391222144, 0.7474521015683422, 0.764290066275862, 0.780640265904367, 0.79768200651597, 0.8218661434657406, 0.8308384268748341, 0.8480453727315762, 0.8643204790641903, 0.8807829772995319, 0.8978035552499932, 0.9141902775299968, 0.9310599862219533, 0.9475590071087936]
2	images/0261.jpg	images/0424.jpg	left	0.913	[0.0, 0.0, 0.0, 0.0, 0.0, 0.0, 0.0, 0.0, 0.0, 0.0, 0.0, 0.0, 0.0, 0.0, 0.0, 0.0, 0.0, 0.0, 0.0, 0.0, 0.0, 0.0, 0.0, 0.0, 0.0, -22.0, -36.0, -123.0, -213.0, -306.0, -393.0, -468.0, -521.0, -556.0, -578.0, -596.0, -609.0, -622.0, -633.0, -639.0, -646.0, -648.0, -650.0, -650.0, -650.0, -650.0, -650.0, -650.0, -650.0, -650.0, -650.0, -651.0, -651.0, -651.0, -651.0]	[-490.0, -490.0, -490.0, -490.0, -490.0, -490.0, -490.0, -490.0, -490.0, -490.0, -490.0, -490.0, -490.0, -490.0, -490.0, -490.0, -490.0, -490.0, -490.0, -490.0, -490.0, -490.0, -490.0, -490.0, -490.0, -490.0, -488.0, -460.0, -410.0, -337.0, -259.0, -193.0, -138.0, -94.0, -47.0, -4.0, 37.0, 81.0, 119.0, 142.0, 167.0, 183.0, 197.0, 217.0, 240.0, 267.0, 288.0, 299.0, 311.0, 320.0, 325.0, 330.0, 331.0, 331.0, 331.0]	[0.016391944664064795, 0.02094328100065468, 0.03285239489923697, 0.049170850550581235, 0.0658074286984629, 0.0831266731620417, 0.09919800359784858, 0.11625646953325486, 0.13250802387483418, 0.14962588177877478, 0.16619419329799712, 0.18296969404036645, 0.19915844308707165, 0.21624046100623673, 0.23240702339535346, 0.24944910533668008, 0.27335232510085916, 0.28263078434974886, 0.29917520254821284, 0.3162548311302089, 0.3324756654983503, 0.34957679807121167, 0.3657884164422285, 0.3827827117347624, 0.3992933379486203, 0.4162456492704223, 0.43263885688065784, 0.44954611222055973, 0.4660792664217297, 0.48281619651970686, 0.5022469279065263, 0.5163129260399728, 0.5350951244181488, 0.5496362583071459, 0.5683157154126093, 0.5828848386154277, 0.6013946531384136, 0.6162156802165555, 0.6340172284399159, 0.649549935151299, 0.6674265766632743, 0.6828387927744188, 0.7001887572259875, 0.7161890903662425, 0.7331318443611963, 0.7496591958988574, 0.7660353368482902, 0.7826002350338968, 0.7991327065683436, 0.8159382446319796, 0.8325068974809255, 0.8492216409213142, 0.8674013862764696, 0.8827101784409024, 0.9000679935561493]
3	images/0151.jpg	images/0165.jpg	right	0.892	[0.0, 0.0, 0.0, 0.0, 0.0, -2.0, -2.0, -2.0, -2.0, -2.0, -2.0, -2.0, -2.0, -2.0, -2.0, -2.0, -2.0, -2.0, -2.0, -2.0, -2.0, -3.0, -13.0, -27.0, -52.0, -70.0, -79.0, -79.0, -45.0, 5.0, 83.0, 175.0, 267.0, 344.0, 451.0, 516.0, 564.0, 590.0, 607.0, 618.0, 622.0, 624.0, 624.0, 624.0, 624.0, 624.0, 624.0, 625.0, 625.0, 625.0, 625.0, 625.0, 625.0, 625.0]	[-490.0, -490.0, -490.0, -490.0, -490.0, -490.0, -490.0, -490.0, -490.0, -490.0, -490.0, -490.0, -490.0, -490.0, -490.0, -490.0, -490.0, -490.0, -490.0, -490.0, -490.0, -490.0, -485.0, -449.0, -390.0, -318.0, -242.0, -166.0, -90.0, -33.0, 18.0, 59.0, 98.0, 126.0, 163.0, 191.0, 220.0, 234.0, 248.0, 258.0, 264.0, 266.0, 266.0, 266.0, 266.0, 268.0, 268.0, 269.0, 271.0, 271.0, 271.0, 271.0, 271.0, 271.0]	[0.014248713763663545, 0.02081630507018417, 0.028558765108755324, 0.045066660655720625, 0.062028870634094346, 0.07840569425025024, 0.09538292288925732, 0.11177032783598406, 0.12868031384277856, 0.14502641747822054, 0.1619821421263623, 0.17840060838352656, 0.1953140077239368, 0.21168571134330705, 0.2286905879736878, 0.24757450363540556, 0.2619490669458173, 0.2806681186921196, 0.29530858052748954, 0.3136589924688451, 0.3287076887645526, 0.34669014355313266, 0.36190916509804083, 0.3799216572078876, 0.39538200129027246, 0.4129596349594067, 0.42909240536391735, 0.44650449245091295, 0.4618696045872639, 0.47903456646599807, 0.49522809417248936, 0.5117161923990352, 0.528324439896096, 0.546863950403349, 0.5615863321945653, 0.580719421064714, 0.5951813656647573, 0.6136823055203422, 0.6282504047339899, 0.6452317293660599, 0.661946131476725, 0.6798869436242967, 0.6952476184305851, 0.7132816145312972, 0.7282238148764009, 0.7463991229087696, 0.7618273816697183, 0.7798798097646795, 0.7949810713616898, 0.8128935528584407, 0.8282497903346666, 0.8460690878710011, 0.8618721304519568, 0.8794668307746178]
4	images/0014.jpg	images/0365.jpg	left	0.679	[0.0, 0.0, 0.0, 0.0, 0.0, 0.0, 0.0, 0.0, 0.0, 0.0, 0.0, 0.0, 0.0, 0.0, 0.0, 0.0, 0.0, 0.0, 0.0, 0.0, 0.0, -9.0, -19.0, -90.0, -164.0, -260.0, -371.0, -483.0, -573.0, -644.0, -704.0, -742.0, -781.0, -806.0, -813.0, -815.0, -817.0, -817.0, -817.0, -817.0, -817.0]	[-490.0, -490.0, -490.0, -490.0, -490.0, -490.0, -490.0, -490.0, -490.0, -490.0, -490.0, -490.0, -490.0, -490.0, -490.0, -490.0, -490.0, -490.0, -490.0, -490.0, -490.0, -460.0, -442.0, -331.0, -231.0, -115.0, -8.0, 80.0, 144.0, 195.0, 247.0, 280.0, 320.0, 350.0, 362.0, 370.0, 377.0, 377.0, 377.0, 377.0, 377.0]	[0.009616447336156853, 0.013508669348084368, 0.01932259703607997, 0.036138033763563726, 0.052448980073677376, 0.06962657128315186, 0.0861238854995463, 0.10312159413297195, 0.11936871114448877, 0.136232958509936, 0.15246471553109586, 0.16952147480333224, 0.18602459168323549, 0.2028478790743975, 0.21932607863709563, 0.23614458735391963, 0.2524876189927454, 0.2695699782416341, 0.28602872181363637, 0.30278271857241634, 0.31912540887424257, 0.3361108295066515, 0.35275047965114936, 0.36955806571495486, 0.3861076039102045, 0.40295649128529476, 0.41944424817484105, 0.4361931249295594, 0.45248154325963696, 0.4695041692102677, 0.48576971821603365, 0.5028800667860196, 0.5190374131852877, 0.53610236444365, 0.5523887347735581, 0.5695106886705616, 0.5856704243997228, 0.6029463195518474, 0.6190050206641899, 0.636136190558318, 0.6524474782127072]
5	images/0434.jpg	images/0422.jpg	right	0.87	[0.0, 0.0, 0.0, 0.0, 0.0, 0.0, 0.0, 0.0, 0.0, 0.0, 0.0, 0.0, 0.0, 0.0, 0.0, 0.0, 0.0, 0.0, 0.0, 0.0, -1.0, 3.0, 15.0, 27.0, 32.0, 32.0, 7.0, -45.0, -134.0, -314.0, -375.0, -537.0, -599.0, -641.0, -663.0, -668.0, -660.0, -617.0, -520.0, -392.0, -250.0, -77.0, 87.0, 309.0, 428.0, 516.0, 579.0, 628.0, 655.0, 668.0, 669.0, 669.0]	[-490.0, -490.0, -490.0, -490.0, -490.0, -490.0, -490.0, -490.0, -490.0, -490.0, -490.0, -490.0, -490.0, -490.0, -490.0, -490.0, -490.0, -490.0, -490.0, -490.0, -489.0, -457.0, -411.0, -348.0, -294.0, -250.0, -214.0, -168.0, -107.0, -1.0, 35.0, 117.0, 145.0, 167.0, 186.0, 201.0, 221.0, 239.0, 264.0, 285.0, 299.0, 299.0, 299.0, 299.0, 299.0, 305.0, 315.0, 321.0, 325.0, 327.0, 327.0, 327.0]	[0.0038315329657052644, 0.008631359844002873, 0.02549936187278945, 0.04095697528828168, 0.058157435814791825, 0.07433287287130952, 0.09143707744806306, 0.1075237678742269, 0.1239152688140166, 0.14068189489626093, 0.1589794001993141, 0.17388337122974917, 0.19250036437006202, 0.20744119938171934, 0.22603839519433677, 0.24082699562131893, 0.2576240003545536, 0.27385234404937364, 0.2925652518024435, 0.30744771884928923, 0.3260230693340418, 0.3408659417400486, 0.3589562578126788, 0.37387354084057733, 0.3921846994635416, 0.40725728908000747, 0.4255718610365875, 0.4408059012348531, 0.45887266531644855, 0.4741490308297216, 0.49219224292755825, 0.5074430084496271, 0.5252558206630056, 0.5407851140480489, 0.5579104812786682, 0.5738415237865411, 0.5910706563008716, 0.6071542747304193, 0.6243055832819664, 0.6407015215590945, 0.657588979578577, 0.6737848966149613, 0.6909659011507756, 0.7072567088107462, 0.7243718360477942, 0.7404909531323938, 0.7575995950392098, 0.7738583173777442, 0.7910925698888605, 0.8072096389732906, 0.8242670809049741, 0.8405469659046503]
6	images/0586.jpg	images/0168.jpg	right	0.782	[0.0, 0.0, 0.0, 0.0, 0.0, 0.0, 0.0, 0.0, 0.0, 0.0, 0.0, 0.0, 0.0, 0.0, 0.0, 0.0, 0.0, 0.0, 0.0, 0.0, 0.0, 0.0, 0.0, 2.0, 9.0, 14.0, 15.0, 15.0, 14.0, 14.0, 14.0, 21.0, 43.0, 81.0, 144.0, 224.0, 324.0, 428.0, 527.0, 603.0, 657.0, 683.0, 695.0, 696.0, 696.0, 696.0, 696.0]	[-490.0, -490.0, -490.0, -490.0, -490.0, -490.0, -490.0, -490.0, -490.0, -490.0, -490.0, -490.0, -490.0, -490.0, -490.0, -490.0, -490.0, -490.0, -490.0, -490.0, -490.0, -490.0, -490.0, -480.0, -457.0, -427.0, -372.0, -304.0, -233.0, -132.0, -102.0, -13.0, 46.0, 103.0, 160.0, 210.0, 251.0, 287.0, 313.0, 336.0, 359.0, 371.0, 379.0, 381.0, 381.0, 381.0, 381.0]	[0.003951340899220668, 0.008151445421390235, 0.024521442370314617, 0.04150515633955365, 0.05763553741417127, 0.07485101660131477, 0.09101553099026205, 0.10802450361370575, 0.12440269256330794, 0.14148197982285637, 0.1576560515386518, 0.17479848543007392, 0.19112001307075843, 0.20799552443349967, 0.22441774535400327, 0.24147928328602575, 0.2577506349553005, 0.274756535582128, 0.2910425645750365, 0.30803447054495336, 0.32697334084514296, 0.3414308481151238, 0.35946586821228266, 0.37471390307473484, 0.392710011190502, 0.4079850113703287, 0.42577085826633265, 0.4413953835974098, 0.4592450597920106, 0.47468560655397596, 0.4924335654650349, 0.5079618348463555, 0.5254845138770179, 0.5414688043601927, 0.5584156543482095, 0.5746754006904666, 0.5912177708887612, 0.6077225944391103, 0.6242895406248863, 0.6410148653958458, 0.6578231341190985, 0.6744385496131144, 0.691067959764041, 0.707792943205277, 0.7242346201164764, 0.7409705262180069, 0.758104085442028]
7	images/0193.jpg	images/0554.jpg	right	0.84	[0.0, 0.0, 0.0, 0.0, 0.0, 0.0, 0.0, 0.0, 0.0, 0.0, 0.0, 0.0, 0.0, 0.0, 0.0, 0.0, 0.0, 6.0, 27.0, 53.0, 80.0, 101.0, 115.0, 119.0, 123.0, 123.0, 123.0, 123.0, 110.0, 65.0, 9.0, -48.0, -78.0, -87.0, -85.0, -59.0, -20.0, 47.0, 135.0, 242.0, 402.0, 504.0, 595.0, 656.0, 707.0, 735.0, 745.0, 745.0, 745.0, 745.0, 745.0]	[-490.0, -490.0, -490.0, -490.0, -490.0, -490.0, -490.0, -490.0, -490.0, -490.0, -490.0, -490.0, -490.0, -490.0, -490.0, -490.0, -490.0, -490.0, -490.0, -493.0, -498.0, -500.0, -503.0, -505.0, -507.0, -507.0, -507.0, -507.0, -501.0, -461.0, -397.0, -323.0, -243.0, -162.0, -106.0, -42.0, 22.0, 74.0, 125.0, 169.0, 215.0, 241.0, 260.0, 273.0, 287.0, 295.0, 298.0, 298.0, 298.0, 298.0, 298.0]	[0.00523748424166115, 0.009344404810690321, 0.012734867072140332, 0.02834130174596794, 0.043660675240971614, 0.061727097985567525, 0.07727584736130666, 0.0940742174279876, 0.11056129165081074, 0.12684629664727254, 0.14354533876030473, 0.16048365542519605, 0.17682395638985327, 0.19568602673098212, 0.21015991798776668, 0.22868850583472522, 0.24389967671595514, 0.26168859560857527, 0.27717419834516477, 0.2939172724436503, 0.310168485455506, 0.32835847080423264, 0.3435720310153556, 0.3615841817954788, 0.3771503391544684, 0.3939784052054165, 0.41016613025567494, 0.42739799342962215, 0.4435587531552301, 0.4615828505920945, 0.47705377600505017, 0.4940705992921721, 0.5101252044114517, 0.5275710834757774, 0.5434400033482234, 0.560589263906877, 0.5770585888021742, 0.5939648201456293, 0.6101187532112817, 0.6273205790712382, 0.6436410827154759, 0.6607603059528628, 0.6770941215872881, 0.694012640924484, 0.7104464671792812, 0.7274854771167156, 0.7437889141074265, 0.7606251721517765, 0.7769306571353809, 0.7940864030169905, 0.8104785866307793]
8	images/0318.jpg	images/0548.jpg	left	0.653	[0.0, 0.0, 0.0, 0.0, 0.0, 0.0, 0.0, 0.0, 0.0, 0.0, 0.0, 0.0, 0.0, 1.0, 1.0, 11.0, 16.0, 34.0, 37.0, 26.0, -18.0, -80.0, -130.0, -190.0, -276.0, -369.0, -473.0, -560.0, -618.0, -644.0, -649.0, -649.0, -648.0, -646.0, -643.0, -643.0, -642.0, -642.0, -642.0]	[-490.0, -490.0, -490.0, -490.0, -490.0, -490.0, -490.0, -490.0, -490.0, -490.0, -490.0, -490.0, -490.0, -487.0, -479.0, -454.0, -440.0, -385.0, -316.0, -239.0, -162.0, -107.0, -90.0, -72.0, -35.0, 14.0, 76.0, 137.0, 179.0, 205.0, 220.0, 234.0, 245.0, 254.0, 263.0, 276.0, 282.0, 282.0, 282.0]	[0.0031451119866687804, 0.008211178726924118, 0.02260827001737198, 0.03963942929840414, 0.05583261567517184, 0.07289893227425637, 0.08908529198379256, 0.10619973655411741, 0.12243797890550923, 0.13955720214289613, 0.16170528680231655, 0.17271567049465375, 0.1891085367751657, 0.2061465227161534, 0.22248170368402498, 0.23946439365681726, 0.2559122145685251, 0.2728382432323997, 0.28912120022869203, 0.30616840217408026, 0.32470108601410175, 0.3395497610763414, 0.3580029142976855, 0.3729399946532794, 0.39108765469427453, 0.4063821108575212, 0.42331837952224305, 0.4395180512292427, 0.4572393861526507, 0.47280144751857733, 0.4907060783516499, 0.5062333237365237, 0.5239314480058965, 0.5394566453906009, 0.5569530417706119, 0.5727714443346485, 0.5899981875190861, 0.6061835232321755, 0.6229235253267689]
9	images/0322.jpg	images/0390.jpg	left	0.666	[0.0, 0.0, 0.0, 0.0, 0.0, 0.0, 0.0, 0.0, 0.0, 0.0, 0.0, 0.0, 0.0, 0.0, 0.0, 0.0, 0.0, 0.0, 0.0, 0.0, 0.0, 0.0, 0.0, -4.0, -17.0, -104.0, -207.0, -308.0, -383.0, -436.0, -474.0, -508.0, -549.0, -566.0, -568.0, -568.0, -568.0, -567.0, -567.0, -567.0, -567.0]	[-490.0, -490.0, -490.0, -490.0, -490.0, -490.0, -490.0, -490.0, -490.0, -490.0, -490.0, -490.0, -490.0, -490.0, -490.0, -490.0, -490.0, -490.0, -490.0, -490.0, -490.0, -490.0, -490.0, -462.0, -436.0, -286.0, -148.0, -10.0, 86.0, 146.0, 196.0, 243.0, 298.0, 327.0, 333.0, 337.0, 340.0, 343.0, 343.0, 343.0, 343.0]	[0.008652181160869077, 0.01541501502651954, 0.019364239677088335, 0.0340716028076713, 0.0505730130316806, 0.06722699917008867, 0.08511046734201955, 0.10054248078085948, 0.1177026639925316, 0.13409348226559814, 0.15150215601897798, 0.16717719865846448, 0.18479169630882097, 0.20045479229156626, 0.21822425519349054, 0.23410443906323053, 0.2514984354857006, 0.267213072773302, 0.2848593144080951, 0.3004927144065732, 0.3176385616243351, 0.334120174520649, 0.35100217120634625, 0.36746023211890133, 0.3844057167734718, 0.4005378045112593, 0.417707203720056, 0.43414273663802305, 0.45135821582516655, 0.4674759675763198, 0.48418695635336917, 0.500447726692073, 0.517504827294033, 0.5337464829790406, 0.5508930128635257, 0.5670974632375874, 0.5842719824431697, 0.600445371492242, 0.6175430907387636, 0.6338878290407592, 0.6510480122524314]
10	images/0571.jpg	images/0052.jpg	right	0.696	[0.0, 0.0, 0.0, 0.0, 0.0, 0.0, 0.0, 0.0, 0.0, 0.0, 0.0, 0.0, 0.0, 0.0, 0.0, 0.0, -1.0, -1.0, 2.0, 21.0, 56.0, 125.0, 143.0, 181.0, 213.0, 252.0, 264.0, 315.0, 343.0, 375.0, 419.0, 471.0, 520.0, 576.0, 621.0, 661.0, 698.0, 744.0, 755.0, 764.0, 764.0, 764.0]	[-490.0, -490.0, -490.0, -490.0, -490.0, -490.0, -490.0, -490.0, -490.0, -490.0, -490.0, -490.0, -490.0, -490.0, -490.0, -490.0, -490.0, -478.0, -458.0, -423.0, -362.0, -202.0, -163.0, -93.0, -40.0, 29.0, 50.0, 115.0, 140.0, 158.0, 183.0, 208.0, 228.0, 253.0, 278.0, 300.0, 323.0, 349.0, 355.0, 359.0, 359.0, 359.0]	[0.006685760847176425, 0.012291133978578728, 0.029521973156079184, 0.046462337813863996, 0.06260091088188346, 0.07965971814701334, 0.09595666980749229, 0.11291956245258916, 0.12910387416923186, 0.14637328399112448, 0.16255520637059817, 0.17947270171134733, 0.19583894399693236, 0.2129431485736859, 0.2291216576268198, 0.24624634219071595, 0.262597224485944, 0.27960722110583447, 0.295904514096037, 0.3127435028072796, 0.33550530448701466, 0.34610847773001296, 0.3629071891264175, 0.37941269534348976, 0.3960735081418534, 0.412917275520158, 0.4295589736648253, 0.4461935038198135, 0.46261299408070045, 0.47957247339218156, 0.49583972906839335, 0.5128087657067226, 0.5291494080083794, 0.5461873939566431, 0.5626410175318597, 0.5795127742239856, 0.5986103644463583, 0.6127814931896864, 0.6312360117444769, 0.6461679720960092, 0.6645897226626403, 0.679572882996581]
11	images/0101.jpg	images/0029.jpg	right	0.911	[0.0, 0.0, 0.0, 0.0, 0.0, 0.0, -3.0, -4.0, -5.0, -5.0, -5.0, -5.0, -7.0, -7.0, -7.0, -7.0, -7.0, -8.0, -8.0, -8.0, -15.0, -29.0, -90.0, -118.0, -168.0, -189.0, -281.0, -360.0, -452.0, -547.0, -630.0, -663.0, -682.0, -692.0, -698.0, -702.0, -702.0, -676.0, -596.0, -431.0, -295.0, -136.0, 37.0, 188.0, 326.0, 451.0, 556.0, 651.0, 730.0, 778.0, 800.0, 806.0, 806.0, 806.0, 806.0]	[-490.0, -490.0, -490.0, -490.0, -490.0, -490.0, -490.0, -490.0, -491.0, -491.0, -491.0, -491.0, -491.0, -491.0, -491.0, -491.0, -491.0, -491.0, -472.0, -432.0, -370.0, -298.0, -157.0, -112.0, -38.0, -19.0, 45.0, 101.0, 159.0, 228.0, 276.0, 292.0, 307.0, 321.0, 336.0, 353.0, 366.0, 382.0, 398.0, 412.0, 416.0, 420.0, 420.0, 420.0, 420.0, 420.0, 420.0, 420.0, 409.0, 404.0, 400.0, 399.0, 399.0, 399.0, 399.0]	[0.002277443098137155, 0.007375253822829109, 0.023512461564678233, 0.03805803278373787, 0.05502399742545094, 0.07132367974554654, 0.0888497721098247, 0.10460127337864833, 0.12257246417721035, 0.13797956028429326, 0.155791348501225, 0.17130084455857286, 0.18760940154606942, 0.2044934462319361, 0.22123754432686837, 0.2377730878579314, 0.2542192021064693, 0.2710226921699359, 0.2892406668397598, 0.30431735245656455, 0.3216915515586152, 0.3375492074410431, 0.35464317202422535, 0.3713486994674895, 0.38815969886491075, 0.4043682452320354, 0.42160215640615206, 0.43795713470171904, 0.4548268433936755, 0.4710012564464705, 0.4882266342974617, 0.5045259752805578, 0.5215489425681881, 0.537558150368568, 0.5547115069202846, 0.5711593278319924, 0.5879966098800651, 0.6042181269076536, 0.6213841127828346, 0.6377838057233021, 0.6548115516707185, 0.6712795112398453, 0.6879328147115302, 0.7044574355822988, 0.7214162322343327, 0.7375387626452721, 0.7547057725241757, 0.7710860094666714, 0.7880113554710988, 0.8042216085013933, 0.8212401384589612, 0.8378279059616034, 0.8548488252490642, 0.8710836542741163, 0.888025725595071]
12	images/0134.jpg	images/0219.jpg	right	0.81	[0.0, 0.0, 0.0, 0.0, 0.0, 0.0, 0.0, 0.0, 0.0, 0.0, 0.0, 0.0, 0.0, 0.0, -4.0, -14.0, -30.0, -38.0, -41.0, -41.0, -41.0, -41.0, -41.0, -41.0, -42.0, -39.0, -7.0, 43.0, 123.0, 198.0, 270.0, 307.0, 323.0, 327.0, 331.0, 335.0, 341.0, 354.0, 376.0, 415.0, 474.0, 543.0, 611.0, 680.0, 737.0, 791.0, 841.0, 853.0, 853.0]	[-490.0, -490.0, -490.0, -490.0, -490.0, -490.0, -490.0, -490.0, -490.0, -490.0, -490.0, -490.0, -490.0, -490.0, -490.0, -493.0, -499.0, -504.0, -505.0, -505.0, -505.0, -505.0, -505.0, -505.0, -494.0, -475.0, -419.0, -334.0, -222.0, -117.0, -14.0, 63.0, 112.0, 134.0, 143.0, 152.0, 167.0, 185.0, 203.0, 224.0, 246.0, 262.0, 270.0, 282.0, 292.0, 306.0, 320.0, 324.0, 324.0]	[0.005293121554132085, 0.00971099662274355, 0.014826215337961912, 0.028958432099898346, 0.044327640236588195, 0.061166970277554356, 0.0776683804942877, 0.09512688888935372, 0.11070635824580677, 0.12895402890717378, 0.14432972236681962, 0.16206061462435173, 0.17776193991448963, 0.19528530161187518, 0.21069308038568124, 0.22818060209829127, 0.2440020766662201, 0.26148755037866067, 0.2774226888868725, 0.2944791068221093, 0.3106763891992159, 0.32788026305206586, 0.3442198813572759, 0.3610349767477601, 0.3774527603382012, 0.3943781063426286, 0.41078769793966785, 0.4279676784790354, 0.4440123849271913, 0.46107870152627584, 0.4775435890915105, 0.49428120185621083, 0.5106925001236959, 0.5276615367693012, 0.5440267550584394, 0.561119695637899, 0.5774869619199308, 0.5943867079404299, 0.6106628382694907, 0.6277161842081114, 0.6439015199212008, 0.6610794524603989, 0.6772460148495156, 0.6943102834411548, 0.7105911924372776, 0.7276168903918006, 0.7510374650664744, 0.7607326920988271, 0.7838139816158218]
13	images/0094.jpg	images/0309.jpg	right	0.836	[0.0, 0.0, 0.0, 0.0, 0.0, 0.0, 0.0, 0.0, 0.0, 0.0, 0.0, 0.0, 0.0, 0.0, 0.0, 0.0, 0.0, 0.0, 0.0, 0.0, 0.0, 0.0, 0.0, -1.0, -23.0, -45.0, -94.0, -152.0, -223.0, -293.0, -344.0, -391.0, -415.0, -419.0, -419.0, -405.0, -365.0, -221.0, -94.0, 44.0, 171.0, 293.0, 404.0, 496.0, 561.0, 601.0, 618.0, 627.0, 627.0, 628.0, 628.0]	[-490.0, -490.0, -490.0, -490.0, -490.0, -490.0, -490.0, -490.0, -490.0, -490.0, -490.0, -490.0, -490.0, -490.0, -490.0, -490.0, -490.0, -490.0, -490.0, -490.0, -490.0, -490.0, -490.0, -488.0, -452.0, -412.0, -334.0, -252.0, -171.0, -111.0, -59.0, -7.0, 45.0, 93.0, 131.0, 176.0, 217.0, 276.0, 316.0, 352.0, 389.0, 409.0, 423.0, 438.0, 447.0, 453.0, 455.0, 455.0, 455.0, 455.0, 455.0]	[0.006116758464486338, 0.01107223326107487, 0.014854204659059178, 0.029503199824830517, 0.045579650257423054, 0.06209027647128096, 0.078668486654351, 0.09556618466740474, 0.1122785387779004, 0.1288198849724722, 0.14552780175290536, 0.16203876929648686, 0.1787320087532862, 0.19648372232768452, 0.21201096771255834, 0.22934181750315474, 0.24553500387992244, 0.2624480618906091, 0.27883478416333674, 0.29563690889335703, 0.31200417518266477, 0.32901587847300107, 0.3454036247494514, 0.36243205336359097, 0.3787368556804722, 0.39577859629207524, 0.4119478893480846, 0.42909749122918583, 0.44533846424747026, 0.462332076880557, 0.47876010047184536, 0.4957656597616733, 0.5119202754940488, 0.529018336070294, 0.545493463636376, 0.5624150549701881, 0.5785672813726705, 0.5956690966122551, 0.6121476375119528, 0.6290122262071236, 0.6451180312942597, 0.6622618305191281, 0.6785362541850191, 0.6955158721611951, 0.7118288664714782, 0.7289371670485707, 0.7451163587611518, 0.7622826859733323, 0.7785857816270436, 0.7955831489234697, 0.8119142338982783]
14	images/0475.jpg	images/0528.jpg	right	0.682	[0.0, 0.0, 0.0, 0.0, 0.0, 0.0, 0.0, 0.0, 0.0, 0.0, 0.0, 0.0, 0.0, 0.0, 0.0, -4.0, -14.0, -33.0, -58.0, -86.0, -127.0, -177.0, -268.0, -373.0, -451.0, -479.0, -479.0, -431.0, -345.0, -203.0, -22.0, 170.0, 339.0, 498.0, 622.0, 715.0, 766.0, 777.0, 777.0, 777.0, 777.0]	[-490.0, -490.0, -490.0, -490.0, -490.0, -490.0, -490.0, -490.0, -490.0, -490.0, -490.0, -490.0, -490.0, -490.0, -490.0, -488.0, -486.0, -481.0, -481.0, -481.0, -494.0, -497.0, -475.0, -430.0, -397.0, -355.0, -322.0, -158.0, -13.0, 131.0, 227.0, 283.0, 323.0, 344.0, 360.0, 375.0, 380.0, 382.0, 382.0, 382.0, 382.0]	[0.0027382428670534864, 0.00781352560443338, 0.021329636016162112, 0.03827614467445528, 0.0545171176927397, 0.07164965292031411, 0.08785615128726931, 0.10506548647390446, 0.12112691825313959, 0.13819152818177827, 0.15463695976359304, 0.1715766417546547, 0.18794561470713234, 0.20491669935290702, 0.22141640290647047, 0.23821716230304446, 0.2551360229772399, 0.27150670259288745, 0.2907165914220968, 0.304959400134976, 0.3239170437591383, 0.3382192444332759, 0.3550998757928028, 0.37156749402493006, 0.38994248195376713, 0.4050154128999566, 0.4233504648509552, 0.4382472678917111, 0.45592491217394127, 0.47155558149825083, 0.4891427724942332, 0.5048389777948614, 0.5219295290444279, 0.5381766460559447, 0.5550023227769998, 0.5715774609561777, 0.5878324286313727, 0.6046331880352227, 0.6212731795094442, 0.6382620134827448, 0.6545623784695636]
15	images/0367.jpg	images/0036.jpg	right	0.969	[0.0, 0.0, 0.0, 0.0, 0.0, 0.0, 0.0, 0.0, 0.0, 0.0, 0.0, 0.0, 3.0, 3.0, 4.0, 8.0, 12.0, 14.0, 20.0, 21.0, 18.0, -2.0, -44.0, -75.0, -170.0, -231.0, -281.0, -310.0, -311.0, -300.0, -286.0, -263.0, -248.0, -242.0, -242.0, -263.0, -279.0, -342.0, -406.0, -485.0, -572.0, -646.0, -680.0, -693.0, -693.0, -675.0, -610.0, -422.0, -239.0, -37.0, 166.0, 345.0, 496.0, 604.0, 670.0, 690.0, 691.0, 691.0, 691.0]	[-490.0, -490.0, -490.0, -490.0, -490.0, -490.0, -490.0, -490.0, -490.0, -490.0, -490.0, -490.0, -486.0, -480.0, -473.0, -462.0, -448.0, -428.0, -406.0, -382.0, -350.0, -302.0, -237.0, -186.0, -77.0, -4.0, 71.0, 131.0, 163.0, 187.0, 210.0, 234.0, 248.0, 254.0, 255.0, 255.0, 255.0, 255.0, 260.0, 269.0, 283.0, 285.0, 286.0, 291.0, 296.0, 309.0, 337.0, 381.0, 403.0, 425.0, 434.0, 441.0, 443.0, 443.0, 443.0, 443.0, 443.0, 443.0, 443.0]	[0.007889984226494562, 0.012834195033065043, 0.017199846130097285, 0.03218846779054729, 0.049080704477091786, 0.06577087192999898, 0.08256548732606461, 0.09887131364666857, 0.11560039308096748, 0.1327455576392822, 0.14900223197764717, 0.1660873219007044, 0.18232180958875688, 0.19931985955190612, 0.2159093337249942, 0.2328189784020651, 0.24912207405577647, 0.2661249026787118, 0.2821726811307599, 0.29929463502776343, 0.3158028719117283, 0.33268862326804083, 0.34923884412273765, 0.3658573316206457, 0.38226146188389976, 0.3992407385230763, 0.4155591941671446, 0.4325343748132582, 0.4488309851367376, 0.4658358617598424, 0.482131448086875, 0.49918377002177294, 0.5154827696751454, 0.5326463662204333, 0.5554883811928448, 0.5657352026100853, 0.585827437658736, 0.5993104387525818, 0.6156606383810868, 0.6326235310334596, 0.6492396291941986, 0.665874842008634, 0.6821301510208286, 0.6993179822165985, 0.7156299525304348, 0.732657015818404, 0.7515252301527653, 0.7658834094690974, 0.7843956133219763, 0.7992203950707335, 0.8170676819281653, 0.8326485166180646, 0.8503548328881152, 0.8658766169392038, 0.8830562561415718, 0.8992217945342418, 0.9163062017905759, 0.9325468334718607, 0.9488929371000268]
16	images/0451.jpg	images/0021.jpg	left	0.748	[0.0, 0.0, 0.0, 0.0, 0.0, 0.0, 0.0, 0.0, 0.0, 0.0, 0.0, 1.0, 1.0, 1.0, 1.0, 5.0, 35.0, 62.0, 94.0, 132.0, 153.0, 164.0, 170.0, 199.0, 226.0, 239.0, 239.0, 193.0, 43.0, -75.0, -204.0, -322.0, -421.0, -507.0, -583.0, -624.0, -658.0, -682.0, -696.0, -703.0, -709.0, -714.0, -720.0, -722.0, -722.0]	[-490.0, -491.0, -491.0, -491.0, -491.0, -491.0, -491.0, -491.0, -491.0, -491.0, -490.0, -489.0, -487.0, -487.0, -487.0, -487.0, -482.0, -480.0, -470.0, -458.0, -450.0, -445.0, -441.0, -417.0, -396.0, -378.0, -342.0, -250.0, -64.0, 61.0, 177.0, 249.0, 288.0, 307.0, 317.0, 324.0, 329.0, 336.0, 341.0, 342.0, 342.0, 341.0, 340.0, 340.0, 340.0]	[0.004651415212720167, 0.009409940779733006, 0.02606460958486423, 0.0423151399299968, 0.05919781928969314, 0.0759163173934212, 0.0922098557202844, 0.10921678034355864, 0.1255082706702524, 0.14251382996008033, 0.1590684881521156, 0.17589996753667947, 0.1923785084291012, 0.2091601531719789, 0.2256502993986942, 0.2424698321192409, 0.2590821756166406, 0.27579214038996724, 0.2924416891983128, 0.3091574566424242, 0.3256684241860057, 0.34263438883499475, 0.35890949516760884, 0.37573448922194075, 0.39250316330435453, 0.4091731920998427, 0.4255486503825523, 0.4423951484277495, 0.45890713996777777, 0.4758526246296242, 0.49222705890861107, 0.5089537490130169, 0.5254531112295808, 0.5425597051435034, 0.5588197928154841, 0.5758137467782944, 0.5921342504225322, 0.6090961190711823, 0.6254446120365174, 0.642687397878035, 0.658977864201006, 0.6760909434378846, 0.6924227110794163, 0.7093576144034159, 0.7255002834717743]
17	images/0419.jpg	images/0510.jpg	right	0.802	[0.0, 0.0, 0.0, 0.0, 0.0, 0.0, 0.0, 0.0, 0.0, 0.0, 0.0, 0.0, 0.0, 1.0, -3.0, -12.0, -26.0, -30.0, -30.0, -31.0, -31.0, -42.0, -90.0, -147.0, -231.0, -331.0, -437.0, -563.0, -577.0, -590.0, -592.0, -585.0, -577.0, -500.0, -386.0, -217.0, -12.0, 214.0, 417.0, 589.0, 746.0, 868.0, 952.0, 959.0, 959.0, 959.0, 959.0, 959.0, 959.0]	[-490.0, -490.0, -490.0, -490.0, -490.0, -490.0, -490.0, -490.0, -490.0, -490.0, -490.0, -490.0, -490.0, -487.0, -486.0, -486.0, -486.0, -486.0, -486.0, -484.0, -464.0, -408.0, -279.0, -172.0, -46.0, 82.0, 189.0, 288.0, 296.0, 304.0, 306.0, 316.0, 322.0, 337.0, 351.0, 364.0, 364.0, 369.0, 369.0, 369.0, 369.0, 369.0, 369.0, 370.0, 374.0, 376.0, 378.0, 378.0, 378.0]	[0.006408256995200645, 0.010467732245160732, 0.014130919706076384, 0.02990085296187317, 0.0459581887407694, 0.06323783856350929, 0.07952352622669423, 0.09649256287229946, 0.11289259714249056, 0.12975820983410813, 0.14603570550389122, 0.16306242745486088, 0.1796112829761114, 0.19648747700557578, 0.2130472551943967, 0.2298463079278008, 0.24620674754987704, 0.26311093089316273, 0.2793768212359282, 0.29654587910772534, 0.3127001535031013, 0.32965724349196535, 0.34596989647252485, 0.3630143677437445, 0.3793321407210897, 0.3963970919867279, 0.41843833936582087, 0.4295879869896453, 0.446084277209593, 0.4630065512174042, 0.4793642601725878, 0.4962766355165513, 0.5127128511012415, 0.5298313916646293, 0.546309932564327, 0.5630714386497857, 0.5798629820492351, 0.5965958161468734, 0.6147209482005564, 0.6297426791788894, 0.6474783500962076, 0.6630154941449291, 0.6798807655068231, 0.6963743250598782, 0.7126856127142673, 0.7293730495002819, 0.7459618410066469, 0.7627083284314722, 0.7794930451709661]
18	images/0253.jpg	images/0562.jpg	right	0.684	[0.0, 0.0, 0.0, 0.0, 0.0, 0.0, 0.0, 0.0, 0.0, 0.0, 0.0, 0.0, 0.0, 0.0, 2.0, 6.0, 12.0, 17.0, 23.0, 37.0, 64.0, 94.0, 144.0, 181.0, 216.0, 253.0, 293.0, 319.0, 350.0, 390.0, 437.0, 491.0, 552.0, 636.0, 690.0, 743.0, 791.0, 824.0, 843.0, 851.0, 852.0, 852.0]	[-490.0, -490.0, -490.0, -490.0, -490.0, -490.0, -490.0, -490.0, -490.0, -490.0, -490.0, -490.0, -490.0, -487.0, -482.0, -474.0, -462.0, -435.0, -391.0, -312.0, -212.0, -112.0, 31.0, 104.0, 154.0, 191.0, 225.0, 246.0, 267.0, 293.0, 318.0, 352.0, 387.0, 430.0, 453.0, 473.0, 483.0, 485.0, 485.0, 483.0, 483.0, 483.0]	[0.006165227780002169, 0.010754452094261069, 0.014705383400723804, 0.02897447476425441, 0.04574861017317744, 0.06220564708200982, 0.07908388911164366, 0.09545729939418379, 0.112386058724951, 0.12886971962143434, 0.1457759509648895, 0.1622241132063209, 0.17904228060069727, 0.19528120561881224, 0.21240111151564633, 0.22861887387989555, 0.2457575531079783, 0.2622234646769357, 0.27907986137870466, 0.29578982615930727, 0.31238134832528885, 0.3289984704897506, 0.34580708055000287, 0.36195896560820984, 0.3789911488929647, 0.3955734550690977, 0.4123533931415295, 0.4285837848292431, 0.4457084694004152, 0.46213717565115076, 0.4790799296461046, 0.495274140019319, 0.5123807339259656, 0.5288647361521726, 0.5456777835497633, 0.5621457431116141, 0.57909327577363, 0.5955486060120165, 0.6123377600815729, 0.628857943622279, 0.6457819242932601, 0.6621546519090771]
19	images/0255.jpg	images/0450.jpg	left	0.836	[0.0, 0.0, 0.0, 0.0, 0.0, 0.0, 0.0, 0.0, 0.0, 0.0, 0.0, 0.0, 0.0, 0.0, 0.0, 0.0, 0.0, 0.0, 0.0, 0.0, 0.0, 0.0, 0.0, 0.0, 0.0, -8.0, -66.0, -178.0, -317.0, -470.0, -648.0, -788.0, -879.0, -916.0, -928.0, -927.0, -915.0, -899.0, -883.0, -869.0, -858.0, -853.0, -846.0, -836.0, -823.0, -806.0, -779.0, -750.0, -742.0, -741.0, -741.0]	[-490.0, -490.0, -490.0, -490.0, -490.0, -490.0, -490.0, -490.0, -490.0, -490.0, -490.0, -490.0, -490.0, -490.0, -490.0, -490.0, -490.0, -490.0, -490.0, -490.0, -490.0, -490.0, -490.0, -490.0, -490.0, -490.0, -440.0, -346.0, -238.0, -112.0, 11.0, 98.0, 152.0, 181.0, 203.0, 229.0, 241.0, 246.0, 250.0, 251.0, 254.0, 255.0, 257.0, 261.0, 267.0, 273.0, 281.0, 290.0, 291.0, 291.0, 291.0]	[0.005975446532829665, 0.010238356357149314, 0.014239804972021375, 0.0284536003600806, 0.04538645569118671, 0.06151751943252748, 0.07871149462880567, 0.09507125158415874, 0.11199693891830975, 0.12838980519154575, 0.1453134445255273, 0.16162063617957756, 0.17875965673738392, 0.1948890138155548, 0.21198127172829118, 0.22818742876552278, 0.24511721209273674, 0.26177461156476056, 0.2788108908425784, 0.29513002915336983, 0.3119748205281212, 0.32820623621955747, 0.34514421154744923, 0.36157462446863065, 0.3788484716278617, 0.39511743395996746, 0.41198475332930684, 0.4282021743565565, 0.4452783896122128, 0.4619023384366301, 0.4787116311636055, 0.4950577347917715, 0.511923347490665, 0.5282063044869574, 0.545253165095346, 0.5617641326389275, 0.5787888065897278, 0.5951393475479563, 0.6120373868980096, 0.6285060291338596, 0.6452787992093363, 0.6615279642282985, 0.6787086274271132, 0.6950427843985381, 0.7119985090539558, 0.7281879407601082, 0.7452897560069687, 0.7618212035449687, 0.7786332269388367, 0.794877613283461, 0.8119579245394561]
20	images/0555.jpg	images/0160.jpg	left	0.678	[0.0, 0.0, 0.0, 0.0, 0.0, 0.0, 0.0, 0.0, 0.0, 0.0, 0.0, 0.0, 0.0, 0.0, 0.0, 0.0, 0.0, 0.0, 0.0, 0.0, -2.0, -7.0, -13.0, -43.0, -107.0, -196.0, -304.0, -419.0, -527.0, -623.0, -729.0, -770.0, -782.0, -785.0, -785.0, -785.0, -786.0, -787.0, -787.0, -787.0, -787.0]	[-490.0, -490.0, -490.0, -490.0, -490.0, -490.0, -490.0, -490.0, -490.0, -490.0, -490.0, -490.0, -490.0, -490.0, -490.0, -490.0, -490.0, -490.0, -490.0, -490.0, -490.0, -490.0, -477.0, -435.0, -372.0, -310.0, -219.0, -116.0, -19.0, 74.0, 185.0, 231.0, 252.0, 264.0, 276.0, 285.0, 293.0, 301.0, 304.0, 304.0, 304.0]	[0.006489152947324328, 0.011897235512151383, 0.015492839003854897, 0.02939875188167207, 0.04639099918131251, 0.06260432421549922, 0.07974607544019818, 0.09594404047675198, 0.11297622375423089, 0.12924279676371953, 0.14633266534656286, 0.16254462504730327, 0.17961776830634335, 0.19611713052290725, 0.2130322365264874, 0.22922166823991574, 0.24630300349235767, 0.2627911017189035, 0.2797376103771967, 0.2961857726186281, 0.3130257853335934, 0.32954016621079063, 0.3463822269186494, 0.3625358186473022, 0.37962534590042196, 0.3960250388336135, 0.41293502484768396, 0.42923026983771706, 0.4462798611057224, 0.4625805674295407, 0.47967896933550946, 0.4961247422543238, 0.5129613416283973, 0.5293009599336074, 0.5463269992178539, 0.5625242815876845, 0.5796387261580094, 0.5961636883657775, 0.6129620584324584, 0.6294051006771042, 0.6463034813568811]
21	images/0081.jpg	images/0393.jpg	left	0.868	[0.0, 0.0, 0.0, 0.0, 0.0, 0.0, 0.0, 0.0, 0.0, 0.0, 0.0, 0.0, 0.0, 0.0, 0.0, 0.0, 0.0, 0.0, 0.0, 0.0, 0.0, 0.0, -17.0, -87.0, -175.0, -268.0, -390.0, -503.0, -603.0, -666.0, -713.0, -718.0, -718.0, -715.0, -711.0, -709.0, -708.0, -708.0, -705.0, -705.0, -702.0, -700.0, -698.0, -697.0, -697.0, -697.0, -697.0, -696.0, -695.0, -692.0, -691.0, -691.0]	[-490.0, -490.0, -490.0, -490.0, -490.0, -490.0, -490.0, -490.0, -490.0, -490.0, -490.0, -490.0, -490.0, -490.0, -490.0, -490.0, -490.0, -490.0, -490.0, -490.0, -490.0, -490.0, -475.0, -433.0, -377.0, -309.0, -219.0, -128.0, -34.0, 41.0, 116.0, 135.0, 153.0, 163.0, 167.0, 168.0, 168.0, 168.0, 171.0, 178.0, 195.0, 206.0, 212.0, 214.0, 214.0, 215.0, 217.0, 223.0, 231.0, 241.0, 242.0, 243.0]	[0.004876353770669084, 0.009760148604982533, 0.026189878859440796, 0.04319885148288449, 0.05965657105844002, 0.07656007173500257, 0.09296898066531867, 0.10986292401503306, 0.12634453691134695, 0.1432333602642757, 0.1595794638924417, 0.17663417516450863, 0.19280176155007211, 0.20977967285580235, 0.2262032591170282, 0.24324158639501547, 0.25959144468652084, 0.27654716934193857, 0.292957443605701, 0.30983397896488896, 0.32630125586729264, 0.3431313699184102, 0.35937063626624877, 0.3764560675190296, 0.39299365905026207, 0.40975789580261335, 0.42632552465511253, 0.44306450275325915, 0.45944473969575483, 0.4765233442885801, 0.4927800186269451, 0.5097425699423184, 0.5261682042037137, 0.5431201741885161, 0.5596209017385263, 0.5764008398182341, 0.5925738875375828, 0.6097405560794869, 0.6260259024056722, 0.6431232803224702, 0.6596547278531943, 0.6764728952475707, 0.6926906576118199, 0.7097511715401197, 0.7260235472058412, 0.7431086371288984, 0.7593485861434601, 0.7764770253779716, 0.7927183397259796, 0.8098020643155905, 0.8260611279911245, 0.8432643191845273]
22	images/0398.jpg	images/0581.jpg	left	0.788	[0.0, 0.0, 0.0, 0.0, 0.0, 0.0, 0.0, 0.0, 0.0, 0.0, 0.0, 0.0, 0.0, 0.0, 0.0, 0.0, 0.0, 0.0, -21.0, -53.0, -104.0, -180.0, -267.0, -351.0, -456.0, -522.0, -579.0, -640.0, -688.0, -714.0, -721.0, -724.0, -724.0, -724.0, -724.0, -722.0, -719.0, -715.0, -711.0, -710.0, -710.0, -710.0, -710.0, -710.0, -710.0, -711.0, -711.0, -711.0]	[-490.0, -490.0, -490.0, -490.0, -490.0, -490.0, -490.0, -490.0, -490.0, -490.0, -490.0, -490.0, -490.0, -490.0, -490.0, -490.0, -490.0, -490.0, -490.0, -483.0, -456.0, -415.0, -358.0, -299.0, -202.0, -124.0, -40.0, 44.0, 113.0, 155.0, 174.0, 190.0, 202.0, 213.0, 228.0, 251.0, 266.0, 275.0, 283.0, 288.0, 289.0, 291.0, 292.0, 294.0, 298.0, 298.0, 298.0, 298.0]	[0.008849130397720728, 0.013911783804360311, 0.020157497936452273, 0.03407433348183986, 0.05134101263683988, 0.06740995374275371, 0.08446364101109793, 0.1005929980892688, 0.1176166480363463, 0.1341989542124793, 0.15101166027307045, 0.1673874598927796, 0.18442885916738305, 0.20071010949322954, 0.21777881542220712, 0.2340245671075536, 0.25106016371864825, 0.2672120487768552, 0.28435755466489354, 0.3005486930414918, 0.3176406096245046, 0.33417205716250464, 0.3510779471762362, 0.36753976274485467, 0.38442790343106026, 0.4007999483801541, 0.417691843736975, 0.4339102887606714, 0.45101551734114764, 0.4672093863846385, 0.48441564957465744, 0.5007890598571976, 0.5176417018956272, 0.5339222695547505, 0.551015210141486, 0.5675231056884513, 0.5843221584218554, 0.600902416597819, 0.6176328613655642, 0.6341281275817892, 0.6511664548597764, 0.6672309586356278, 0.6843634938632022, 0.7007713787970715, 0.7176663461505086, 0.7342896123009268, 0.7511115343586425, 0.7674634406503174]
23	images/0429.jpg	images/0229.jpg	right	0.868	[0.0, 0.0, 0.0, 0.0, 0.0, 0.0, 0.0, 0.0, 0.0, 0.0, 0.0, 0.0, 0.0, 0.0, 0.0, 0.0, 0.0, 0.0, 0.0, 0.0, 0.0, 0.0, 0.0, 0.0, 0.0, 0.0, 0.0, -2.0, -14.0, -40.0, -64.0, -78.0, -86.0, -88.0, -78.0, -54.0, -15.0, 43.0, 117.0, 201.0, 287.0, 360.0, 413.0, 459.0, 506.0, 559.0, 577.0, 588.0, 594.0, 594.0, 594.0, 594.0]	[-490.0, -490.0, -490.0, -490.0, -490.0, -490.0, -490.0, -490.0, -490.0, -490.0, -490.0, -490.0, -490.0, -490.0, -490.0, -490.0, -490.0, -490.0, -490.0, -490.0, -490.0, -490.0, -490.0, -490.0, -490.0, -490.0, -490.0, -471.0, -435.0, -378.0, -299.0, -233.0, -184.0, -154.0, -94.0, -50.0, -4.0, 40.0, 81.0, 117.0, 155.0, 186.0, 209.0, 229.0, 244.0, 258.0, 266.0, 272.0, 276.0, 276.0, 276.0, 276.0]	[0.0038076396522228606, 0.007680405666178558, 0.02435691979189869, 0.041372719082573894, 0.05752289747761097, 0.07468000869266689, 0.09110496028733905, 0.10807741025928408, 0.12442863389151171, 0.14127581459615612, 0.15753385427524336, 0.17449265092727728, 0.19109509576082928, 0.20794568979908945, 0.2244587053428404, 0.24126560873992275, 0.2576308270217851, 0.27461761299491627, 0.29112414320843527, 0.30803242255205987, 0.32443109148880467, 0.3413083095147158, 0.35774077043606667, 0.37458692714426434, 0.3910999426880153, 0.4079894487076672, 0.42420345640857704, 0.4412684076669393, 0.45753259133925894, 0.47458730261132587, 0.4910842754979967, 0.5079959681679611, 0.5244700717375963, 0.5412117804953596, 0.5576271747631836, 0.5747197740056436, 0.5908337710934575, 0.6080891862584394, 0.6244137858957401, 0.6412596012742142, 0.657722782176279, 0.6745733762145392, 0.6910758104349952, 0.7078871511621401, 0.7243783213853021, 0.7412893313885434, 0.7575152857534704, 0.7747369089338463, 0.7910601432449766, 0.8083169237434049, 0.8243384195375256, 0.8414627627716982]
24	images/0317.jpg	images/0072.jpg	left	0.703	[0.0, 0.0, 0.0, 0.0, 0.0, 0.0, 0.0, 0.0, -3.0, -3.0, -3.0, -3.0, -3.0, -3.0, -3.0, -3.0, -3.0, -3.0, -4.0, -23.0, -63.0, -159.0, -285.0, -431.0, -568.0, -691.0, -827.0, -854.0, -887.0, -891.0, -885.0, -868.0, -847.0, -823.0, -803.0, -784.0, -766.0, -748.0, -733.0, -724.0, -724.0, -724.0, -724.0]	[-490.0, -490.0, -490.0, -490.0, -490.0, -490.0, -490.0, -489.0, -489.0, -489.0, -489.0, -489.0, -489.0, -489.0, -489.0, -489.0, -489.0, -489.0, -489.0, -489.0, -489.0, -452.0, -373.0, -269.0, -159.0, -55.0, 83.0, 121.0, 183.0, 205.0, 226.0, 247.0, 261.0, 276.0, 287.0, 298.0, 309.0, 325.0, 336.0, 341.0, 341.0, 341.0, 341.0]	[0.005152150959474966, 0.00880543975654291, 0.013373842746659648, 0.029001098744629417, 0.043505368652404286, 0.06076317315455526, 0.07707616746483836, 0.0939738654778921, 0.11021347316273022, 0.12726852576452075, 0.143593466738821, 0.16064783667388838, 0.1767819724191213, 0.1939687796184444, 0.2104271818534471, 0.22735901318810647, 0.243540252900857, 0.2606424094774411, 0.2771049077200587, 0.29398314974241657, 0.3104118560004281, 0.3272720073655364, 0.34366282563860295, 0.36064005427761003, 0.3770537418749882, 0.40022036468144506, 0.41018046624958515, 0.4273310921344091, 0.4435126731841592, 0.4607141577071161, 0.47712477330787806, 0.49398287667281693, 0.5104105589343817, 0.5272495476456243, 0.5437530058625271, 0.560555471922271, 0.5770278688214603, 0.5939436574990395, 0.6104153717315057, 0.6272523124425788, 0.6435059147843276, 0.660629575351777, 0.677109481584921]
25	images/0018.jpg	images/0370.jpg	left	0.815	[0.0, 0.0, 0.0, 0.0, 0.0, 0.0, 0.0, 0.0, 0.0, 0.0, 0.0, 0.0, 0.0, 0.0, 0.0, 0.0, 0.0, 0.0, 0.0, 0.0, 0.0, 0.0, 0.0, 4.0, 26.0, 72.0, 129.0, 169.0, 186.0, 185.0, 173.0, 131.0, 52.0, -110.0, -252.0, -393.0, -530.0, -633.0, -685.0, -701.0, -705.0, -706.0, -706.0, -706.0, -711.0, -715.0, -718.0, -718.0, -718.0]	[-490.0, -490.0, -490.0, -490.0, -490.0, -490.0, -490.0, -490.0, -490.0, -490.0, -490.0, -490.0, -490.0, -490.0, -490.0, -490.0, -490.0, -490.0, -490.0, -490.0, -490.0, -490.0, -490.0, -489.0, -446.0, -378.0, -274.0, -175.0, -110.0, -76.0, -60.0, -49.0, -38.0, -12.0, 24.0, 69.0, 126.0, 160.0, 174.0, 186.0, 194.0, 204.0, 215.0, 223.0, 231.0, 236.0, 242.0, 243.0, 243.0]	[0.0038526956195710227, 0.010395369601610582, 0.024417335756879766, 0.041186351169017144, 0.05737305221555289, 0.07477933663903968, 0.09077489111223258, 0.10789206634945003, 0.12429346595308743, 0.14121198529028334, 0.157347145031963, 0.17455238421825925, 0.1909647064821911, 0.20800576442707097, 0.22442047602089588, 0.24111644613731187, 0.2574475311121205, 0.2744995117172948, 0.29068245809321525, 0.3078286466479767, 0.3240887343272334, 0.3411557335857651, 0.35740523993445095, 0.37443878854537616, 0.3909910574075184, 0.40789899541414343, 0.4243041496811202, 0.44111378374509513, 0.457383428743924, 0.47437431071011815, 0.4910160088620614, 0.507854997573304, 0.5242939438176109, 0.5410858285540598, 0.55744148951635, 0.5745443287596572, 0.5909617710203747, 0.6078004184018937, 0.6243492739231442, 0.6411012226817547, 0.6574224089927156, 0.6744402562762843, 0.6908812505280366, 0.707792943205277, 0.7243458947268664, 0.7411548461241182, 0.7574087898028665, 0.7745812610082794, 0.7908758233315893]
26	images/0466.jpg	images/0477.jpg	right	0.819	[0.0, 0.0, 0.0, 0.0, 0.0, 0.0, 0.0, -1.0, -1.0, -1.0, -1.0, -1.0, -1.0, -1.0, -1.0, -1.0, -1.0, -1.0, -1.0, -1.0, -1.0, -1.0, -21.0, -101.0, -213.0, -350.0, -480.0, -593.0, -668.0, -722.0, -732.0, -731.0, -716.0, -691.0, -645.0, -585.0, -502.0, -402.0, -295.0, -176.0, -38.0, 100.0, 235.0, 373.0, 491.0, 597.0, 724.0, 761.0, 778.0, 778.0]	[-490.0, -490.0, -490.0, -490.0, -490.0, -490.0, -489.0, -489.0, -489.0, -489.0, -489.0, -489.0, -489.0, -489.0, -489.0, -489.0, -489.0, -489.0, -489.0, -489.0, -489.0, -489.0, -484.0, -450.0, -386.0, -303.0, -217.0, -121.0, -25.0, 68.0, 139.0, 184.0, 217.0, 244.0, 276.0, 304.0, 322.0, 335.0, 343.0, 343.0, 343.0, 343.0, 343.0, 343.0, 343.0, 343.0, 343.0, 343.0, 342.0, 342.0]	[0.00724179255485069, 0.010986899971612729, 0.015454268352186773, 0.03136448953591753, 0.04765188386954833, 0.06468270181358093, 0.08119640002405504, 0.09806235405994812, 0.11444771099922946, 0.1314385929654236, 0.14760140069120098, 0.1646564532929915, 0.18113738352258224, 0.1980838921808754, 0.21460202772141201, 0.2313707018038258, 0.247786778731097, 0.264739090052899, 0.281239134936186, 0.29813239561917726, 0.31454369388666237, 0.33133762661600485, 0.34785781016398687, 0.3647152308622026, 0.3811627104441868, 0.3980249098094646, 0.4145095947023947, 0.43135267941397615, 0.4475673697743332, 0.46458692372834776, 0.48111461660300847, 0.4979542879809742, 0.514513383503072, 0.5313059508989681, 0.5476155318829115, 0.5647405577838072, 0.5812013493559789, 0.5980526260609622, 0.614471433655126, 0.6312861877158866, 0.647785208595451, 0.6646026933231042, 0.6811873888291302, 0.6979652789086686, 0.7144974091061158, 0.7313135285003227, 0.7475835148361512, 0.7647324340578052, 0.7811546549783088, 0.798116523626959]
27	images/0564.jpg	images/0443.jpg	right	0.852	[0.0, 0.0, 0.0, 0.0, 0.0, 0.0, 0.0, 0.0, 0.0, 0.0, 0.0, 0.0, 0.0, 0.0, 0.0, 14.0, 82.0, 115.0, 128.0, 133.0, 133.0, 133.0, 133.0, 133.0, 133.0, 107.0, 47.0, -35.0, -129.0, -313.0, -406.0, -475.0, -517.0, -548.0, -564.0, -577.0, -577.0, -573.0, -546.0, -480.0, -327.0, -256.0, -8.0, 160.0, 330.0, 471.0, 582.0, 649.0, 678.0, 682.0, 682.0]	[-490.0, -490.0, -490.0, -490.0, -490.0, -490.0, -490.0, -490.0, -490.0, -490.0, -490.0, -490.0, -490.0, -490.0, -490.0, -482.0, -447.0, -431.0, -426.0, -425.0, -425.0, -425.0, -425.0, -425.0, -424.0, -416.0, -375.0, -319.0, -237.0, -43.0, 84.0, 177.0, 235.0, 279.0, 312.0, 343.0, 359.0, 365.0, 368.0, 368.0, 378.0, 382.0, 382.0, 382.0, 382.0, 386.0, 386.0, 386.0, 386.0, 386.0, 386.0]	[0.004733335168566555, 0.009002388986118603, 0.03238712367601693, 0.04285376365442062, 0.059541883107158355, 0.07661673302936833, 0.09296829799131956, 0.1098465400209534, 0.12606839837826556, 0.14309170699561946, 0.15954840256745229, 0.1763952419423731, 0.19284579352097353, 0.20977387019229354, 0.22603156853438122, 0.24306818914192263, 0.25943272476433776, 0.2765707213256974, 0.2926727717422182, 0.30976468832523096, 0.3260316026644432, 0.343085631269787, 0.35952730818098644, 0.37643729418778094, 0.39293187774455873, 0.4096903118334012, 0.4259913594869431, 0.44302695609803777, 0.45954850497219013, 0.47642742966127116, 0.49288856257044245, 0.5097159459546674, 0.5263692494263523, 0.5431594274923555, 0.5593635365294176, 0.5764073251411901, 0.5929032740241382, 0.6097064227578812, 0.6260740303769126, 0.6430628643429372, 0.6595844132170896, 0.676373567286646, 0.692844598859665, 0.7097474168695044, 0.7262433657597285, 0.7432083064049948, 0.7593260581488721, 0.776474294703803, 0.7925787344574928, 0.8097484750032891, 0.8262276985624339]
28	images/0583.jpg	images/0199.jpg	right	0.761	[0.0, 0.0, 0.0, 0.0, 0.0, 0.0, 0.0, 0.0, 0.0, 0.0, 0.0, 0.0, 0.0, 0.0, 0.0, 0.0, 0.0, 0.0, 0.0, 0.0, 0.0, 0.0, -18.0, -72.0, -121.0, -206.0, -304.0, -378.0, -406.0, -408.0, -395.0, -341.0, -230.0, -90.0, 127.0, 263.0, 382.0, 468.0, 515.0, 541.0, 559.0, 569.0, 572.0, 572.0, 572.0, 572.0]	[-490.0, -490.0, -490.0, -490.0, -490.0, -490.0, -490.0, -490.0, -490.0, -490.0, -490.0, -490.0, -490.0, -490.0, -490.0, -490.0, -490.0, -490.0, -490.0, -490.0, -490.0, -490.0, -444.0, -341.0, -268.0, -151.0, -11.0, 100.0, 155.0, 185.0, 226.0, 280.0, 326.0, 362.0, 392.0, 394.0, 394.0, 394.0, 394.0, 394.0, 396.0, 398.0, 399.0, 399.0, 399.0, 399.0]	[0.008168853419192601, 0.012003390118479729, 0.01711314750718884, 0.03350498977670213, 0.04981593609409174, 0.06680511139711598, 0.08328194562636781, 0.10003799037804129, 0.11633050470845774, 0.13331865600775927, 0.14990744751412421, 0.16671981223771581, 0.1831055105139967, 0.20000286719732685, 0.2163278081716271, 0.23326339416962583, 0.24987300700013293, 0.2667529556856607, 0.2831379713024944, 0.30008789328712737, 0.3164087382683647, 0.33333237760234624, 0.34987816112698056, 0.3666891605244018, 0.38324757337977644, 0.3999459328260855, 0.41651492701203097, 0.43330817708192626, 0.449644040716521, 0.4665826987111359, 0.4830991275885026, 0.4999029589816928, 0.5165378304664046, 0.5333167445423896, 0.5497509121269104, 0.5667107327753911, 0.58311895904626, 0.6000425983802415, 0.6161992621055106, 0.6332386133799446, 0.649644791650644, 0.6665902763052145, 0.683043217213708, 0.6999129259129404, 0.7164781654282706, 0.7332686848312733]
29	images/0494.jpg	images/0190.jpg	right	0.716	[0.0, 0.0, 0.0, 0.0, 0.0, 0.0, 0.0, 0.0, 0.0, 0.0, 0.0, 0.0, -4.0, -6.0, -11.0, -24.0, -41.0, -62.0, -87.0, -117.0, -165.0, -222.0, -272.0, -300.0, -307.0, -299.0, -216.0, -126.0, -27.0, 72.0, 172.0, 267.0, 355.0, 426.0, 477.0, 527.0, 562.0, 584.0, 607.0, 614.0, 616.0, 616.0, 616.0]	[-490.0, -490.0, -490.0, -490.0, -490.0, -490.0, -490.0, -490.0, -490.0, -490.0, -490.0, -490.0, -485.0, -482.0, -468.0, -434.0, -394.0, -345.0, -286.0, -221.0, -143.0, -67.0, 4.0, 64.0, 98.0, 137.0, 217.0, 268.0, 303.0, 327.0, 342.0, 352.0, 359.0, 359.0, 359.0, 359.0, 359.0, 362.0, 367.0, 370.0, 371.0, 371.0, 371.0]	[0.004483479307964444, 0.008699967816937715, 0.025889505683153402, 0.04284830232791137, 0.05921829928411171, 0.07617914392903913, 0.09237437830597628, 0.10942465224070475, 0.12576768387953052, 0.14279713649011683, 0.15916474410914816, 0.1761334394250298, 0.19256453501293436, 0.2094359503753367, 0.22591961126454407, 0.24275347997900099, 0.25918867156724446, 0.27613927621860057, 0.29261542778112926, 0.30938717386015924, 0.3256738855270669, 0.3427033381376532, 0.35898458847077563, 0.3761543290092959, 0.39257074727356667, 0.4094407973025227, 0.42594323152297875, 0.4427095162682235, 0.4591784998337971, 0.4762100004518288, 0.49258955472760135, 0.5093558394801221, 0.5256514257998788, 0.542709891735285, 0.5592625019271509, 0.5761049039720092, 0.5925800315380911, 0.609359969610523, 0.625670574590913, 0.6427263098594267, 0.6593407013569959, 0.6762974500088603, 0.6925466150205466]
30	images/0115.jpg	images/0520.jpg	left	0.653	[0.0, 0.0, 0.0, 0.0, 0.0, 0.0, 0.0, 0.0, 0.0, 0.0, 0.0, 0.0, 0.0, 0.0, 0.0, 0.0, 0.0, 0.0, 0.0, 0.0, 0.0, 0.0, -21.0, -42.0, -89.0, -169.0, -278.0, -402.0, -521.0, -623.0, -680.0, -697.0, -705.0, -705.0, -705.0, -705.0, -704.0, -704.0, -704.0, -704.0]	[-490.0, -490.0, -490.0, -490.0, -490.0, -490.0, -490.0, -490.0, -490.0, -490.0, -490.0, -490.0, -490.0, -490.0, -490.0, -490.0, -490.0, -490.0, -490.0, -490.0, -490.0, -490.0, -439.0, -368.0, -260.0, -124.0, 26.0, 161.0, 269.0, 354.0, 405.0, 431.0, 448.0, 454.0, 461.0, 462.0, 465.0, 466.0, 466.0, 466.0]	[0.00918773289595265, 0.013881405160645954, 0.01944001564697828, 0.035060103647992946, 0.05190045769268181, 0.06834759593766648, 0.08521901130006881, 0.10144837899133563, 0.11842014630383346, 0.1350014284835197, 0.1518185718668974, 0.16828482477285434, 0.18508831483632093, 0.20159416238311678, 0.21853077237756224, 0.23489223600336118, 0.2518370379912085, 0.2682626722526038, 0.28508869030338246, 0.301515007224225, 0.3184109985741088, 0.3349772620931617, 0.351706000197737, 0.3681036451307591, 0.38506073511962313, 0.4013494947794243, 0.418322968755092, 0.43475713633961277, 0.4517306103152805, 0.4682323618690134, 0.48501366527489154, 0.5015734434637125, 0.5184114081712323, 0.5349220343850902, 0.5518248524022056, 0.5682330786657985, 0.5850870860376745, 0.6013673123670742, 0.6183428343429114, 0.6347411619499326]
31	images/0511.jpg	images/0535.jpg	left	0.78	[0.0, 0.0, 0.0, 0.0, 0.0, 0.0, 0.0, 0.0, 0.0, 0.0, 0.0, 0.0, -4.0, -13.0, -18.0, -22.0, -23.0, -23.0, -10.0, 0.0, 1.0, -14.0, -32.0, -61.0, -123.0, -226.0, -333.0, -439.0, -548.0, -647.0, -704.0, -717.0, -722.0, -724.0, -726.0, -733.0, -739.0, -742.0, -742.0, -742.0, -742.0, -743.0, -743.0, -734.0, -719.0, -713.0, -710.0]	[-490.0, -490.0, -490.0, -490.0, -490.0, -490.0, -490.0, -490.0, -490.0, -490.0, -490.0, -490.0, -490.0, -477.0, -461.0, -439.0, -404.0, -355.0, -288.0, -228.0, -145.0, -107.0, -91.0, -83.0, -59.0, -8.0, 60.0, 135.0, 212.0, 278.0, 314.0, 323.0, 332.0, 339.0, 345.0, 357.0, 365.0, 367.0, 367.0, 367.0, 367.0, 367.0, 367.0, 368.0, 368.0, 368.0, 368.0]	[0.004648684545827564, 0.011720766255166382, 0.025844791023700964, 0.04136486841161968, 0.061050917000102345, 0.07617197592480807, 0.09238120495865587, 0.10937925492180511, 0.12589670780289453, 0.1427694884914672, 0.15919478141586296, 0.17603889012389118, 0.19262699896353297, 0.2094134223734727, 0.22572471002058592, 0.24274221597443102, 0.2589299410174135, 0.27603380426444346, 0.29259426511998754, 0.30937590985558927, 0.32564453086524736, 0.3427200634541805, 0.35896069513546536, 0.3760212090710411, 0.39251237929420313, 0.40937116532586515, 0.4256728956461302, 0.4426586576155387, 0.4589549266092945, 0.47593078991485527, 0.4925724880595226, 0.5093630074625253, 0.5257398310786812, 0.5426375290917349, 0.5591819472901989, 0.5759936293470673, 0.5925684261965216, 0.6093633829295868, 0.6257903825244284, 0.6427249445187044, 0.6591635494332877, 0.6759714768268168, 0.6925077030318789, 0.709362393063202, 0.7258255739725428, 0.7426724133474636, 0.7591936208846164]
32	images/0502.jpg	images/0439.jpg	left	0.67	[0.0, 0.0, 0.0, 0.0, 0.0, 0.0, 0.0, 0.0, 0.0, 1.0, 1.0, 6.0, 11.0, 35.0, 43.0, 72.0, 91.0, 121.0, 171.0, 240.0, 323.0, 390.0, 411.0, 405.0, 384.0, 300.0, 182.0, -37.0, -210.0, -374.0, -519.0, -633.0, -722.0, -756.0, -761.0, -761.0, -757.0, -753.0, -751.0, -748.0]	[-490.0, -490.0, -490.0, -490.0, -490.0, -490.0, -490.0, -490.0, -488.0, -479.0, -460.0, -430.0, -389.0, -307.0, -280.0, -187.0, -119.0, -54.0, 15.0, 71.0, 119.0, 156.0, 170.0, 174.0, 176.0, 176.0, 165.0, 163.0, 182.0, 206.0, 237.0, 274.0, 313.0, 329.0, 335.0, 338.0, 344.0, 345.0, 345.0, 343.0]	[0.0030345200502779335, 0.006986475360463373, 0.023092621777323075, 0.03938308810029412, 0.05644462603231659, 0.07274499101913534, 0.0897631796397036, 0.10605466996639734, 0.1230889012440457, 0.1394841568544507, 0.15644841483299388, 0.17276584648061544, 0.18973488312622067, 0.20611955739877885, 0.22329236994119128, 0.23946848965715617, 0.2562859743848094, 0.2727921632613288, 0.2897038559385692, 0.3060311862427625, 0.32306917219102615, 0.3392268599200179, 0.3563153631694149, 0.3729406773200026, 0.38965712743083714, 0.40621110295614926, 0.4231292809563456, 0.43950064324599225, 0.45628843198210234, 0.47264136227749987, 0.48968276155210333, 0.5058793612552108, 0.5229726431716699, 0.5394801973889116, 0.5563253300933866, 0.5727427723541041, 0.5896445663674967, 0.606158947244694, 0.6230027146229986, 0.6395034421730088]
33	images/0148.jpg	images/0075.jpg	left	1.027	[0.0, 0.0, 0.0, 0.0, 0.0, 0.0, 0.0, 0.0, 0.0, 0.0, 0.0, 0.0, 0.0, 0.0, 0.0, -1.0, -2.0, -4.0, -7.0, -8.0, -8.0, -8.0, -8.0, -8.0, -8.0, 4.0, 32.0, 76.0, 149.0, 239.0, 321.0, 417.0, 459.0, 485.0, 497.0, 503.0, 508.0, 513.0, 517.0, 519.0, 522.0, 527.0, 533.0, 536.0, 536.0, 536.0, 524.0, 488.0, 407.0, 268.0, 101.0, -78.0, -264.0, -436.0, -563.0, -665.0, -735.0, -745.0, -747.0, -747.0, -747.0, -747.0]	[-490.0, -490.0, -490.0, -490.0, -490.0, -490.0, -490.0, -488.0, -486.0, -486.0, -486.0, -486.0, -486.0, -486.0, -485.0, -485.0, -485.0, -485.0, -486.0, -486.0, -486.0, -486.0, -486.0, -486.0, -486.0, -475.0, -436.0, -368.0, -258.0, -130.0, -21.0, 77.0, 110.0, 131.0, 146.0, 163.0, 178.0, 196.0, 207.0, 216.0, 224.0, 234.0, 249.0, 252.0, 254.0, 254.0, 255.0, 253.0, 242.0, 234.0, 234.0, 242.0, 266.0, 299.0, 337.0, 366.0, 397.0, 404.0, 406.0, 406.0, 406.0, 406.0]	[0.004560961926472373, 0.011571262337383814, 0.01997625003423309, 0.03677462009363808, 0.0533122116321465, 0.07001022974873194, 0.086548162609688, 0.10336940200068057, 0.11994863618019735, 0.13669478226802312, 0.15321496581600513, 0.16998466389486566, 0.18648812211176846, 0.20342166010959772, 0.21982101171306567, 0.23674499237677082, 0.25313000798632856, 0.2701089432957815, 0.28639155896235025, 0.30345446222054306, 0.31981968050968135, 0.33682694646995515, 0.35295596221112646, 0.37006528678466566, 0.3864339184074197, 0.4033903257222846, 0.4198135706465109, 0.436648122027691, 0.4532720708521083, 0.4699997849529609, 0.48645784585824003, 0.5033883118594531, 0.519747386148083, 0.5366495214911993, 0.5532659609889379, 0.57002951506729, 0.5864930373063544, 0.6034043886465952, 0.6198068122539553, 0.6366911982695456, 0.6529567472753115, 0.669951383912121, 0.6864466501283459, 0.7034197827742901, 0.7197351664217422, 0.7366202351113316, 0.7529421040890156, 0.7701097966273664, 0.7862425670391531, 0.8034181102411821, 0.8198157551814802, 0.8367045785344089, 0.8532339780722396, 0.8700159641448408, 0.8864569583893172, 0.9034061977145029, 0.9196400027358322, 0.9367783406269155, 0.9529155483687646, 0.9758142246428179, 0.9862156699819025, 1.0035144344583387]
34	images/0249.jpg	images/0002.jpg	right	0.95	[0.0, 0.0, 0.0, 0.0, 0.0, 0.0, 0.0, 0.0, 0.0, 0.0, 0.0, 0.0, 0.0, 0.0, 0.0, 0.0, 0.0, 0.0, 0.0, 0.0, 0.0, 0.0, 0.0, 16.0, 46.0, 63.0, 68.0, 56.0, 24.0, -87.0, -205.0, -325.0, -447.0, -540.0, -599.0, -620.0, -625.0, -625.0, -610.0, -580.0, -528.0, -452.0, -288.0, -177.0, -60.0, 69.0, 185.0, 291.0, 386.0, 469.0, 542.0, 596.0, 640.0, 665.0, 677.0, 678.0, 678.0, 678.0]	[-490.0, -490.0, -490.0, -490.0, -490.0, -490.0, -490.0, -490.0, -490.0, -490.0, -490.0, -490.0, -490.0, -490.0, -490.0, -490.0, -490.0, -490.0, -490.0, -490.0, -490.0, -490.0, -488.0, -430.0, -330.0, -229.0, -162.0, -117.0, -77.0, -21.0, 29.0, 73.0, 108.0, 137.0, 153.0, 165.0, 170.0, 176.0, 186.0, 200.0, 217.0, 228.0, 235.0, 235.0, 241.0, 252.0, 266.0, 281.0, 295.0, 304.0, 311.0, 317.0, 324.0, 332.0, 338.0, 339.0, 339.0, 339.0]	[0.006020843851729296, 0.010610750832711346, 0.015218407141219359, 0.029043765396636445, 0.045205549118691124, 0.06250704426201992, 0.07854355871677399, 0.09560100064845756, 0.11212801085639512, 0.12904584752686787, 0.14544588179705897, 0.16245007575344061, 0.17877296873484738, 0.19566520541411592, 0.2119153944295249, 0.22908957230538363, 0.24547527058166452, 0.26246444588468876, 0.27855045364412945, 0.29556898360169725, 0.3121840577587136, 0.3291223744236049, 0.3454254700700403, 0.362427957370528, 0.37877133033180144, 0.39566186035517603, 0.4122079852168099, 0.428969149965269, 0.4452650776220253, 0.462354604875145, 0.4787618071422912, 0.4956185451737838, 0.5121380460477667, 0.5290695360454265, 0.5454429463279666, 0.5623222123540472, 0.5787768599329866, 0.59559741664998, 0.6122131734809955, 0.6288896876067156, 0.6454846231063129, 0.6622816278468235, 0.6788018113875296, 0.6955817494599614, 0.7119763223963673, 0.7290102123442921, 0.7453372013187618, 0.7622806379804388, 0.7787485975422896, 0.7955834902604693, 0.8119367618855904, 0.8289467585127568, 0.8451785155339167, 0.8623004694309202, 0.8788001729844837, 0.89570060166443, 0.9119903853279538, 0.9290399765959592]
35	images/0505.jpg	images/0138.jpg	left	0.748	[0.0, 0.0, 0.0, 0.0, 0.0, 0.0, 0.0, 0.0, 1.0, 1.0, 1.0, 1.0, 1.0, 1.0, 1.0, 1.0, 1.0, 1.0, 1.0, 1.0, 1.0, 0.0, -2.0, -10.0, -32.0, -71.0, -176.0, -272.0, -361.0, -456.0, -537.0, -607.0, -659.0, -709.0, -737.0, -738.0, -734.0, -728.0, -724.0, -719.0, -717.0, -717.0, -717.0, -717.0]	[-490.0, -490.0, -490.0, -490.0, -490.0, -490.0, -490.0, -490.0, -491.0, -496.0, -500.0, -503.0, -511.0, -521.0, -522.0, -522.0, -522.0, -523.0, -523.0, -523.0, -523.0, -525.0, -525.0, -522.0, -515.0, -497.0, -431.0, -372.0, -298.0, -190.0, -68.0, 60.0, 181.0, 299.0, 371.0, 387.0, 394.0, 409.0, 420.0, 432.0, 434.0, 434.0, 434.0, 434.0]	[0.004606700567819644, 0.0087897384291864, 0.029417866535368375, 0.04264657442399766, 0.059316944556485396, 0.076341277177562, 0.09265119949122891, 0.10943659889744595, 0.12596599843527656, 0.14287325377517845, 0.1593350693510729, 0.17620375404658262, 0.19382780902378727, 0.2095851129561197, 0.22655756292806473, 0.2429053732266766, 0.25930335949669825, 0.27624167616158957, 0.29270588106737705, 0.3094376911612926, 0.32561858954431955, 0.3428525007184362, 0.35924434299522545, 0.3761894863200723, 0.3922959740739316, 0.4094029093175777, 0.42605177545920014, 0.4429361614820664, 0.4593454117421061, 0.4762110244409996, 0.4926178853784222, 0.5093869007905596, 0.5259760336266481, 0.5426921424004831, 0.5591290406518965, 0.5760745253137429, 0.5926076795149129, 0.6094592975496198, 0.6260102010783157, 0.6428007204813184, 0.6592499067264725, 0.6762005113778287, 0.6925780176607077, 0.7094166650422267]
36	images/0543.jpg	images/0498.jpg	left	0.635	[0.0, 0.0, 0.0, 0.0, 0.0, 0.0, 0.0, 0.0, 0.0, 0.0, 0.0, 0.0, 0.0, 0.0, 0.0, 0.0, 0.0, 0.0, 0.0, 0.0, 0.0, 4.0, 34.0, 36.0, 2.0, -83.0, -210.0, -352.0, -489.0, -577.0, -637.0, -667.0, -683.0, -687.0, -687.0, -687.0, -687.0, -687.0]	[-490.0, -490.0, -490.0, -490.0, -490.0, -490.0, -490.0, -490.0, -490.0, -490.0, -490.0, -490.0, -490.0, -490.0, -490.0, -490.0, -490.0, -490.0, -490.0, -490.0, -490.0, -470.0, -359.0, -237.0, -73.0, 94.0, 237.0, 320.0, 352.0, 355.0, 357.0, 363.0, 368.0, 369.0, 369.0, 369.0, 369.0, 369.0]	[0.005010839027818292, 0.00948230340873124, 0.02676229456119472, 0.04338658471533563, 0.060001317542628385, 0.07692086087627104, 0.09336151379102375, 0.11031177711265627, 0.12666368341160705, 0.14355762676132144, 0.16004299432097469, 0.17705162560741883, 0.1931082787195919, 0.210201560636051, 0.22637051235506078, 0.24369385281897848, 0.2600061644698144, 0.27702469442010624, 0.2933861580459052, 0.3102780533954501, 0.3264872824292979, 0.3436078710001311, 0.36008026789932046, 0.3769834272461594, 0.39334352553851204, 0.4102292768875486, 0.4266777804659796, 0.44363725978473667, 0.4600864460298908, 0.47691212275094585, 0.49327358636946883, 0.510193471040111, 0.5264750627029571, 0.5436482165823691, 0.55994038956851, 0.5769892981770681, 0.5933517857993138, 0.6102552864758763]
37	images/0308.jpg	images/0354.jpg	right	0.671	[0.0, 0.0, 0.0, 0.0, 0.0, 0.0, -2.0, -7.0, -14.0, -24.0, -40.0, -53.0, -57.0, -58.0, -58.0, -58.0, -58.0, -62.0, -80.0, -103.0, -111.0, -113.0, -113.0, -87.0, -32.0, 46.0, 141.0, 300.0, 398.0, 476.0, 549.0, 614.0, 661.0, 692.0, 719.0, 734.0, 735.0, 735.0, 735.0, 735.0]	[-490.0, -490.0, -490.0, -490.0, -490.0, -490.0, -491.0, -495.0, -498.0, -502.0, -508.0, -511.0, -511.0, -510.0, -510.0, -510.0, -510.0, -507.0, -497.0, -478.0, -467.0, -449.0, -416.0, -316.0, -185.0, -48.0, 77.0, 223.0, 297.0, 342.0, 365.0, 382.0, 398.0, 414.0, 431.0, 443.0, 444.0, 444.0, 444.0, 444.0]	[0.004809452475456055, 0.009740692614286672, 0.026041740267828573, 0.04265886242501438, 0.05921659261366585, 0.07618972525960999, 0.09283176474127686, 0.10976018273504451, 0.12613495835103095, 0.14297565373271937, 0.1594627279555425, 0.17624403136142064, 0.19283418820123188, 0.20972437688760692, 0.2259759312364622, 0.24303439717186848, 0.2592832208465552, 0.2762874148102128, 0.29280213701713365, 0.30964010173192946, 0.3261575546057429, 0.34300814865127904, 0.35946484422311187, 0.3762693582830252, 0.392904229767737, 0.40968143718055217, 0.42612413809547434, 0.44298975079436786, 0.4594638543567271, 0.4762847524107201, 0.4927967439580243, 0.5097319886190235, 0.5261013029012247, 0.5429856889240909, 0.5594072271851473, 0.576221981245908, 0.5928486607299419, 0.6097019854350947, 0.6261385423495085, 0.6430935843382031]
38	images/0305.jpg	images/0352.jpg	right	1.299	[0.0, 0.0, 0.0, 0.0, 0.0, -1.0, -1.0, -1.0, -1.0, -1.0, -1.0, -1.0, -1.0, -1.0, -1.0, -1.0, -1.0, -1.0, -1.0, -1.0, -1.0, -2.0, 3.0, 22.0, 97.0, 172.0, 252.0, 341.0, 398.0, 417.0, 417.0, 405.0, 374.0, 288.0, 155.0, -15.0, -190.0, -454.0, -622.0, -723.0, -762.0, -774.0, -774.0, -773.0, -744.0, -657.0, -550.0, -445.0, -380.0, -342.0, -340.0, -340.0, -340.0, -340.0, -340.0, -340.0, -340.0, -340.0, -339.0, -326.0, -313.0, -306.0, -298.0, -273.0, -210.0, -116.0, 3.0, 121.0, 246.0, 376.0, 484.0, 563.0, 598.0, 615.0, 651.0, 680.0, 696.0, 701.0]	[-490.0, -490.0, -490.0, -490.0, -490.0, -490.0, -490.0, -490.0, -490.0, -490.0, -490.0, -490.0, -490.0, -490.0, -490.0, -490.0, -490.0, -490.0, -490.0, -490.0, -490.0, -487.0, -471.0, -443.0, -317.0, -193.0, -54.0, 73.0, 177.0, 234.0, 254.0, 258.0, 258.0, 258.0, 260.0, 281.0, 306.0, 350.0, 380.0, 394.0, 400.0, 403.0, 403.0, 406.0, 409.0, 409.0, 403.0, 391.0, 391.0, 391.0, 391.0, 391.0, 391.0, 391.0, 391.0, 390.0, 389.0, 388.0, 386.0, 384.0, 384.0, 384.0, 384.0, 384.0, 379.0, 366.0, 349.0, 339.0, 339.0, 337.0, 335.0, 335.0, 334.0, 332.0, 334.0, 334.0, 334.0, 334.0]	[0.00395168224349618, 0.008871999722032342, 0.0244804823960294, 0.041513689677231014, 0.057645777422294486, 0.07473189133452252, 0.09123534955142532, 0.10801050896407105, 0.12449724185717059, 0.14133725457213586, 0.1578304727881914, 0.1747281708085211, 0.19095617316634161, 0.20799552444077563, 0.22460206526739057, 0.24136732602346456, 0.25788546156400116, 0.274729911601753, 0.2908729220071109, 0.3079518679296598, 0.3244351874891436, 0.341255744213413, 0.35782269039191306, 0.3747227777421358, 0.3908770521375118, 0.4080024193681311, 0.42459564820455853, 0.4412899116578046, 0.45784559384628665, 0.47464020924962824, 0.49107915550121106, 0.5079683201838634, 0.5244171650992939, 0.5412503511470277, 0.5577944280084921, 0.5745859714152175, 0.5910423256500508, 0.6079785943147726, 0.6244073005727842, 0.6412534572809818, 0.6578920834290329, 0.6746201388596091, 0.6911184770797263, 0.7079270871399785, 0.7243919747124892, 0.7412586114078294, 0.7575258670767653, 0.7746112983295461, 0.7911086125532165, 0.8080561452079564, 0.8244083928366308, 0.8413067735164077, 0.857645367817895, 0.8746454657812137, 0.8910571053784224, 0.9142213388549862, 0.9243009070269181, 0.941246050351765, 0.957776815215766, 0.9745529986321344, 0.9911496407949016, 1.0081077547802124, 1.0242572505158023, 1.041354969762324, 1.0576266627613222, 1.0746462167153368, 1.0910728749731788, 1.107934050334734, 1.1242327086583828, 1.1411990146370954, 1.1575044996206998, 1.1745957335369894, 1.1911237677413737, 1.2079579777928302, 1.2244546093425015, 1.241275166066771, 1.2577035309877829, 1.2746080556680681]
39	images/0265.jpg	images/0306.jpg	right	1.052	[0.0, 0.0, 0.0, 0.0, 0.0, 0.0, 0.0, 0.0, 0.0, 0.0, 0.0, 0.0, 0.0, 9.0, 30.0, 48.0, 60.0, 65.0, 65.0, 65.0, 65.0, 65.0, 66.0, 77.0, 102.0, 132.0, 150.0, 168.0, 176.0, 200.0, 237.0, 290.0, 337.0, 376.0, 402.0, 423.0, 445.0, 461.0, 480.0, 502.0, 523.0, 540.0, 540.0, 540.0, 540.0, 540.0, 540.0, 540.0, 540.0, 543.0, 544.0, 544.0, 544.0, 545.0, 546.0, 551.0, 566.0, 584.0, 602.0, 622.0, 634.0, 638.0, 638.0, 638.0]	[-490.0, -490.0, -490.0, -490.0, -490.0, -490.0, -490.0, -490.0, -490.0, -490.0, -490.0, -490.0, -490.0, -488.0, -479.0, -471.0, -466.0, -463.0, -463.0, -463.0, -463.0, -463.0, -463.0, -459.0, -446.0, -417.0, -357.0, -256.0, -136.0, 44.0, 140.0, 202.0, 238.0, 266.0, 292.0, 319.0, 345.0, 364.0, 380.0, 388.0, 389.0, 389.0, 389.0, 389.0, 389.0, 389.0, 389.0, 389.0, 389.0, 389.0, 389.0, 389.0, 389.0, 388.0, 387.0, 384.0, 371.0, 356.0, 346.0, 338.0, 336.0, 336.0, 336.0, 336.0]	[0.005818774618091993, 0.009985087148379534, 0.01304001892276574, 0.028351200417091604, 0.0449526212469209, 0.06199811652186327, 0.07840941478207242, 0.095279806148028, 0.11163478443631902, 0.13446280475181993, 0.14494412205385743, 0.16210293993208325, 0.1783213849630556, 0.19527949894836638, 0.21181674914987525, 0.22864071920048445, 0.24508956410863902, 0.2621333527204115, 0.2783285870900727, 0.2953498477145331, 0.3114836421154905, 0.3286486039942247, 0.34495306498138234, 0.36191186163341627, 0.378343639888044, 0.39518604192562634, 0.4117335321207065, 0.4285912941559218, 0.44503501907456666, 0.4619835757257533, 0.4781286341312807, 0.4952004120568745, 0.5117066009333939, 0.5285544643120375, 0.5449882905595587, 0.5619071512337541, 0.5783491694819531, 0.5951973741903203, 0.6114202565513551, 0.6285521091122064, 0.6449893486933433, 0.6619256173580652, 0.6783696836064337, 0.6952240323080332, 0.7117418265188462, 0.7285470232454827, 0.7450125934847165, 0.7619307714849128, 0.778335584422166, 0.7952534210926387, 0.8114537754663615, 0.8285252120622317, 0.8450365209355368, 0.8619704002703656, 0.8783803331971285, 0.8951660739403451, 0.9115060335752787, 0.928555624843284, 0.9448293658424518, 0.9618697411206085, 0.9784380526398309, 0.9952384706994053, 1.011465449060779, 1.0285662403039169]
40	images/0093.jpg	images/0125.jpg	left	0.636	[0.0, 0.0, 0.0, 0.0, -2.0, -3.0, -7.0, -8.0, -8.0, -8.0, -8.0, -8.0, -8.0, -8.0, -8.0, -8.0, -8.0, -8.0, -8.0, -14.0, -63.0, -166.0, -234.0, -312.0, -406.0, -496.0, -589.0, -683.0, -777.0, -869.0, -949.0, -960.0, -960.0, -960.0, -959.0, -959.0, -958.0, -958.0, -958.0]	[-490.0, -490.0, -490.0, -490.0, -490.0, -489.0, -485.0, -484.0, -484.0, -484.0, -484.0, -484.0, -484.0, -484.0, -484.0, -484.0, -484.0, -484.0, -484.0, -483.0, -462.0, -403.0, -357.0, -289.0, -189.0, -69.0, 58.0, 176.0, 274.0, 354.0, 406.0, 428.0, 433.0, 433.0, 433.0, 433.0, 434.0, 434.0, 434.0]	[0.0062358837385545485, 0.009965289835236035, 0.01316221619345015, 0.029404213215457276, 0.04581312214577338, 0.06261115087545477, 0.07911665709252702, 0.09604609909001738, 0.11241848537611077, 0.12941755933570676, 0.14588859090872575, 0.1626842303085141, 0.17924503249378176, 0.1960389652304002, 0.21253184211673215, 0.22940462281258078, 0.24587804370821686, 0.2627320510800928, 0.2792566719581373, 0.29600691404630197, 0.31249876693618717, 0.3298183527367655, 0.34584394453122513, 0.36271672522707377, 0.3792724074155558, 0.39603596149390796, 0.4125691157023539, 0.42937772576260613, 0.4458002880201093, 0.46262084473710274, 0.478890148406208, 0.4959632916652481, 0.5125213631908991, 0.5293272425842588, 0.5455480769451242, 0.5625741162293707, 0.5791297984178527, 0.59610361373052, 0.6125149119907292]
41	images/0431.jpg	images/0181.jpg	right	0.737	[0.0, 0.0, 0.0, 0.0, 0.0, 0.0, 0.0, -2.0, -2.0, -2.0, -2.0, -2.0, -2.0, -2.0, -2.0, -2.0, -2.0, -2.0, -2.0, -2.0, -2.0, -3.0, -3.0, 6.0, 26.0, 56.0, 101.0, 152.0, 238.0, 317.0, 398.0, 463.0, 509.0, 551.0, 594.0, 645.0, 705.0, 767.0, 814.0, 848.0, 852.0, 852.0, 851.0, 851.0, 851.0]	[-490.0, -490.0, -490.0, -490.0, -490.0, -490.0, -490.0, -490.0, -490.0, -490.0, -490.0, -490.0, -490.0, -490.0, -490.0, -490.0, -490.0, -490.0, -490.0, -490.0, -490.0, -490.0, -489.0, -476.0, -442.0, -372.0, -260.0, -136.0, 29.0, 99.0, 139.0, 167.0, 189.0, 211.0, 235.0, 260.0, 285.0, 315.0, 347.0, 381.0, 389.0, 392.0, 394.0, 394.0, 394.0]	[0.008424511943303514, 0.013535975995182525, 0.018296208225365262, 0.03342511781374924, 0.050439551763702184, 0.06685460469452664, 0.08368744941253681, 0.10008884900889825, 0.11704423233459238, 0.13343846393399872, 0.15038428992556874, 0.16677818020252744, 0.18365164356509922, 0.20006021115841577, 0.21705143446160946, 0.23340607142017689, 0.2503491667448543, 0.2668799316161312, 0.2836288083708496, 0.3001363625880913, 0.31700743661349406, 0.33358940145990346, 0.3503174568977556, 0.366783368466713, 0.3835902718565194, 0.39998757546709385, 0.4169811881001806, 0.433251174436009, 0.45028916037699673, 0.46677179726975737, 0.4836602792929625, 0.5002514601292205, 0.5170457341955625, 0.5334969684408861, 0.5502990931709064, 0.5667404287523823, 0.5835538174796966, 0.6001989289579797, 0.6170143656781875, 0.6333591039801831, 0.6508650576797663, 0.6665346389927436, 0.6836429395625601, 0.7000771071543568, 0.7170458024629625]
42	images/0483.jpg	images/0200.jpg	right	0.85	[0.0, 0.0, 0.0, 0.0, 0.0, -1.0, -1.0, -1.0, -1.0, -1.0, -1.0, -1.0, -1.0, -1.0, -1.0, 0.0, 4.0, 7.0, 9.0, -1.0, -29.0, -74.0, -134.0, -214.0, -316.0, -439.0, -561.0, -672.0, -788.0, -832.0, -844.0, -844.0, -839.0, -793.0, -685.0, -550.0, -410.0, -275.0, -132.0, 109.0, 268.0, 406.0, 525.0, 638.0, 730.0, 801.0, 833.0, 849.0, 854.0, 854.0, 854.0, 854.0]	[-490.0, -491.0, -491.0, -491.0, -491.0, -491.0, -491.0, -491.0, -491.0, -491.0, -491.0, -491.0, -491.0, -491.0, -491.0, -488.0, -478.0, -458.0, -420.0, -350.0, -267.0, -190.0, -113.0, -44.0, 19.0, 80.0, 141.0, 199.0, 271.0, 300.0, 311.0, 312.0, 316.0, 326.0, 340.0, 359.0, 374.0, 374.0, 374.0, 374.0, 374.0, 374.0, 374.0, 374.0, 374.0, 374.0, 374.0, 374.0, 375.0, 375.0, 375.0, 375.0]	[0.005178433617402334, 0.009681300645752344, 0.014264722296502441, 0.02728419296181528, 0.043814957833092194, 0.06070480518974364, 0.07717037542170146, 0.09400151346926577, 0.1104547957147588, 0.1273729737222311, 0.1436890400291304, 0.16068265266221715, 0.17720010554330656, 0.19401588360051392, 0.2104063605365809, 0.22735696519521298, 0.24384847674809862, 0.26071682011388475, 0.27692434248456266, 0.29406268037564587, 0.3105268852741574, 0.3272832713628304, 0.3437362122713239, 0.3606243529575295, 0.3771097205171827, 0.39407568516617175, 0.41028047686995706, 0.427326313474623, 0.44364442778896773, 0.4607322483716416, 0.4770961013273336, 0.49413169793842826, 0.5104706335696392, 0.5273113289513276, 0.5437533471995266, 0.5606008692411706, 0.5771210527818766, 0.5940337694555637, 0.6101559585367795, 0.6273874803810031, 0.6437694239939447, 0.6606599540100433, 0.6770681802736362, 0.6941536115264171, 0.7104352031892631, 0.7273759091840475, 0.7436721781705273, 0.7606651081368909, 0.7772265929961577, 0.7940751390342484, 0.8104413813198335, 0.8275179379124893]
43	images/0044.jpg	images/0225.jpg	left	0.902	[0.0, 0.0, 0.0, 0.0, 0.0, 0.0, 0.0, 0.0, 0.0, 0.0, 0.0, 0.0, 0.0, 0.0, 0.0, 0.0, 0.0, 0.0, 0.0, 0.0, 0.0, 4.0, 5.0, 5.0, -5.0, -33.0, -90.0, -168.0, -303.0, -396.0, -474.0, -538.0, -591.0, -623.0, -632.0, -633.0, -632.0, -632.0, -632.0, -632.0, -632.0, -629.0, -626.0, -626.0, -626.0, -626.0, -626.0, -626.0, -626.0, -626.0, -626.0, -626.0, -626.0, -626.0, -626.0]	[-490.0, -490.0, -490.0, -490.0, -490.0, -490.0, -490.0, -490.0, -490.0, -490.0, -490.0, -490.0, -490.0, -490.0, -490.0, -490.0, -490.0, -490.0, -490.0, -490.0, -489.0, -489.0, -489.0, -489.0, -480.0, -451.0, -387.0, -290.0, -108.0, -1.0, 81.0, 138.0, 187.0, 229.0, 248.0, 253.0, 255.0, 255.0, 255.0, 255.0, 256.0, 256.0, 256.0, 256.0, 256.0, 256.0, 256.0, 256.0, 256.0, 256.0, 256.0, 256.0, 256.0, 256.0, 256.0]	[0.0073557978321332484, 0.012136851386458147, 0.016711739714082796, 0.031205086954287253, 0.04815842227981193, 0.06462399251176976, 0.08158483716397313, 0.09786642882681917, 0.1148136201518355, 0.13117371843691217, 0.1481509470831952, 0.16461310398881324, 0.1814404873730382, 0.19798968423128827, 0.21482867294253083, 0.2312672778571141, 0.24815371188014979, 0.2645694474776974, 0.2814504201669479, 0.29767466786142904, 0.31484645640011877, 0.33120928535208805, 0.3481544286769349, 0.36433976439002436, 0.3814296329728677, 0.39797097917471547, 0.41478061323141446, 0.4311994208255783, 0.448193033458665, 0.4646077450524899, 0.48157200303830905, 0.49810003724269336, 0.5147485620473162, 0.5312393909407547, 0.5541701525289682, 0.5645538485478028, 0.5813849865953671, 0.5978539701682166, 0.6147701001682435, 0.63125444373145, 0.64802618981048, 0.6646351199742639, 0.6813993567266152, 0.6979447989215259, 0.714776960965537, 0.7312322912111995, 0.7480917599095847, 0.764584295466193, 0.7815485534447362, 0.7978758837562054, 0.8147684617724735, 0.8313268746278482, 0.8481361673548236, 0.864546441618586, 0.8814181983179878]
44	images/0542.jpg	images/0286.jpg	left	0.968	[0.0, 0.0, 0.0, 0.0, 0.0, 0.0, 0.0, 0.0, 0.0, 0.0, 0.0, 0.0, 0.0, 0.0, 0.0, 0.0, 0.0, 1.0, 9.0, 22.0, 39.0, 50.0, 57.0, 57.0, 56.0, 51.0, 50.0, 40.0, 1.0, -65.0, -125.0, -197.0, -226.0, -242.0, -247.0, -247.0, -233.0, -204.0, -145.0, -72.0, 13.0, 85.0, 134.0, 166.0, 166.0, 156.0, 112.0, 36.0, -64.0, -189.0, -326.0, -469.0, -580.0, -664.0, -702.0, -715.0, -715.0, -715.0]	[-490.0, -490.0, -490.0, -490.0, -490.0, -490.0, -490.0, -490.0, -490.0, -490.0, -490.0, -490.0, -490.0, -490.0, -490.0, -490.0, -490.0, -490.0, -490.0, -486.0, -481.0, -476.0, -473.0, -473.0, -473.0, -473.0, -473.0, -467.0, -438.0, -390.0, -348.0, -298.0, -272.0, -256.0, -239.0, -219.0, -190.0, -151.0, -99.0, -50.0, -6.0, 25.0, 47.0, 68.0, 72.0, 81.0, 98.0, 118.0, 145.0, 172.0, 200.0, 219.0, 234.0, 247.0, 255.0, 259.0, 259.0, 259.0]	[0.005362070849514566, 0.010832958716491703, 0.02715960636123782, 0.04396138975425856, 0.0606522398738889, 0.0774581192745245, 0.09392949216999114, 0.11099922209541546, 0.1272541897778865, 0.14424131708074128, 0.16040753813285846, 0.1773967134358827, 0.19382644369034097, 0.21106581619824283, 0.22699549337266944, 0.24404167131433496, 0.26038402027916163, 0.277365003588784, 0.2938500298114377, 0.3107251998371794, 0.3271935007433058, 0.3441731187122059, 0.3603837130795, 0.38101661985274404, 0.39387327460281085, 0.4107313779677497, 0.4271795402164571, 0.4440164809275302, 0.46032845124136657, 0.47744357847841457, 0.493769202119438, 0.5108501960421563, 0.5271788916797959, 0.5441349576649372, 0.5603291680454277, 0.5773661299826927, 0.5939327348387451, 0.6108089288609335, 0.6271543498296523, 0.6440083572015283, 0.6603145248518558, 0.6773798174472176, 0.6938921503242454, 0.7107195337084704, 0.7272011466047843, 0.7440438899793662, 0.7605234548755107, 0.7773774622473866, 0.7939467977630557, 0.8108421064462163, 0.8271656820870703, 0.8440469961133203, 0.8606361289494089, 0.8773665737171541, 0.89367888536799, 0.9107909406084218, 0.9272394441868528, 0.9440402035834268]
45	images/0573.jpg	images/0363.jpg	left	1.013	[0.0, 0.0, 0.0, 0.0, 0.0, 0.0, 0.0, 0.0, 0.0, 0.0, 0.0, 0.0, 0.0, 0.0, 0.0, 0.0, 0.0, 0.0, 0.0, 0.0, 0.0, -10.0, -32.0, -58.0, -83.0, -93.0, -93.0, -75.0, -16.0, 18.0, 97.0, 239.0, 323.0, 405.0, 477.0, 527.0, 543.0, 544.0, 539.0, 519.0, 493.0, 464.0, 421.0, 318.0, 219.0, 97.0, -16.0, -149.0, -269.0, -372.0, -470.0, -551.0, -614.0, -665.0, -714.0, -756.0, -769.0, -776.0, -777.0, -777.0, -777.0]	[-490.0, -490.0, -490.0, -490.0, -490.0, -490.0, -490.0, -490.0, -490.0, -490.0, -490.0, -490.0, -490.0, -490.0, -490.0, -490.0, -490.0, -490.0, -490.0, -490.0, -482.0, -461.0, -430.0, -394.0, -354.0, -301.0, -241.0, -179.0, -82.0, -52.0, -11.0, 38.0, 62.0, 75.0, 91.0, 98.0, 100.0, 101.0, 104.0, 110.0, 118.0, 126.0, 144.0, 171.0, 193.0, 211.0, 225.0, 246.0, 266.0, 296.0, 333.0, 369.0, 398.0, 421.0, 441.0, 459.0, 468.0, 475.0, 475.0, 475.0, 475.0]	[0.003854402297292836, 0.009090111612749752, 0.02431834915478248, 0.04118839918373851, 0.05748057216987945, 0.07453221144533018, 0.09097491235297639, 0.1078101464008796, 0.12426957263960503, 0.14117853464995278, 0.15768369953730144, 0.17457115755678387, 0.1909053145282087, 0.20798869778082008, 0.22425356411986286, 0.24117788612056756, 0.25773595763894264, 0.2744974637244013, 0.2910647512471769, 0.30777608135394985, 0.3241201369892224, 0.34110760562180076, 0.3576554371466045, 0.3744210392324021, 0.39089923879510025, 0.4077836248179665, 0.42405873115058057, 0.4467235942138359, 0.45763396729307715, 0.4743739693876705, 0.4909398915769998, 0.5077730776247336, 0.5242318211967358, 0.5411496578672086, 0.5577254787131096, 0.5743893635153654, 0.5909057923927321, 0.6077693570914562, 0.6242342446639668, 0.6410585560442996, 0.6576371075570933, 0.6744972589294775, 0.6908983171961154, 0.7077966978758923, 0.7242533934477251, 0.7411507501310552, 0.7576330456940923, 0.7744293677606038, 0.7909580846317112, 0.8078513453147025, 0.8242506969181704, 0.8411033389566, 0.857645367817895, 0.8743877592496574, 0.8909291054442292, 0.907804958136694, 0.9240530991519336, 0.9411183917472954, 0.9575948846468236, 0.9744052013702458, 0.990881694269774]
46	images/0525.jpg	images/0238.jpg	left	1.068	[0.0, 0.0, 0.0, 0.0, 0.0, -1.0, -3.0, -3.0, -3.0, -3.0, -3.0, -3.0, -3.0, -3.0, -3.0, -3.0, -3.0, -3.0, -3.0, -3.0, -3.0, -4.0, -6.0, -14.0, -30.0, -65.0, -140.0, -209.0, -292.0, -383.0, -477.0, -565.0, -640.0, -701.0, -732.0, -744.0, -746.0, -746.0, -743.0, -725.0, -705.0, -665.0, -609.0, -565.0, -538.0, -529.0, -528.0, -528.0, -528.0, -528.0, -528.0, -528.0, -528.0, -531.0, -549.0, -572.0, -597.0, -627.0, -662.0, -700.0, -729.0, -747.0, -751.0, -751.0, -751.0]	[-490.0, -490.0, -490.0, -490.0, -491.0, -491.0, -491.0, -491.0, -491.0, -491.0, -491.0, -491.0, -491.0, -491.0, -491.0, -491.0, -491.0, -491.0, -491.0, -491.0, -491.0, -485.0, -466.0, -442.0, -399.0, -338.0, -227.0, -149.0, -75.0, -5.0, 58.0, 106.0, 151.0, 182.0, 198.0, 208.0, 215.0, 224.0, 234.0, 250.0, 259.0, 271.0, 284.0, 291.0, 300.0, 302.0, 304.0, 304.0, 304.0, 304.0, 304.0, 304.0, 304.0, 304.0, 303.0, 297.0, 294.0, 293.0, 293.0, 296.0, 300.0, 302.0, 302.0, 302.0, 302.0]	[0.00657243822934106, 0.011540542356669903, 0.015744060205179267, 0.02961413309822092, 0.04646370314003434, 0.06284769475314533, 0.07970170212502126, 0.0959925097777159, 0.11309739702119259, 0.1293250580492895, 0.14636304399027722, 0.16292691817943705, 0.1796508776169503, 0.1961273705092026, 0.21308753249468282, 0.2294776681010262, 0.2463449874703656, 0.262574696491356, 0.27963862375327153, 0.2962120552692795, 0.31312989193975227, 0.32925378768413793, 0.3463399016036419, 0.36270443722605705, 0.37969770852214424, 0.3961803454149049, 0.4131391420669388, 0.4295330323438975, 0.4464344850202906, 0.4627570366646978, 0.47962674536393024, 0.4960107369697653, 0.5129490536346566, 0.5292091413066373, 0.546305153889989, 0.5626915348329931, 0.5796329234872246, 0.5959909737794078, 0.613042271717859, 0.6294156820003991, 0.6463522919948446, 0.6628707688723807, 0.679585853649769, 0.696177034486027, 0.7130699538392946, 0.7294696467724862, 0.7463257021445315, 0.7628202857013093, 0.7796602984089986, 0.7961675112892408, 0.8130443879854283, 0.8294430569221731, 0.8463185682776384, 0.8628312424916658, 0.8795784125832142, 0.8962119187344797, 0.913034182121919, 0.9294468457155745, 0.9463448850656278, 0.9626486633860623, 0.9796651453434606, 0.9958866623710492, 1.01305264824623, 1.0294854504973046, 1.046368812523724]
47	images/0348.jpg	images/0480.jpg	right	0.853	[0.0, 0.0, 0.0, 0.0, 0.0, 0.0, 0.0, -3.0, -3.0, -3.0, -3.0, -3.0, -3.0, -3.0, -1.0, 7.0, 17.0, 25.0, 32.0, 33.0, 33.0, 16.0, 3.0, -11.0, -117.0, -218.0, -298.0, -354.0, -383.0, -386.0, -381.0, -354.0, -290.0, -203.0, -93.0, 64.0, 159.0, 262.0, 346.0, 425.0, 486.0, 546.0, 600.0, 655.0, 718.0, 772.0, 819.0, 856.0, 881.0, 883.0, 883.0]	[-490.0, -490.0, -490.0, -490.0, -490.0, -489.0, -489.0, -490.0, -490.0, -490.0, -490.0, -490.0, -490.0, -490.0, -490.0, -486.0, -482.0, -479.0, -475.0, -475.0, -475.0, -481.0, -486.0, -487.0, -428.0, -347.0, -266.0, -169.0, -82.0, 0.0, 54.0, 89.0, 124.0, 150.0, 183.0, 210.0, 225.0, 241.0, 250.0, 252.0, 253.0, 265.0, 279.0, 297.0, 317.0, 340.0, 364.0, 383.0, 403.0, 405.0, 406.0]	[0.004930625727865845, 0.009772095254447777, 0.02633016677282285, 0.04319509680499323, 0.0597514616601984, 0.07657884504442336, 0.09301267129922053, 0.1098776013313909, 0.1261783076552092, 0.14323097091983072, 0.15963373585691443, 0.1766092578327516, 0.19295467879419448, 0.2099080141124432, 0.22635412836098112, 0.24317809841159033, 0.2597883939088206, 0.2766833612622577, 0.2929919182424783, 0.30990941358322743, 0.32609372529259417, 0.3432064631997491, 0.3596986574193579, 0.3765751927785459, 0.3927622351620812, 0.40990262105333386, 0.42637331128207734, 0.44314710536127677, 0.45948160366970114, 0.47653426693432266, 0.4929609251921647, 0.5098360952179064, 0.5262426148183295, 0.5431761528161587, 0.559746170998551, 0.5766329463513102, 0.5929851939799846, 0.6099972386000445, 0.6264757794997422, 0.6432632269061287, 0.6597236771413009, 0.6765500365290791, 0.6930265294286073, 0.7098382114854758, 0.7261703204567311, 0.7432205943914596, 0.7596684153031674, 0.7765316386721679, 0.7930357795557939, 0.8099269922386156, 0.8262539812130854]
48	images/0296.jpg	images/0334.jpg	left	0.759	[0.0, 0.0, 0.0, 0.0, 0.0, 0.0, 0.0, 0.0, 0.0, 0.0, 0.0, 0.0, 0.0, 0.0, 0.0, 0.0, 0.0, 0.0, 0.0, 0.0, 0.0, -3.0, -16.0, -41.0, -86.0, -133.0, -186.0, -244.0, -300.0, -359.0, -425.0, -485.0, -554.0, -580.0, -595.0, -607.0, -614.0, -618.0, -623.0, -628.0, -636.0, -652.0, -658.0, -668.0, -669.0, -669.0, -669.0]	[-490.0, -490.0, -490.0, -490.0, -490.0, -490.0, -490.0, -490.0, -490.0, -490.0, -490.0, -490.0, -490.0, -490.0, -490.0, -490.0, -490.0, -490.0, -490.0, -490.0, -490.0, -484.0, -468.0, -441.0, -388.0, -322.0, -246.0, -166.0, -70.0, 14.0, 99.0, 169.0, 232.0, 253.0, 272.0, 284.0, 293.0, 300.0, 304.0, 309.0, 314.0, 324.0, 328.0, 330.0, 330.0, 330.0, 330.0]	[0.006100715807406232, 0.019831866113236174, 0.02330663766770158, 0.02879220285831252, 0.045516503625549376, 0.06194452721683774, 0.07891288119571982, 0.09523987017018953, 0.11232837341958657, 0.12861986374628032, 0.14551756175933406, 0.16203433197370032, 0.17885352335724747, 0.19535868824459612, 0.21219289828877663, 0.22875608981121331, 0.24553875855053775, 0.2620166167835123, 0.2788610668212641, 0.295331415720284, 0.31215675111161545, 0.32865474799473304, 0.3455271873535821, 0.36199958425277146, 0.37876655167201534, 0.39528878321289085, 0.4122195905438275, 0.428605630149832, 0.44544700819824357, 0.4617678531722049, 0.4788293911042274, 0.49526219335530186, 0.5122244033409515, 0.5285530989785912, 0.545582892926177, 0.5619539138788241, 0.5787645719392458, 0.5953895447601099, 0.6121182828646852, 0.6286121837474639, 0.6517559372368851, 0.6620430359689635, 0.6787697260660934, 0.6951885336602572, 0.712162007635925, 0.7286610285227653, 0.7454836332472041]
49	images/0515.jpg	images/0152.jpg	right	1.051	[0.0, 0.0, 0.0, 0.0, 0.0, 0.0, 0.0, 0.0, 0.0, 0.0, 0.0, 0.0, 0.0, 0.0, 0.0, 0.0, 0.0, 0.0, 0.0, 0.0, 0.0, -1.0, 0.0, 5.0, 15.0, 26.0, 42.0, 55.0, 79.0, 86.0, 108.0, 128.0, 154.0, 177.0, 204.0, 225.0, 248.0, 259.0, 269.0, 273.0, 273.0, 260.0, 234.0, 176.0, 94.0, 0.0, -90.0, -182.0, -310.0, -372.0, -399.0, -400.0, -364.0, -283.0, -181.0, -61.0, 74.0, 216.0, 352.0, 514.0, 567.0, 585.0, 586.0, 586.0]	[-490.0, -490.0, -490.0, -490.0, -490.0, -490.0, -490.0, -490.0, -490.0, -490.0, -490.0, -490.0, -490.0, -490.0, -490.0, -490.0, -490.0, -490.0, -490.0, -490.0, -490.0, -487.0, -481.0, -470.0, -443.0, -422.0, -400.0, -385.0, -365.0, -359.0, -345.0, -327.0, -306.0, -279.0, -247.0, -217.0, -179.0, -159.0, -141.0, -123.0, -105.0, -82.0, -47.0, -5.0, 36.0, 76.0, 104.0, 131.0, 171.0, 202.0, 224.0, 242.0, 257.0, 277.0, 304.0, 322.0, 341.0, 356.0, 358.0, 358.0, 361.0, 363.0, 363.0, 363.0]	[0.005213590928178746, 0.009366591468278784, 0.01451526083110366, 0.027379424915125128, 0.043882541795028374, 0.060880591758177616, 0.07714443410077365, 0.09424659067735774, 0.11050975035323063, 0.1273849203789723, 0.14385049061093014, 0.16077617794508114, 0.1772100041998783, 0.19407459289504914, 0.21040158186951885, 0.2274067998296232, 0.24382936208712636, 0.26071579611016205, 0.27733121160417795, 0.29407496836211067, 0.310578767916013, 0.3274000072997296, 0.34382291089423234, 0.3607305075711338, 0.3769714805894182, 0.3941354184644297, 0.41055320206214674, 0.43377921683713794, 0.4439041823206935, 0.4607609203521861, 0.4771356959681725, 0.4939316767049604, 0.5103678922896506, 0.5273434142654878, 0.5438670111398096, 0.5607158985076239, 0.5771886367438128, 0.5941494813960162, 0.6105645343195647, 0.6273291124016396, 0.6439189279117272, 0.6608306205889676, 0.6771719455500715, 0.6940146889319294, 0.710492547157628, 0.7273830771810026, 0.7438080287683988, 0.7653608284017537, 0.7772528756468091, 0.7941881203078083, 0.8102505760834902, 0.8275336392325698, 0.8438421962200664, 0.8607081502486835, 0.8770791712013306, 0.8940806344980956, 0.9106987806517282, 0.927318292146083, 0.9437555317272199, 0.9608529096440179, 0.9771594186240691, 0.9940137673256686, 1.0103373429737985, 1.0275033288489794]
50	images/0257.jpg	images/0111.jpg	right	0.968	[0.0, 0.0, 0.0, 0.0, 0.0, 0.0, 0.0, 0.0, 0.0, 0.0, 0.0, 0.0, 0.0, 0.0, 0.0, 0.0, 0.0, 0.0, 0.0, 0.0, 0.0, 0.0, 0.0, 0.0, 0.0, 0.0, -24.0, -64.0, -129.0, -214.0, -301.0, -371.0, -448.0, -513.0, -566.0, -599.0, -620.0, -626.0, -625.0, -606.0, -557.0, -461.0, -345.0, -223.0, -107.0, 23.0, 144.0, 257.0, 426.0, 517.0, 572.0, 617.0, 642.0, 660.0, 666.0, 669.0, 671.0, 671.0, 671.0]	[-490.0, -490.0, -490.0, -490.0, -490.0, -490.0, -490.0, -490.0, -490.0, -490.0, -490.0, -490.0, -490.0, -490.0, -490.0, -490.0, -490.0, -490.0, -490.0, -490.0, -490.0, -490.0, -490.0, -490.0, -490.0, -490.0, -470.0, -435.0, -366.0, -279.0, -194.0, -116.0, -37.0, 34.0, 95.0, 140.0, 168.0, 186.0, 200.0, 210.0, 220.0, 235.0, 249.0, 267.0, 286.0, 300.0, 316.0, 330.0, 348.0, 357.0, 365.0, 370.0, 370.0, 370.0, 370.0, 371.0, 371.0, 371.0, 371.0]	[0.005122454967931844, 0.009333140813396312, 0.014249362298869528, 0.027200907665246632, 0.04368286189856008, 0.06053174926637439, 0.07691676487593213, 0.09391652150952723, 0.11037355841835961, 0.12725555510405684, 0.14370917867927346, 0.1605908340352471, 0.17714992955734488, 0.19392304096982116, 0.21038724587560864, 0.2273221492068842, 0.24347983692859998, 0.26044750824803486, 0.2769605237917858, 0.2939466270909179, 0.3103149173766724, 0.32726859403192066, 0.34345461241173325, 0.36043764371424913, 0.37696226459229365, 0.3938773705958738, 0.41034259949810803, 0.42724917217856273, 0.4437765237162239, 0.4604414325149264, 0.4770674293322372, 0.4938610207391321, 0.5101118924139882, 0.5271700170196709, 0.5435495712954435, 0.5604878879603348, 0.5769729141829885, 0.5938091722273384, 0.6103034144543926, 0.6272079391274019, 0.6436605387061718, 0.6604346741150948, 0.6771009482545196, 0.6938378783524968, 0.7103898058776394, 0.727188517274044, 0.7438080287611228, 0.7604388042527717, 0.7767060599217075, 0.79384815247613, 0.8102550134135527, 0.8272435060425778, 0.8437172682752134, 0.8605125663452782, 0.8770767818641616, 0.8938611572739319, 0.9102949835214531, 0.9272227188557736, 0.9433916705747833]
51	images/0546.jpg	images/0489.jpg	left	1.401	[0.0, 0.0, 0.0, 0.0, 0.0, 0.0, 0.0, 0.0, 0.0, 0.0, 0.0, 0.0, 0.0, 0.0, 3.0, 8.0, 15.0, 24.0, 45.0, 68.0, 92.0, 105.0, 109.0, 106.0, 95.0, 77.0, 50.0, 8.0, -61.0, -137.0, -208.0, -267.0, -272.0, -268.0, -235.0, -162.0, -67.0, 33.0, 133.0, 219.0, 305.0, 371.0, 414.0, 459.0, 476.0, 487.0, 492.0, 494.0, 494.0, 494.0, 494.0, 491.0, 480.0, 476.0, 476.0, 476.0, 478.0, 492.0, 506.0, 522.0, 535.0, 548.0, 553.0, 553.0, 553.0, 550.0, 522.0, 500.0, 469.0, 393.0, 293.0, 165.0, 27.0, -144.0, -309.0, -467.0, -608.0, -717.0, -771.0, -781.0, -781.0, -781.0, -781.0, -780.0]	[-490.0, -490.0, -490.0, -490.0, -490.0, -490.0, -490.0, -490.0, -490.0, -490.0, -490.0, -489.0, -487.0, -485.0, -479.0, -467.0, -452.0, -430.0, -379.0, -327.0, -263.0, -207.0, -164.0, -129.0, -105.0, -89.0, -73.0, -52.0, -27.0, 8.0, 46.0, 81.0, 96.0, 110.0, 133.0, 166.0, 195.0, 225.0, 240.0, 246.0, 246.0, 246.0, 246.0, 248.0, 252.0, 256.0, 257.0, 259.0, 259.0, 259.0, 259.0, 259.0, 259.0, 259.0, 259.0, 259.0, 261.0, 265.0, 270.0, 275.0, 278.0, 279.0, 279.0, 279.0, 279.0, 278.0, 272.0, 267.0, 259.0, 247.0, 235.0, 225.0, 225.0, 226.0, 252.0, 294.0, 334.0, 371.0, 385.0, 389.0, 389.0, 389.0, 389.0, 389.0]	[0.003955436899559572, 0.00838116263912525, 0.024552503688028082, 0.041542020328051876, 0.05789290262327995, 0.07482063795032445, 0.09134389349492267, 0.10813577823137166, 0.12458803647314198, 0.1414451158416341, 0.15767653153307037, 0.1747445547953248, 0.1909626584892976, 0.208066180399328, 0.2245597399523831, 0.24143729931529379, 0.25784586690861033, 0.27483674887480447, 0.2910289112551254, 0.30806996919272933, 0.32455397142621223, 0.3414178774546599, 0.35764212514914107, 0.3747149270711816, 0.39101529205800034, 0.40809526198427193, 0.42462022419204004, 0.44142678625212284, 0.457971887110034, 0.47472076387202833, 0.49132901136908913, 0.5080816427871468, 0.5247028609446716, 0.5414182870517834, 0.5579964972348535, 0.5747948673015344, 0.5909948803382576, 0.6080519809402176, 0.624542127159657, 0.6414975104780751, 0.6579443073933362, 0.6747198081357055, 0.6909491758269724, 0.7080165164225036, 0.7245715159442625, 0.7414340566465398, 0.7579313708702102, 0.774764556917944, 0.790959108620882, 0.8080820865216083, 0.8245654060810921, 0.8415440000608214, 0.8578894210222643, 0.8747386497270782, 0.8909745027485769, 0.9080131713562878, 0.9244913709189859, 0.9414590422311448, 0.9579239298036555, 0.974780667842424, 0.990984094212763, 1.0080606507981429, 1.024579127675679, 1.0415171030035708, 1.057643729414849, 1.0747370113313082, 1.0912978135165758, 1.1081224662339082, 1.124539567164902, 1.141495974479767, 1.1579461847286439, 1.1748585600653314, 1.1910162477943231, 1.2082293376442976, 1.2243641560562537, 1.2415147819410777, 1.25794280552509, 1.2747466369255562, 1.2914354390450171, 1.3081034198476118, 1.3245587500859983, 1.3415759147101198, 1.3579029036845895, 1.3747913857005187]
52	images/0077.jpg	images/0368.jpg	left	0.771	[0.0, 0.0, 0.0, 0.0, 0.0, 0.0, 0.0, 0.0, 0.0, 0.0, 0.0, 0.0, 0.0, 0.0, 0.0, 0.0, 0.0, 0.0, 0.0, -5.0, -32.0, -60.0, -80.0, -110.0, -156.0, -207.0, -263.0, -325.0, -390.0, -501.0, -571.0, -624.0, -650.0, -664.0, -674.0, -682.0, -689.0, -691.0, -691.0, -691.0, -691.0, -691.0, -691.0, -691.0, -691.0, -691.0, -691.0]	[-490.0, -490.0, -490.0, -490.0, -490.0, -490.0, -490.0, -490.0, -490.0, -490.0, -490.0, -490.0, -490.0, -490.0, -490.0, -490.0, -490.0, -490.0, -490.0, -490.0, -490.0, -483.0, -469.0, -441.0, -392.0, -314.0, -220.0, -113.0, 4.0, 174.0, 265.0, 326.0, 358.0, 374.0, 389.0, 402.0, 414.0, 422.0, 425.0, 426.0, 426.0, 426.0, 426.0, 426.0, 426.0, 426.0, 426.0]	[0.008481514589220751, 0.012316733962506987, 0.017292347409238573, 0.03353639243141515, 0.050336469161265995, 0.06788816150947241, 0.08378336403256981, 0.10023835294123273, 0.11716950160916895, 0.13372245313075837, 0.15048395921621704, 0.16689832948031835, 0.1837929554967559, 0.20027115505945403, 0.217127551761223, 0.23357912733627018, 0.2504826280201087, 0.2666669397294754, 0.283802546960942, 0.3002664105297299, 0.3171354365622392, 0.33352762016875204, 0.35046491282992065, 0.3666867711872328, 0.38377049577684375, 0.4001217194017954, 0.4170781267239363, 0.43349795831454685, 0.450435592312715, 0.4668448425727547, 0.48380193256161874, 0.5001514495234005, 0.5170894248512923, 0.5335317844292149, 0.5503584851467167, 0.5666069674989558, 0.5836371027762652, 0.6001828863081755, 0.6170498643332394, 0.6335171412356431, 0.650391287264938, 0.6668356948430301, 0.6836815102215041, 0.7002088617591653, 0.7171222610995756, 0.7335359486969537, 0.7504152147230343]
53	images/0404.jpg	images/0400.jpg	right	1.969	[0.0, 0.0, 0.0, 0.0, 0.0, 0.0, 0.0, -2.0, -2.0, -3.0, -3.0, -3.0, -3.0, -3.0, -3.0, -3.0, -4.0, -4.0, -4.0, -4.0, -6.0, -9.0, -21.0, -32.0, -61.0, -92.0, -134.0, -176.0, -233.0, -299.0, -370.0, -441.0, -500.0, -538.0, -556.0, -557.0, -538.0, -495.0, -442.0, -346.0, -228.0, -114.0, -8.0, 89.0, 192.0, 292.0, 387.0, 505.0, 554.0, 592.0, 618.0, 643.0, 662.0, 670.0, 672.0, 672.0, 673.0, 673.0, 673.0, 673.0, 673.0, 673.0, 673.0, 673.0, 673.0, 673.0, 673.0, 673.0, 673.0, 673.0, 673.0, 654.0, 624.0, 591.0, 573.0, 563.0, 558.0, 557.0, 557.0, 557.0, 557.0, 557.0, 557.0, 557.0, 557.0, 557.0, 557.0, 557.0, 557.0, 557.0, 557.0, 557.0, 557.0, 557.0, 557.0, 557.0, 557.0, 557.0, 557.0, 557.0, 557.0, 556.0, 556.0, 557.0, 565.0, 579.0, 595.0, 606.0, 607.0, 608.0, 608.0, 608.0, 608.0, 608.0, 608.0, 608.0, 608.0, 608.0, 608.0]	[-490.0, -490.0, -490.0, -490.0, -490.0, -490.0, -490.0, -490.0, -490.0, -490.0, -490.0, -490.0, -490.0, -490.0, -490.0, -490.0, -490.0, -490.0, -490.0, -490.0, -490.0, -490.0, -485.0, -479.0, -460.0, -435.0, -392.0, -332.0, -248.0, -155.0, -60.0, 31.0, 105.0, 165.0, 202.0, 240.0, 270.0, 308.0, 338.0, 371.0, 397.0, 415.0, 431.0, 433.0, 433.0, 433.0, 433.0, 421.0, 414.0, 409.0, 405.0, 402.0, 398.0, 397.0, 397.0, 397.0, 395.0, 395.0, 395.0, 395.0, 395.0, 395.0, 395.0, 395.0, 395.0, 395.0, 395.0, 395.0, 395.0, 395.0, 395.0, 390.0, 387.0, 382.0, 378.0, 376.0, 376.0, 376.0, 376.0, 376.0, 376.0, 376.0, 376.0, 376.0, 376.0, 376.0, 376.0, 376.0, 376.0, 376.0, 376.0, 376.0, 376.0, 376.0, 376.0, 376.0, 376.0, 376.0, 376.0, 376.0, 376.0, 375.0, 373.0, 370.0, 367.0, 363.0, 360.0, 358.0, 358.0, 357.0, 357.0, 357.0, 357.0, 357.0, 357.0, 357.0, 357.0, 357.0, 357.0]	[0.0065871155602508225, 0.011637822302873246, 0.015531409648247063, 0.029568394456873648, 0.04656200708996039, 0.06281458543526242, 0.07985735004331218, 0.0961986750116921, 0.11323393028578721, 0.12945783665054478, 0.14658798254095018, 0.16306652344064787, 0.17996353878697846, 0.1963451410701964, 0.21332134571275674, 0.22948142277164152, 0.24649483272514772, 0.2631122962193331, 0.2800236475595739, 0.2963253778798389, 0.3133172838424798, 0.32966748347098473, 0.34652558684319956, 0.36302324239659356, 0.3798509671105421, 0.39639572664600564, 0.41321833136316855, 0.42946203504834557, 0.4465191356430296, 0.4627048126931186, 0.47984212658775505, 0.49631691281683743, 0.5132118801629986, 0.5296771090725088, 0.546521217780537, 0.5630618813083856, 0.5798240700605675, 0.5963558589282911, 0.6132132796337828, 0.6296795325324638, 0.6467441424611025, 0.6630933180931606, 0.6798575548455119, 0.6963432637348888, 0.7132314044210943, 0.729643044018303, 0.7464646247390192, 0.7630981308902847, 0.7797999036702095, 0.7963436392019503, 0.8131583932627109, 0.8296819901297567, 0.8465206375112757, 0.8627226985481684, 0.8797767271535122, 0.8963689319862169, 0.9131888060437632, 0.9296728082699701, 0.9465438823026489, 0.9629643965599826, 0.9798477585791261, 0.9963563367928145, 1.013184061514039, 1.0294485865160823, 1.046484183127177, 1.062868857407011, 1.0799914939780138, 1.0963867495811428, 1.1132943462580442, 1.1296370365598705, 1.1466128998654312, 1.1628651368737337, 1.1799290641429252, 1.196272095774475, 1.213215532428876, 1.2296875879983418, 1.2465374993698788, 1.2630399335903348, 1.2798451303169713, 1.296281004564662, 1.3132466278839274, 1.329461659581284, 1.3465491388342343, 1.3629959357422194, 1.3798400444502477, 1.396147918771021, 1.4131876113751787, 1.4296661522748764, 1.4465450769639574, 1.462822913963464, 1.4798144785963814, 1.4963080381567124, 1.5132466961513273, 1.5294825491655502, 1.5465649084217148, 1.563069731972064, 1.579958213995269, 1.5960664084122982, 1.6131136103504105, 1.6296877245331416, 1.6465314919041703, 1.6627328702743398, 1.6797896295465762, 1.6960695145462523, 1.713176108452899, 1.729538254738145, 1.746503536720411, 1.76294384830544, 1.7798804582998855, 1.7963077992244507, 1.8132498705454054, 1.8295795901867677, 1.846533266842016, 1.8630121490714373, 1.8799146257442771, 1.896304420020897, 1.91321884336503, 1.929692264260666, 1.9465138449813821]
