trialIndex	stimulus	left_option	right_option	response	response_time	xTrajectory	yTrajectory	tTrajectory
0	animate/a27.jpg	animate	inanimate	left	1.118	[0.0, 0.0, 0.0, 0.0, 0.0, 0.0, 0.0, 0.0, 0.0, 0.0, 0.0, 0.0, 0.0, 0.0, 0.0, 0.0, 0.0, 0.0, 0.0, 0.0, 0.0, 0.0, 0.0, 0.0, 0.0, 0.0, 0.0, 0.0, 0.0, 0.0, 0.0, 0.0, 0.0, 0.0, 0.0, 0.0, 0.0, -6.0, -58.0, -144.0, -258.0, -395.0, -535.0, -665.0, -780.0, -877.0, -948.0, -960.0, -960.0, -960.0, -960.0, -960.0, -959.0, -957.0, -955.0, -955.0, -953.0, -952.0, -950.0, -946.0, -939.0, -921.0, -885.0, -856.0, -833.0, -813.0, -796.0]	[-490.0, -490.0, -490.0, -490.0, -490.0, -490.0, -490.0, -490.0, -490.0, -490.0, -490.0, -490.0, -490.0, -490.0, -490.0, -490.0, -490.0, -490.0, -490.0, -490.0, -490.0, -490.0, -490.0, -490.0, -490.0, -490.0, -490.0, -490.0, -490.0, -490.0, -490.0, -490.0, -490.0, -490.0, -490.0, -490.0, -490.0, -490.0, -472.0, -448.0, -398.0, -334.0, -246.0, -126.0, 19.0, 185.0, 326.0, 438.0, 515.0, 540.0, 540.0, 540.0, 540.0, 540.0, 540.0, 540.0, 540.0, 540.0, 540.0, 540.0, 536.0, 524.0, 502.0, 489.0, 475.0, 462.0, 451.0]	[0.016633642684610095, 0.021577170817181468, 0.032127437414601445, 0.048786884886794724, 0.06520569248095853, 0.08212387048115488, 0.09853789941553259, 0.11541409343772102, 0.1319742129635415, 0.1487869190168567, 0.16521903860848397, 0.18220957923767855, 0.1985911815208965, 0.21553905551263597, 0.23184010316617787, 0.24882757179875625, 0.26521429407875985, 0.2822212187020341, 0.2982833331407164, 0.31542440169869224, 0.3316872200448415, 0.34879074194759596, 0.3652310535326251, 0.3822205701653729, 0.3985769137943862, 0.4154312624959857, 0.4318824967413093, 0.44885870138386963, 0.4652502023236593, 0.48225985761382617, 0.49851414262957405, 0.5154364166301093, 0.5316480349938502, 0.5487734022244695, 0.5650959538688767, 0.5822032304422464, 0.5985592327342601, 0.61537944812153, 0.6318880263352185, 0.6487812870254857, 0.6652786012418801, 0.6822203312331112, 0.6985435655442416, 0.7154160049030907, 0.7318112605134957, 0.7486697052154341, 0.7652049074167735, 0.7820701787786675, 0.7982831624758546, 0.8153276337543502, 0.831977865229419, 0.8487816966226092, 0.865234296201379, 0.8820463195879711, 0.8985941511200508, 0.9154642011490068, 0.9319785820262041, 0.9488605787119013, 0.9650418184319278, 0.9820937990298262, 0.9986317318980582, 1.015405184647534, 1.0319397041821503, 1.0488886021703365, 1.0651882844904321, 1.0821119238244137, 1.098622208701272]
1	animate/a51.jpg	animate	inanimate	left	0.779	[0.0, 0.0, 0.0, 0.0, 0.0, 0.0, 0.0, 0.0, 0.0, 0.0, 0.0, 0.0, 0.0, 0.0, 0.0, 0.0, 0.0, 0.0, 0.0, 0.0, 0.0, 0.0, 0.0, 0.0, 0.0, -4.0, -28.0, -134.0, -204.0, -267.0, -337.0, -412.0, -476.0, -520.0, -549.0, -570.0, -600.0, -634.0, -664.0, -713.0, -748.0, -786.0, -815.0, -826.0, -829.0, -829.0, -829.0]	[-490.0, -490.0, -490.0, -490.0, -490.0, -490.0, -490.0, -490.0, -490.0, -490.0, -490.0, -490.0, -490.0, -490.0, -490.0, -490.0, -490.0, -490.0, -490.0, -490.0, -490.0, -490.0, -490.0, -490.0, -490.0, -489.0, -482.0, -405.0, -331.0, -247.0, -144.0, -30.0, 74.0, 156.0, 234.0, 297.0, 359.0, 409.0, 442.0, 466.0, 475.0, 486.0, 493.0, 497.0, 498.0, 498.0, 498.0]	[0.004161260796536226, 0.009291156835388392, 0.023602573506650515, 0.04029820229334291, 0.0570798470362206, 0.07326757207920309, 0.09040829930017935, 0.10685270688554738, 0.12374801556870807, 0.14016921249276493, 0.15707441983977333, 0.1736075740409433, 0.19037522411963437, 0.20687799966981402, 0.22378013501293026, 0.24029280922695762, 0.25710005395376356, 0.27356528286327375, 0.2904414768854622, 0.30684048715920653, 0.32378392381360754, 0.34001192617142806, 0.35707482943689683, 0.37348476237093564, 0.39038041238381993, 0.40666951338062063, 0.423674731340725, 0.44022153886180604, 0.4570154715984245, 0.4736220124323154, 0.4904374491525232, 0.5068344114260981, 0.5237461041033384, 0.5403106609519455, 0.557085137697868, 0.5735343239430222, 0.590363413990417, 0.6069870214778348, 0.6237809542144532, 0.6402564231175347, 0.6570520625173231, 0.673542550073762, 0.6903504774672911, 0.706566874498094, 0.723699751055392, 0.7401526919638854, 0.7569810993518331]
2	inanimate/n21.jpg	animate	inanimate	right	0.78	[0.0, 0.0, 0.0, 0.0, 0.0, 0.0, 0.0, 0.0, 0.0, 0.0, 0.0, 0.0, 0.0, 0.0, 0.0, 0.0, 0.0, -18.0, -43.0, -74.0, -123.0, -197.0, -270.0, -354.0, -446.0, -534.0, -613.0, -685.0, -701.0, -693.0, -632.0, -530.0, -385.0, -206.0, 11.0, 237.0, 436.0, 590.0, 711.0, 787.0, 839.0, 845.0, 846.0, 846.0, 846.0, 846.0, 846.0]	[-490.0, -490.0, -490.0, -490.0, -490.0, -490.0, -490.0, -490.0, -490.0, -490.0, -490.0, -490.0, -490.0, -490.0, -490.0, -490.0, -491.0, -498.0, -510.0, -519.0, -519.0, -508.0, -486.0, -460.0, -419.0, -370.0, -317.0, -247.0, -195.0, -130.0, -44.0, 39.0, 125.0, 192.0, 235.0, 268.0, 290.0, 307.0, 338.0, 373.0, 401.0, 407.0, 411.0, 418.0, 425.0, 430.0, 431.0]	[0.0029027654527453706, 0.007858922916057054, 0.02075107631389983, 0.037632731669873465, 0.05416861653793603, 0.07094036261696601, 0.08741822084994055, 0.10452959341637325, 0.12082483840640634, 0.13772697375679854, 0.15424510929733515, 0.17097555406508036, 0.18749130027572392, 0.20434496631060028, 0.2207951765594771, 0.2376751252450049, 0.2541693674720591, 0.2710117695169174, 0.28747904641204514, 0.30436684576852713, 0.32072387206426356, 0.3376550207249238, 0.3554347236204194, 0.3708940437063575, 0.3874609898921335, 0.4043081705967779, 0.42066690355568426, 0.4375977108866209, 0.4541131157675409, 0.4710753257459146, 0.48742928003775887, 0.5042426687650732, 0.5207225749982172, 0.5376929769699927, 0.5538380353755201, 0.5709558932721848, 0.5874327275087126, 0.6043526121793548, 0.6206894998103962, 0.6376482964624302, 0.6540882667104597, 0.6710003007174237, 0.6874430016323458, 0.7043434303122922, 0.7208410858656862, 0.7376452585958759, 0.7540705515202717]
3	inanimate/n43.jpg	animate	inanimate	right	0.663	[0.0, 0.0, 0.0, 0.0, 0.0, 0.0, -1.0, -3.0, -3.0, -3.0, -3.0, -3.0, -3.0, -3.0, -3.0, -3.0, -3.0, -3.0, -3.0, -3.0, -3.0, -4.0, -17.0, -62.0, -78.0, -102.0, -89.0, -45.0, 38.0, 171.0, 317.0, 467.0, 607.0, 727.0, 837.0, 915.0, 958.0, 959.0, 959.0, 959.0, 959.0]	[-490.0, -490.0, -490.0, -490.0, -490.0, -490.0, -491.0, -492.0, -492.0, -492.0, -492.0, -492.0, -492.0, -492.0, -492.0, -492.0, -492.0, -492.0, -492.0, -492.0, -492.0, -494.0, -498.0, -491.0, -480.0, -400.0, -292.0, -154.0, 19.0, 165.0, 278.0, 366.0, 447.0, 519.0, 540.0, 540.0, 540.0, 540.0, 540.0, 540.0, 540.0]	[0.007982826842635404, 0.013781053210550454, 0.018604090742883272, 0.031060361696290784, 0.04783791043882957, 0.0643130380049115, 0.08114451738947537, 0.09761350095504895, 0.11450198297825409, 0.1309460492193466, 0.1478454539028462, 0.1644188854188542, 0.18129815144493477, 0.19767395105736796, 0.21462216637883103, 0.23084607273631264, 0.2477895093979896, 0.26404789040680043, 0.2811213749955641, 0.29761800655251136, 0.3145897738650092, 0.33098605347186094, 0.3478526901672012, 0.36431245773565024, 0.3811435957904905, 0.39763476601365255, 0.4145324640267063, 0.4309253302999423, 0.4478278069800581, 0.4641093986429041, 0.4811596725776326, 0.4976412854739465, 0.5144959755125456, 0.5308659724614699, 0.5478469557710923, 0.5643166220033891, 0.5811829173690057, 0.59766589559149, 0.6145130763034103, 0.6310342838405631, 0.6478497205680469]
4	animate/a18.jpg	inanimate	animate	right	0.95	[0.0, 0.0, 0.0, 0.0, 0.0, 0.0, 0.0, 0.0, 0.0, 0.0, 0.0, 0.0, 0.0, 2.0, 5.0, 5.0, 3.0, -10.0, -28.0, -53.0, -90.0, -122.0, -143.0, -143.0, -119.0, -63.0, 13.0, 105.0, 214.0, 317.0, 401.0, 451.0, 461.0, 444.0, 384.0, 304.0, 174.0, 31.0, -74.0, -167.0, -204.0, -215.0, -215.0, -215.0, -207.0, -192.0, -144.0, -37.0, 111.0, 287.0, 502.0, 707.0, 880.0, 959.0, 959.0, 959.0, 959.0]	[-490.0, -490.0, -490.0, -490.0, -490.0, -490.0, -490.0, -490.0, -490.0, -490.0, -490.0, -490.0, -490.0, -494.0, -506.0, -520.0, -532.0, -539.0, -539.0, -539.0, -525.0, -478.0, -382.0, -252.0, -117.0, -3.0, 86.0, 168.0, 243.0, 319.0, 376.0, 402.0, 406.0, 411.0, 428.0, 446.0, 486.0, 522.0, 540.0, 540.0, 540.0, 540.0, 540.0, 540.0, 534.0, 519.0, 494.0, 474.0, 474.0, 474.0, 474.0, 474.0, 474.0, 481.0, 489.0, 490.0, 490.0]	[0.006028694515407551, 0.011212179859285243, 0.02730569695268059, 0.044194178968609776, 0.06059182390890783, 0.07767554849851876, 0.09381753490015399, 0.11089784615614917, 0.12731016842008103, 0.14428807972581126, 0.16069255132606486, 0.1777022066162317, 0.19428963278915035, 0.21094430159428157, 0.2273876851759269, 0.24435603915480897, 0.2607642654184019, 0.2777455900577479, 0.2940848670259584, 0.3109938290363061, 0.3271771167492261, 0.34425401467160555, 0.360735968904919, 0.3775817842761171, 0.3941477064654464, 0.41107407646632055, 0.42741710809787037, 0.444307638113969, 0.4607677470194176, 0.47757772241311613, 0.4941020019541611, 0.5109857053103042, 0.5275308061682153, 0.5442438429454342, 0.5608244424583972, 0.5776985884876922, 0.5941040840843925, 0.6109570674525457, 0.6274455070160911, 0.6442943943839055, 0.6608487112462171, 0.6776211399919703, 0.6939252596421284, 0.710938328265911, 0.7274161864988855, 0.7442831645239494, 0.7608531827063416, 0.7777635100501357, 0.7941717363137286, 0.8110892316544778, 0.8274814152609906, 0.8442924146584119, 0.8607501342266914, 0.8775918536048266, 0.894127055806166, 0.9109684338473016, 0.9273838281151257]
5	animate/a46.jpg	animate	inanimate	right	0.664	[0.0, -2.0, -2.0, -2.0, -2.0, -2.0, -2.0, -2.0, -2.0, -2.0, -2.0, -2.0, -2.0, -2.0, -2.0, -2.0, -3.0, -3.0, -3.0, -11.0, -32.0, -89.0, -173.0, -283.0, -346.0, -383.0, -387.0, -339.0, -220.0, -63.0, 136.0, 356.0, 560.0, 726.0, 854.0, 959.0, 959.0, 959.0, 959.0, 959.0]	[-490.0, -490.0, -490.0, -490.0, -490.0, -490.0, -490.0, -490.0, -490.0, -490.0, -490.0, -490.0, -490.0, -490.0, -490.0, -490.0, -490.0, -490.0, -490.0, -490.0, -487.0, -465.0, -425.0, -311.0, -206.0, -87.0, 35.0, 154.0, 283.0, 395.0, 518.0, 540.0, 540.0, 540.0, 540.0, 540.0, 540.0, 540.0, 540.0, 540.0]	[0.005196182937652338, 0.010837054716830608, 0.02557206583878724, 0.04192636146763107, 0.0590063313866267, 0.0755138856038684, 0.0924283089407254, 0.10881571388017619, 0.12589363580627833, 0.14219741412671283, 0.1590725841524545, 0.17559686369349947, 0.19253927635145374, 0.20889903330680681, 0.22575543000857579, 0.2421841362665873, 0.25905828229588224, 0.2755317031915183, 0.29245261185860727, 0.3088628861223697, 0.3258029094504309, 0.34203842114220606, 0.3590600230891141, 0.3752429694723105, 0.39234717404906405, 0.40883936826867284, 0.4257609596097609, 0.44226987915317295, 0.4591204731914331, 0.47557204877375625, 0.49245575212989934, 0.5088551037333673, 0.5257517777426983, 0.5422064253216377, 0.5590648700235761, 0.5753430483528064, 0.5924028796216589, 0.6087984765617875, 0.6257408892197418, 0.6419869822348119]
6	animate/a49.jpg	animate	inanimate	left	1.306	[0.0, 0.0, 0.0, 0.0, 0.0, 0.0, 0.0, 0.0, 0.0, 0.0, 0.0, 0.0, 0.0, 0.0, 0.0, 0.0, 0.0, 0.0, 0.0, 0.0, 0.0, 0.0, 0.0, -1.0, -9.0, -26.0, -56.0, -76.0, -91.0, -100.0, -95.0, -52.0, 14.0, 102.0, 203.0, 298.0, 379.0, 458.0, 562.0, 615.0, 647.0, 652.0, 650.0, 599.0, 493.0, 335.0, 146.0, -86.0, -330.0, -656.0, -811.0, -900.0, -931.0, -933.0, -933.0, -926.0, -915.0, -906.0, -899.0, -896.0, -892.0, -885.0, -877.0, -868.0, -855.0, -841.0, -829.0, -823.0, -822.0, -821.0, -818.0, -818.0, -818.0, -819.0, -823.0, -823.0, -823.0, -823.0, -823.0]	[-490.0, -490.0, -490.0, -490.0, -490.0, -490.0, -490.0, -490.0, -490.0, -490.0, -490.0, -490.0, -490.0, -490.0, -490.0, -490.0, -490.0, -490.0, -490.0, -490.0, -490.0, -490.0, -490.0, -490.0, -490.0, -493.0, -493.0, -492.0, -474.0, -414.0, -310.0, -167.0, -11.0, 167.0, 311.0, 416.0, 487.0, 540.0, 540.0, 540.0, 540.0, 540.0, 540.0, 524.0, 492.0, 455.0, 426.0, 394.0, 376.0, 358.0, 349.0, 338.0, 333.0, 333.0, 333.0, 333.0, 335.0, 338.0, 339.0, 341.0, 341.0, 341.0, 341.0, 339.0, 335.0, 330.0, 329.0, 329.0, 329.0, 330.0, 338.0, 362.0, 391.0, 416.0, 444.0, 451.0, 452.0, 452.0, 452.0]	[0.012901813119242433, 0.018651228849194013, 0.02419174867827678, 0.04108227869437542, 0.05732495837582974, 0.07438069364434341, 0.09084865321347024, 0.10764599928370444, 0.12392042294959538, 0.1410788994980976, 0.15748268843162805, 0.1745053143822588, 0.19074458073737333, 0.2077088387159165, 0.22393445174384397, 0.24099735500203678, 0.25749705855560023, 0.2744497112071258, 0.2908377988205757, 0.3077262808365049, 0.32414440576394554, 0.3410547331077396, 0.3575069913495099, 0.37448865732585546, 0.3908938115928322, 0.407776149615529, 0.4240075652996893, 0.4410144899302395, 0.4575380868045613, 0.4744566061417572, 0.4909255897073308, 0.5077539970952785, 0.5241922606728622, 0.5410855213558534, 0.557550408928364, 0.5744013443036238, 0.5908928558565094, 0.6077864578765002, 0.6242370094551006, 0.641108424817503, 0.6575518083918723, 0.6744034264338552, 0.6909840259468183, 0.7078267693214002, 0.7242008622706635, 0.7410343896553968, 0.7573337306384929, 0.7743976579004084, 0.7913830785400933, 0.807808371464489, 0.8239920005144086, 0.841135799732001, 0.8572907567941002, 0.8744478680091561, 0.8909817048770492, 0.9076196483583772, 0.9241616772269481, 0.9410313859189046, 0.9575973081082338, 0.9744475608094945, 0.9908813870642916, 1.0077555330935866, 1.0240333700930933, 1.0411123160156421, 1.0575550169232883, 1.0745110829157056, 1.0909469571633963, 1.1077180205757031, 1.1242139694659272, 1.1410481795101077, 1.1575437870633323, 1.1744578690704657, 1.1908678020045045, 1.2077160067128716, 1.2239180677497643, 1.2410734723016503, 1.2575670318547054, 1.2743875885716989, 1.290602961606055]
7	animate/a8.jpg	inanimate	animate	right	0.915	[0.0, 0.0, 0.0, -1.0, -3.0, -6.0, -6.0, -7.0, -7.0, -7.0, -9.0, -10.0, -11.0, -11.0, -11.0, -11.0, -11.0, -14.0, -16.0, -18.0, -26.0, -43.0, -83.0, -143.0, -211.0, -302.0, -403.0, -488.0, -526.0, -530.0, -502.0, -443.0, -339.0, -221.0, -39.0, 67.0, 164.0, 227.0, 239.0, 235.0, 184.0, 92.0, 21.0, -13.0, -24.0, -11.0, 120.0, 277.0, 463.0, 671.0, 844.0, 959.0, 959.0, 959.0, 959.0]	[-490.0, -490.0, -490.0, -490.0, -490.0, -490.0, -490.0, -490.0, -490.0, -490.0, -490.0, -491.0, -491.0, -491.0, -491.0, -491.0, -491.0, -493.0, -494.0, -495.0, -499.0, -500.0, -498.0, -480.0, -462.0, -423.0, -352.0, -252.0, -140.0, -40.0, 55.0, 142.0, 219.0, 288.0, 374.0, 423.0, 452.0, 464.0, 467.0, 467.0, 465.0, 465.0, 465.0, 467.0, 476.0, 491.0, 529.0, 540.0, 540.0, 540.0, 539.0, 518.0, 507.0, 502.0, 502.0]	[0.002951234760985244, 0.008089664130238816, 0.02065004169708118, 0.037640240996552166, 0.05410308056889335, 0.07107826121500693, 0.08736565554136178, 0.10445688945765141, 0.1208398570670397, 0.1377310697498615, 0.15418742399197072, 0.17109433800214902, 0.18762442020670278, 0.20454771821096074, 0.22083750186720863, 0.23775533853768138, 0.25405945819511544, 0.27106706548511283, 0.2875445823810878, 0.30438732575566974, 0.3207648320385488, 0.33768949537625303, 0.35424688422790496, 0.3710882622763165, 0.3872674539888976, 0.40445460252522025, 0.42098263672960456, 0.4378014867834281, 0.45433361698815133, 0.4711057043969049, 0.4875026666704798, 0.5044471273286035, 0.5208659349227673, 0.537765339598991, 0.5542551444959827, 0.5710791145465919, 0.587251820928941, 0.6044014228173182, 0.6209513023422915, 0.6377076884309645, 0.6539483201195253, 0.671108844660921, 0.6889114168807282, 0.704389510290639, 0.720842792536132, 0.7377353705524001, 0.7541999167879112, 0.7710430014994927, 0.7875457770496723, 0.8043311764558894, 0.8205878507942543, 0.8376958100343472, 0.8542777748807566, 0.8711201769256149, 0.88759598715842]
8	inanimate/n55.jpg	inanimate	animate	left	1.348	[0.0, 0.0, 0.0, 0.0, 0.0, 0.0, 0.0, 0.0, 0.0, 0.0, 0.0, 0.0, 0.0, 0.0, 0.0, 0.0, -7.0, -15.0, -27.0, -42.0, -66.0, -104.0, -162.0, -239.0, -320.0, -413.0, -508.0, -598.0, -657.0, -674.0, -645.0, -565.0, -435.0, -282.0, -102.0, 122.0, 323.0, 504.0, 663.0, 795.0, 887.0, 939.0, 952.0, 942.0, 866.0, 736.0, 560.0, 337.0, 109.0, -141.0, -377.0, -603.0, -776.0, -895.0, -960.0, -960.0, -960.0, -960.0, -960.0, -960.0, -960.0, -960.0, -960.0, -960.0, -960.0, -958.0, -944.0, -935.0, -917.0, -897.0, -881.0, -873.0, -868.0, -866.0, -864.0, -862.0, -861.0, -859.0, -858.0, -858.0, -858.0, -858.0]	[-490.0, -490.0, -490.0, -490.0, -490.0, -490.0, -490.0, -490.0, -490.0, -490.0, -490.0, -490.0, -490.0, -490.0, -490.0, -490.0, -490.0, -489.0, -489.0, -489.0, -489.0, -475.0, -441.0, -383.0, -310.0, -217.0, -107.0, 10.0, 114.0, 202.0, 314.0, 392.0, 460.0, 521.0, 540.0, 540.0, 540.0, 540.0, 540.0, 540.0, 540.0, 540.0, 540.0, 540.0, 540.0, 540.0, 538.0, 538.0, 540.0, 540.0, 540.0, 540.0, 540.0, 540.0, 540.0, 540.0, 540.0, 540.0, 540.0, 540.0, 540.0, 540.0, 540.0, 540.0, 540.0, 540.0, 537.0, 535.0, 530.0, 525.0, 519.0, 517.0, 514.0, 513.0, 511.0, 510.0, 509.0, 508.0, 508.0, 508.0, 508.0, 508.0]	[0.008162709425960202, 0.012997693615034223, 0.017649723231443204, 0.03155563610926038, 0.04797615037387004, 0.06499229099426884, 0.08132951996230986, 0.09834190591936931, 0.1149313800924574, 0.1317205341620138, 0.14822740571253235, 0.16501519444864243, 0.1812759647873463, 0.19832316672545858, 0.21481501961534377, 0.23170862163533457, 0.24815234654670348, 0.265084860548086, 0.2815507721170434, 0.2983716701710364, 0.3149652403371874, 0.33174347174644936, 0.34789330881176284, 0.36499478272889974, 0.38146342495747376, 0.3983416669871076, 0.41484034653694835, 0.4317158578996896, 0.4479916468990268, 0.4650238301765057, 0.48148189108178485, 0.4983352157869376, 0.5148861193156336, 0.5316851720490376, 0.548117291633389, 0.5651293362534489, 0.581449498567963, 0.5983287645940436, 0.61454720961774, 0.6316814515157603, 0.6481306377609144, 0.6649945437893621, 0.6814843486790778, 0.6982953480764991, 0.7146595423619146, 0.7316985523066251, 0.748118042567512, 0.7650065245834412, 0.7814563934953185, 0.7983916381563176, 0.8148408244014718, 0.8316931251101778, 0.8481774686661083, 0.8650229427075828, 0.8815117236008518, 0.8984408242686186, 0.9147766879032133, 0.9318163805146469, 0.9481706761362148, 0.9650335581754916, 0.9814547550995485, 0.9983073971379781, 1.0145937674606103, 1.0316894387142383, 1.048201088924543, 1.0650366643021698, 1.0815189598652069, 1.0983343965854147, 1.1148975881078513, 1.1316939101743628, 1.1478987018781481, 1.1650544477597577, 1.1812094048218569, 1.1983211187252891, 1.214786688964523, 1.2316707336503896, 1.248107631901803, 1.2650101085819188, 1.2812913589150412, 1.2983167155325646, 1.3147778484344599, 1.3318666930208565]
9	inanimate/n37.jpg	inanimate	animate	left	0.712	[0.0, 0.0, 0.0, 0.0, 0.0, 0.0, 0.0, 0.0, 0.0, 0.0, 0.0, 0.0, 0.0, 0.0, 0.0, 0.0, 0.0, 0.0, 0.0, 0.0, 0.0, 0.0, 0.0, 0.0, -56.0, -119.0, -201.0, -278.0, -362.0, -454.0, -552.0, -636.0, -707.0, -739.0, -753.0, -763.0, -775.0, -776.0, -776.0, -779.0, -781.0, -783.0, -783.0]	[-490.0, -490.0, -490.0, -490.0, -490.0, -490.0, -490.0, -490.0, -490.0, -490.0, -490.0, -490.0, -490.0, -490.0, -490.0, -490.0, -490.0, -490.0, -490.0, -490.0, -490.0, -490.0, -490.0, -490.0, -462.0, -427.0, -370.0, -290.0, -161.0, 5.0, 184.0, 344.0, 457.0, 503.0, 521.0, 531.0, 540.0, 540.0, 540.0, 540.0, 540.0, 540.0, 540.0]	[0.0030136987261357717, 0.008157930758898146, 0.020999566848331597, 0.03795495016674977, 0.0544232510656002, 0.0712352744594682, 0.08745406082744012, 0.10461936403589789, 0.12101154764241073, 0.13800311227532802, 0.15433556258358294, 0.17123223659291398, 0.1876814228380681, 0.20460608617577236, 0.22101362977264216, 0.2380103144023451, 0.25436461003118893, 0.2712879080354469, 0.28772651295003016, 0.30463615762710106, 0.32101605323987314, 0.3378956605956773, 0.3543424575109384, 0.3712043155464926, 0.38772586442064494, 0.40465155175479595, 0.42076930349867325, 0.4379011560595245, 0.45413154775451403, 0.471253160321794, 0.4878078185065533, 0.5046491965549649, 0.5210369428314152, 0.537923376847175, 0.554323411117366, 0.5712149651371874, 0.5876334314016276, 0.6045686760626268, 0.6209833876564517, 0.637870163009211, 0.6543439252418466, 0.6712508392520249, 0.6876805695064832]
10	inanimate/n30.jpg	inanimate	animate	left	1.219	[0.0, 0.0, 0.0, 0.0, 0.0, 0.0, 0.0, 0.0, 0.0, 0.0, 0.0, 0.0, 0.0, 0.0, 0.0, 0.0, 0.0, 0.0, 0.0, 0.0, 0.0, 0.0, 0.0, -13.0, -52.0, -99.0, -146.0, -206.0, -255.0, -292.0, -322.0, -338.0, -350.0, -351.0, -351.0, -351.0, -347.0, -341.0, -341.0, -342.0, -356.0, -381.0, -418.0, -493.0, -582.0, -680.0, -759.0, -825.0, -878.0, -904.0, -925.0, -939.0, -939.0, -939.0, -929.0, -914.0, -903.0, -892.0, -882.0, -874.0, -868.0, -866.0, -865.0, -863.0, -863.0, -863.0, -863.0, -863.0, -863.0, -863.0, -863.0, -863.0, -863.0]	[-490.0, -490.0, -490.0, -490.0, -490.0, -490.0, -490.0, -490.0, -490.0, -490.0, -490.0, -490.0, -490.0, -490.0, -490.0, -490.0, -490.0, -490.0, -490.0, -490.0, -490.0, -490.0, -490.0, -490.0, -480.0, -467.0, -451.0, -433.0, -413.0, -391.0, -373.0, -358.0, -344.0, -335.0, -329.0, -326.0, -319.0, -312.0, -310.0, -303.0, -295.0, -282.0, -261.0, -218.0, -158.0, -89.0, -29.0, 19.0, 60.0, 86.0, 121.0, 180.0, 218.0, 247.0, 272.0, 296.0, 320.0, 342.0, 363.0, 381.0, 392.0, 397.0, 401.0, 403.0, 403.0, 404.0, 405.0, 405.0, 405.0, 405.0, 405.0, 405.0, 405.0]	[0.014678110892418772, 0.020089265453862026, 0.02769450956111541, 0.0442945650574984, 0.06143563361547422, 0.07787799320067279, 0.09480880053160945, 0.11119825347122969, 0.12802393019228475, 0.1445543537265621, 0.16141006776160793, 0.17788894999102922, 0.19479484000476077, 0.2111477703001583, 0.22807311629730975, 0.24437382262112806, 0.26137562724761665, 0.2778753308011801, 0.2947477701600292, 0.3112287003896199, 0.3280908997548977, 0.3445574939905782, 0.36137532004795503, 0.37791905557969585, 0.394793884268438, 0.4111775345445494, 0.4280206192561309, 0.4445889307753532, 0.46146307680464815, 0.4779952070020954, 0.49478504373837495, 0.5109461448009824, 0.5280619547047536, 0.5445647302549332, 0.5614255642867647, 0.5776832626288524, 0.5946748272617697, 0.6112315334539744, 0.6280701808354934, 0.6443067165164393, 0.6613426544645336, 0.6777611207216978, 0.6946803227256169, 0.7109653277220787, 0.7280773829625105, 0.7446282864912064, 0.7615123311770731, 0.7778509254785604, 0.794634276884608, 0.8109295218746411, 0.8281555823850795, 0.8442589981423225, 0.8613416987282108, 0.8778352582885418, 0.8946732229960617, 0.9109305800084257, 0.9280364912483492, 0.9445870534400456, 0.9614482288088766, 0.9778274417549255, 0.9947428890955052, 1.0111982193338918, 1.0280546160429367, 1.0445860635736608, 1.0614182256249478, 1.0776492999793845, 1.0946831899273093, 1.1111985948009533, 1.128156026119541, 1.1446768923269701, 1.1614431770794909, 1.1778694940003334, 1.1946903920543264]
11	animate/a37.jpg	animate	inanimate	left	0.867	[0.0, 0.0, 0.0, 0.0, 0.0, 0.0, 0.0, 0.0, 0.0, 0.0, 0.0, 0.0, 0.0, 0.0, 0.0, 0.0, 0.0, 0.0, 0.0, 0.0, 0.0, 0.0, -22.0, -114.0, -217.0, -322.0, -427.0, -540.0, -663.0, -774.0, -870.0, -950.0, -960.0, -960.0, -956.0, -943.0, -921.0, -893.0, -862.0, -812.0, -756.0, -719.0, -698.0, -693.0, -693.0, -693.0, -702.0, -713.0, -725.0, -730.0, -732.0, -733.0, -733.0]	[-490.0, -490.0, -490.0, -490.0, -490.0, -490.0, -490.0, -490.0, -490.0, -490.0, -490.0, -490.0, -490.0, -490.0, -490.0, -490.0, -490.0, -490.0, -490.0, -490.0, -490.0, -490.0, -487.0, -462.0, -434.0, -404.0, -360.0, -289.0, -194.0, -87.0, 31.0, 144.0, 259.0, 298.0, 328.0, 356.0, 391.0, 425.0, 455.0, 472.0, 485.0, 489.0, 492.0, 493.0, 493.0, 493.0, 493.0, 493.0, 493.0, 493.0, 493.0, 493.0, 493.0]	[0.00985469789156923, 0.014384188907570206, 0.02081866027583601, 0.03518878625618527, 0.0514649165852461, 0.06855034783802694, 0.08505619539209874, 0.10196857072878629, 0.1183846476560575, 0.1352956576665747, 0.15148406537628034, 0.168490648669831, 0.18501936554093845, 0.20194471154536586, 0.21836317780253012, 0.23529261980002047, 0.25171654739096994, 0.2687064053607173, 0.28512657828832744, 0.3019829749900964, 0.3181560227094451, 0.3352612512826454, 0.3514684323235997, 0.36870678082777886, 0.3848105379147455, 0.40194204914587317, 0.41846359802002553, 0.4353227253886871, 0.4517719116338412, 0.46871364162507234, 0.4850341452693101, 0.5019454966095509, 0.5181400483197649, 0.5351882742543239, 0.5518460150633473, 0.5685935264846194, 0.5847522382100578, 0.6018697547842748, 0.6183988129851059, 0.6352695456807851, 0.6517859745581518, 0.6686331552627962, 0.685127738819574, 0.7019670688678161, 0.718131924586487, 0.735222817173053, 0.7517518753738841, 0.7687847413180862, 0.7848127224497148, 0.8019319456798257, 0.8181363960538874, 0.8352655179478461, 0.8517232375234016]
12	inanimate/n21.jpg	inanimate	animate	left	0.832	[0.0, 0.0, 0.0, 0.0, 0.0, 0.0, 0.0, 0.0, 0.0, 0.0, 0.0, 0.0, 0.0, 0.0, 0.0, 0.0, 0.0, 0.0, 0.0, 0.0, 0.0, 0.0, 0.0, 0.0, 0.0, -11.0, -82.0, -182.0, -308.0, -430.0, -549.0, -669.0, -794.0, -841.0, -858.0, -858.0, -832.0, -794.0, -746.0, -711.0, -694.0, -693.0, -692.0, -701.0, -730.0, -745.0, -754.0, -759.0, -759.0, -759.0]	[-490.0, -490.0, -490.0, -490.0, -490.0, -490.0, -490.0, -490.0, -490.0, -490.0, -490.0, -490.0, -490.0, -490.0, -490.0, -490.0, -490.0, -490.0, -490.0, -490.0, -490.0, -490.0, -490.0, -490.0, -490.0, -493.0, -474.0, -432.0, -380.0, -314.0, -233.0, -144.0, 5.0, 98.0, 183.0, 267.0, 336.0, 387.0, 422.0, 439.0, 446.0, 447.0, 447.0, 451.0, 459.0, 463.0, 465.0, 467.0, 467.0, 467.0]	[0.004454465983144473, 0.010091241769259796, 0.02386881338316016, 0.040820100701239426, 0.05718224698648555, 0.0740703876799671, 0.09185930656531127, 0.10734627464262303, 0.12387669817690039, 0.1407982895107125, 0.1569331079153926, 0.174016491168004, 0.1905080027281656, 0.20740297007432673, 0.22389789496810408, 0.24082563029514858, 0.25692870472266804, 0.27399706931464607, 0.2905844954875647, 0.30739720154815586, 0.32375866516667884, 0.340838976422674, 0.3571908827216248, 0.37417459669086384, 0.39061661493906286, 0.4073921156814322, 0.42394984587008366, 0.4407335386131308, 0.45710524223250104, 0.47407598554127617, 0.49058968375175027, 0.5074515417873044, 0.5238256347365677, 0.540772826061584, 0.5572493189538363, 0.5741507716375054, 0.5902951473690337, 0.6073273306465126, 0.6238379568603705, 0.6407080068893265, 0.6570274865371175, 0.6740654724781052, 0.6905388933810173, 0.7073741274216445, 0.7238823643056094, 0.7407203290204052, 0.7572241285670316, 0.7741675652287086, 0.7905870554895955, 0.8073755268924288]
13	animate/a12.jpg	animate	inanimate	left	0.983	[0.0, 0.0, 0.0, 0.0, 0.0, 0.0, 0.0, 0.0, 0.0, 0.0, 0.0, 0.0, 0.0, 0.0, 0.0, 0.0, 0.0, 0.0, 0.0, 0.0, 0.0, 0.0, 0.0, 0.0, 0.0, 0.0, 0.0, 0.0, 0.0, 0.0, 0.0, 0.0, 0.0, 0.0, 0.0, -34.0, -123.0, -231.0, -349.0, -479.0, -631.0, -774.0, -893.0, -960.0, -960.0, -960.0, -960.0, -950.0, -943.0, -933.0, -925.0, -911.0, -895.0, -876.0, -854.0, -835.0, -821.0, -818.0, -818.0, -818.0]	[-490.0, -490.0, -490.0, -490.0, -490.0, -490.0, -490.0, -490.0, -490.0, -490.0, -490.0, -490.0, -490.0, -490.0, -490.0, -490.0, -490.0, -490.0, -490.0, -490.0, -490.0, -490.0, -490.0, -490.0, -490.0, -490.0, -490.0, -490.0, -490.0, -490.0, -490.0, -490.0, -490.0, -490.0, -490.0, -487.0, -452.0, -397.0, -329.0, -236.0, -127.0, -25.0, 60.0, 112.0, 137.0, 151.0, 166.0, 188.0, 200.0, 214.0, 229.0, 250.0, 273.0, 297.0, 319.0, 339.0, 353.0, 357.0, 357.0, 357.0]	[0.011374995781807229, 0.016835643647937104, 0.022649571335932706, 0.037721136955951806, 0.05462327229906805, 0.07107177587749902, 0.08796776722738286, 0.10433469217969105, 0.12135219813353615, 0.13775632840406615, 0.1546366184265935, 0.17103255670372164, 0.1879462973738555, 0.20440811294247396, 0.2213679335982306, 0.237795957182243, 0.2547421245108126, 0.2710035775162396, 0.287964422168443, 0.30438596042222343, 0.3213485117375967, 0.337702466029441, 0.3546752573456615, 0.37103706230118405, 0.3879985896128346, 0.4043839465593919, 0.42130314856331097, 0.4375106709339889, 0.45456367553560995, 0.47080908588395687, 0.48789519980346086, 0.5043931966865784, 0.5212936253665248, 0.5376933183069923, 0.5547354002483189, 0.5709886612530681, 0.5879928552167257, 0.6045075774309225, 0.6214513554223231, 0.6374752405463369, 0.6546139197744196, 0.6709965460540843, 0.6879365693821455, 0.7043830249604071, 0.7212984723009868, 0.7377114772243658, 0.7546204392347136, 0.7710569961564033, 0.7879618621664122, 0.804414461745182, 0.8214497170192772, 0.8374701888169511, 0.854593508047401, 0.8710471316298936, 0.8878598376832088, 0.9044383891960024, 0.9212695272435667, 0.9377985854516737, 0.9546314301624079, 0.971017811105412]
14	animate/a38.jpg	inanimate	animate	left	1.012	[0.0, 0.0, 0.0, 0.0, 0.0, 0.0, -2.0, -3.0, -7.0, -9.0, -9.0, -9.0, -7.0, -5.0, -5.0, -5.0, -5.0, -5.0, -5.0, -5.0, -5.0, -5.0, -5.0, -5.0, -5.0, -5.0, -5.0, -5.0, -14.0, -29.0, -48.0, -76.0, -174.0, -258.0, -330.0, -413.0, -495.0, -554.0, -605.0, -639.0, -664.0, -682.0, -699.0, -708.0, -710.0, -710.0, -710.0, -710.0, -711.0, -715.0, -715.0, -715.0, -717.0, -721.0, -727.0, -738.0, -753.0, -756.0, -757.0, -757.0, -757.0, -757.0]	[-490.0, -490.0, -490.0, -490.0, -490.0, -490.0, -490.0, -490.0, -489.0, -488.0, -487.0, -485.0, -482.0, -479.0, -476.0, -474.0, -474.0, -473.0, -473.0, -473.0, -473.0, -473.0, -473.0, -473.0, -473.0, -473.0, -473.0, -473.0, -473.0, -473.0, -473.0, -473.0, -426.0, -386.0, -341.0, -293.0, -251.0, -226.0, -197.0, -171.0, -133.0, -83.0, -18.0, 58.0, 167.0, 229.0, 281.0, 319.0, 351.0, 372.0, 385.0, 393.0, 403.0, 413.0, 427.0, 439.0, 445.0, 447.0, 448.0, 448.0, 448.0, 448.0]	[0.01015404706413392, 0.015260732448950876, 0.021083534804347437, 0.03577110061451094, 0.05210389225248946, 0.06921765415609116, 0.08568561372521799, 0.10269629301910754, 0.11905434331129072, 0.13589879334904253, 0.15210495038627414, 0.1693562695509172, 0.18540097600634908, 0.2025785672085476, 0.21918476670543896, 0.23591691814363003, 0.2525166323102894, 0.2692842823889805, 0.28565598600835074, 0.3026001053294749, 0.31908922755974345, 0.33598760823952034, 0.3523784265125869, 0.36928602318948833, 0.3856969801199739, 0.40259126480668783, 0.4190346483810572, 0.4359357597277267, 0.4523921139698359, 0.4691389427316608, 0.4856813129299553, 0.5025039176471182, 0.5191172851409647, 0.5359269192049396, 0.552122836241324, 0.5693424114288064, 0.5854536778424517, 0.6025223837714293, 0.6190039966677432, 0.6359856626368128, 0.6523409822621034, 0.6692721309300396, 0.6857626184864785, 0.7025985352011048, 0.7190466974425362, 0.7359187954716617, 0.7523498910595663, 0.7692865010540118, 0.7854179061323521, 0.8026006173313363, 0.8190682355707395, 0.8359423815927585, 0.8521410293033114, 0.8692923378548585, 0.8857486920969677, 0.9025801714742556, 0.9191949043015484, 0.9359526557236677, 0.9523813619744033, 0.9692708679940552, 0.9857169822425931, 1.0025901042681653]
15	animate/a20.jpg	animate	inanimate	left	1.032	[0.0, 0.0, 0.0, 0.0, 0.0, 0.0, 0.0, 0.0, 0.0, 0.0, 0.0, 0.0, 0.0, 0.0, 0.0, 0.0, 0.0, 0.0, 0.0, 0.0, 0.0, 0.0, 0.0, 0.0, 0.0, 0.0, 1.0, -10.0, -19.0, -30.0, -39.0, -46.0, -50.0, -50.0, -50.0, -22.0, 38.0, 114.0, 209.0, 365.0, 476.0, 561.0, 613.0, 640.0, 657.0, 663.0, 663.0, 646.0, 610.0, 539.0, 434.0, 174.0, -41.0, -267.0, -493.0, -673.0, -806.0, -883.0, -905.0, -907.0, -905.0, -899.0]	[-490.0, -490.0, -490.0, -490.0, -490.0, -490.0, -490.0, -490.0, -490.0, -490.0, -490.0, -490.0, -490.0, -490.0, -490.0, -490.0, -490.0, -490.0, -490.0, -490.0, -490.0, -490.0, -490.0, -490.0, -490.0, -490.0, -491.0, -492.0, -492.0, -486.0, -477.0, -464.0, -446.0, -417.0, -397.0, -342.0, -248.0, -147.0, -44.0, 79.0, 116.0, 130.0, 138.0, 142.0, 148.0, 159.0, 178.0, 197.0, 204.0, 204.0, 204.0, 213.0, 238.0, 256.0, 288.0, 333.0, 368.0, 396.0, 413.0, 420.0, 425.0, 425.0]	[0.003647554403869435, 0.008786325102846604, 0.022772451273340266, 0.03919808553473558, 0.056142887522582896, 0.07261835641838843, 0.08954575042298529, 0.10599527799786301, 0.12285508803324774, 0.13936161824676674, 0.15623200961272232, 0.1726777825242607, 0.18956182721012738, 0.2060120374590042, 0.22288789015146904, 0.23943913500988856, 0.25621497708925745, 0.27267303799453657, 0.28957688000809867, 0.3059967115987092, 0.3229084042759496, 0.33916917461465346, 0.356206477888918, 0.37243004291667603, 0.3896581514272839, 0.4060151777230203, 0.42285314243781613, 0.43920095272915205, 0.4561071840726072, 0.4726495542709017, 0.48961005758610554, 0.505710742676456, 0.5228559072347707, 0.5394474294080283, 0.5562341941404156, 0.5727079563730513, 0.5895858570656856, 0.6060036406634026, 0.6228023520598072, 0.6394071862232522, 0.6562021429635934, 0.6728213131209486, 0.6895319605609984, 0.7060596534356591, 0.7228703114960808, 0.7392587404319784, 0.7562206090806285, 0.772669453996059, 0.7895685173425591, 0.8059617249527946, 0.8228898016168387, 0.8390925453204545, 0.8562165472176275, 0.8726087308241404, 0.8895477301557548, 0.9057511565260938, 0.9228601397626335, 0.9392564193694852, 0.9561606027127709, 0.972616274288157, 0.9895173856348265, 1.005934827895544]
16	inanimate/n16.jpg	animate	inanimate	right	1.131	[0.0, 0.0, 0.0, 0.0, 0.0, 0.0, 0.0, 0.0, 0.0, 0.0, 0.0, -2.0, -2.0, -2.0, -2.0, -2.0, -2.0, -2.0, -2.0, -6.0, -14.0, -34.0, -66.0, -124.0, -187.0, -241.0, -275.0, -289.0, -286.0, -202.0, -104.0, 19.0, 164.0, 307.0, 445.0, 562.0, 644.0, 679.0, 686.0, 677.0, 560.0, 417.0, 220.0, 4.0, -219.0, -432.0, -637.0, -800.0, -909.0, -960.0, -960.0, -960.0, -960.0, -952.0, -923.0, -853.0, -736.0, -601.0, -431.0, -232.0, -24.0, 189.0, 380.0, 542.0, 685.0, 853.0, 924.0, 941.0, 942.0]	[-490.0, -490.0, -490.0, -490.0, -490.0, -490.0, -490.0, -490.0, -490.0, -490.0, -490.0, -492.0, -492.0, -492.0, -492.0, -492.0, -492.0, -492.0, -492.0, -493.0, -493.0, -493.0, -489.0, -457.0, -410.0, -340.0, -236.0, -118.0, -3.0, 161.0, 250.0, 325.0, 381.0, 422.0, 442.0, 450.0, 450.0, 450.0, 450.0, 450.0, 409.0, 388.0, 388.0, 389.0, 409.0, 444.0, 477.0, 503.0, 521.0, 530.0, 534.0, 535.0, 535.0, 535.0, 535.0, 535.0, 535.0, 535.0, 535.0, 535.0, 535.0, 535.0, 535.0, 535.0, 535.0, 535.0, 535.0, 535.0, 535.0]	[0.008437823948042933, 0.014751122049347032, 0.01931713570957072, 0.03180958798475331, 0.04876838463678723, 0.06518889889412094, 0.08205178092612186, 0.09848970317398198, 0.11538501185714267, 0.13180484345502919, 0.14880016275128582, 0.1651773276971653, 0.18204703639639774, 0.19849553997482872, 0.21539767531794496, 0.23185607756022364, 0.24883808486629277, 0.26514561785006663, 0.28203205186582636, 0.29853960608306807, 0.31535299481038237, 0.3316130824823631, 0.34874732438038336, 0.36515657464042306, 0.38202252867631614, 0.39850892023241613, 0.4153578076075064, 0.43190120180224767, 0.44882723047339823, 0.46520371275255457, 0.48204133613035083, 0.4982887944788672, 0.5153725190684781, 0.5318722226147656, 0.5487569499746314, 0.5651979442191077, 0.5820628742512781, 0.5985560924746096, 0.6153810865289415, 0.6319971846896806, 0.6488638213850209, 0.6652256263405434, 0.6820625670516165, 0.6985571506083943, 0.7154446086278767, 0.7318258695740951, 0.7488471301912796, 0.7651802631662576, 0.7820370011977502, 0.7984875527763506, 0.8153961734569748, 0.8316996104404097, 0.8487696817028336, 0.8651526493122219, 0.8820302086678566, 0.8982882483469439, 0.9153781169297872, 0.9318341298348969, 0.9487700571626192, 0.9651956914240145, 0.9820258054751321, 0.9984930823775358, 1.0153979483875446, 1.0318689799532876, 1.0488318725983845, 1.0651851442307816, 1.0820534875892918, 1.09852827382565, 1.115388766520482]
17	inanimate/n56.jpg	animate	inanimate	right	0.981	[0.0, 0.0, 0.0, 0.0, 0.0, 0.0, -1.0, -2.0, -2.0, -2.0, -3.0, -3.0, -4.0, -4.0, -4.0, -4.0, 3.0, 11.0, 19.0, 20.0, 20.0, 20.0, 20.0, 20.0, 20.0, 20.0, 20.0, 14.0, -42.0, -186.0, -306.0, -433.0, -553.0, -651.0, -717.0, -767.0, -794.0, -817.0, -821.0, -821.0, -820.0, -819.0, -817.0, -817.0, -814.0, -805.0, -773.0, -687.0, -560.0, -411.0, -238.0, -36.0, 174.0, 372.0, 623.0, 771.0, 890.0, 959.0, 959.0, 959.0]	[-490.0, -490.0, -490.0, -490.0, -490.0, -490.0, -491.0, -491.0, -491.0, -492.0, -492.0, -493.0, -493.0, -493.0, -493.0, -493.0, -491.0, -487.0, -485.0, -485.0, -485.0, -485.0, -485.0, -485.0, -485.0, -485.0, -485.0, -482.0, -461.0, -395.0, -330.0, -239.0, -127.0, -14.0, 76.0, 159.0, 219.0, 268.0, 288.0, 296.0, 303.0, 310.0, 321.0, 336.0, 352.0, 372.0, 391.0, 414.0, 452.0, 473.0, 497.0, 497.0, 497.0, 489.0, 489.0, 489.0, 489.0, 491.0, 500.0, 503.0]	[0.00904607963457238, 0.013699815921427216, 0.018928357247204985, 0.03355960308545036, 0.050124159941333346, 0.06697236464242451, 0.08329901228717063, 0.10028511558630271, 0.11651175261795288, 0.13359718386345776, 0.15006104743952164, 0.16685736950603314, 0.18343967568216613, 0.20036536301631713, 0.2165930240371381, 0.23363851931208046, 0.2500682495665387, 0.2669737982432707, 0.283443805812567, 0.30035993581986986, 0.3167203754419461, 0.3336143187916605, 0.3498498304761597, 0.3669175124086905, 0.3834475946132443, 0.4003449512892985, 0.4167661482206313, 0.4336245929225697, 0.4501068884783308, 0.46693870919261826, 0.48344762874330627, 0.5003757054073503, 0.5167528703605058, 0.5336509097032831, 0.550032511986501, 0.5669199700059835, 0.5834005588985747, 0.6003556008872692, 0.6167723604812636, 0.6335915518720867, 0.6500315221201163, 0.6671029587087105, 0.683458278341277, 0.7003945469987229, 0.7168078932591015, 0.73358407667547, 0.750041454914026, 0.7668794196288218, 0.7834330538171344, 0.8003758078120882, 0.8165904981724452, 0.8335905961357639, 0.8500844970258186, 0.8669374803939718, 0.8831781120825326, 0.9002416980147245, 0.9165915563062299, 0.9335885822729324, 0.9498025899665663, 0.9669272745377384]
18	inanimate/n36.jpg	inanimate	animate	left	0.881	[0.0, 0.0, 0.0, 0.0, 0.0, 0.0, 0.0, 0.0, 0.0, 0.0, 0.0, 0.0, 0.0, 0.0, 0.0, 0.0, 0.0, 4.0, 10.0, 13.0, 13.0, 13.0, 13.0, 3.0, -37.0, -119.0, -210.0, -313.0, -419.0, -523.0, -619.0, -703.0, -763.0, -819.0, -832.0, -857.0, -862.0, -862.0, -861.0, -861.0, -861.0, -861.0, -859.0, -856.0, -856.0, -855.0, -851.0, -837.0, -819.0, -796.0, -771.0, -769.0, -769.0]	[-490.0, -490.0, -490.0, -490.0, -490.0, -490.0, -490.0, -490.0, -490.0, -490.0, -490.0, -490.0, -490.0, -490.0, -490.0, -490.0, -490.0, -490.0, -493.0, -493.0, -494.0, -494.0, -494.0, -495.0, -495.0, -472.0, -416.0, -317.0, -176.0, -30.0, 108.0, 217.0, 297.0, 376.0, 393.0, 422.0, 429.0, 430.0, 434.0, 435.0, 435.0, 435.0, 440.0, 444.0, 444.0, 444.0, 451.0, 461.0, 461.0, 453.0, 442.0, 441.0, 441.0]	[0.013278986269142479, 0.019464284436253365, 0.04157209178811172, 0.04491101274470566, 0.05843224315322004, 0.07500430933578173, 0.0919637886545388, 0.10831467094976688, 0.12525879027089104, 0.14147791796858655, 0.15852409591025207, 0.1750101461293525, 0.19194743879052112, 0.20839321170933545, 0.22538750700914534, 0.24168616532551823, 0.2585667966850451, 0.27501632425992284, 0.29185838497505756, 0.30838539517571917, 0.32538242114242166, 0.34153635420807404, 0.35866342810186325, 0.3750525397117599, 0.3919260030743317, 0.40839089063956635, 0.42522749002091587, 0.4417029589167214, 0.4585665236154455, 0.4750546218419913, 0.49191579721082235, 0.5081062529206974, 0.5252681428028154, 0.5417357610349427, 0.5586054697341751, 0.5750765012999182, 0.5920339326185058, 0.6086589054393698, 0.6252565716058598, 0.6417525204960839, 0.6585229012416676, 0.6749939328074106, 0.6919066494810977, 0.7082240811287193, 0.7252893737240811, 0.7417300266388338, 0.7585857406738796, 0.7750666709034704, 0.7919288702687481, 0.8081179606451769, 0.8252061225648504, 0.8417938900747686, 0.8586601854403852]
19	inanimate/n9.jpg	animate	inanimate	right	0.998	[0.0, -2.0, -2.0, -2.0, -2.0, -2.0, -2.0, -2.0, -2.0, -2.0, -2.0, -2.0, -2.0, -2.0, -2.0, -2.0, -2.0, -2.0, -2.0, -2.0, -2.0, -2.0, -2.0, -2.0, -3.0, -24.0, -61.0, -115.0, -261.0, -378.0, -514.0, -633.0, -712.0, -765.0, -790.0, -802.0, -807.0, -807.0, -807.0, -803.0, -778.0, -733.0, -681.0, -648.0, -628.0, -614.0, -608.0, -607.0, -607.0, -600.0, -555.0, -378.0, -216.0, -44.0, 156.0, 355.0, 555.0, 723.0, 856.0, 940.0]	[-490.0, -494.0, -494.0, -494.0, -494.0, -494.0, -494.0, -494.0, -494.0, -494.0, -494.0, -494.0, -494.0, -494.0, -494.0, -494.0, -494.0, -494.0, -494.0, -494.0, -494.0, -494.0, -494.0, -494.0, -494.0, -490.0, -480.0, -468.0, -425.0, -381.0, -308.0, -232.0, -174.0, -121.0, -83.0, -35.0, 19.0, 74.0, 102.0, 121.0, 152.0, 196.0, 244.0, 276.0, 297.0, 302.0, 302.0, 302.0, 302.0, 302.0, 308.0, 332.0, 347.0, 347.0, 347.0, 347.0, 347.0, 351.0, 355.0, 355.0]	[0.014016607230587397, 0.020906417041260283, 0.026113795705896337, 0.04332825088931713, 0.05969312784873182, 0.07661096451920457, 0.09310145207564346, 0.10992610479297582, 0.12632204306282802, 0.1432917623751564, 0.1597133006362128, 0.17666629462473793, 0.19306871822482208, 0.20992750426376006, 0.22634221585758496, 0.24326892718818272, 0.25977852940559387, 0.2766301474403008, 0.2929902457326534, 0.3100910369757912, 0.3261063887766795, 0.34333654528745683, 0.359580931639357, 0.37660355758998776, 0.3930960931465961, 0.4099313271944993, 0.4263876814293326, 0.4432771874489845, 0.45971101370378165, 0.47671247700054664, 0.49308042594930157, 0.5099579853122123, 0.5261477583553642, 0.5431741389693343, 0.5596479012019699, 0.5765947511899867, 0.5927746255765669, 0.6098511821692227, 0.6263624910425278, 0.6432383437349927, 0.6597435086223413, 0.6766169719849131, 0.6932262434784207, 0.7099246029247297, 0.7263737891698838, 0.7432346232089913, 0.7597135054384125, 0.7765941367906635, 0.7931675683066715, 0.8099089357347111, 0.8263618766432046, 0.8431827746971976, 0.8597384568929556, 0.876583248267707, 0.8931047971418593, 0.9099202338620671, 0.9261437988898251, 0.9432282061461592, 0.9597101603721967, 0.9766167330453754]
20	animate/a77.jpg	animate	inanimate	left	0.9	[0.0, 1.0, 1.0, 1.0, 1.0, 1.0, 1.0, 1.0, 1.0, 1.0, 1.0, 1.0, 1.0, 1.0, 1.0, 1.0, 1.0, 1.0, 1.0, -3.0, -10.0, -14.0, -27.0, -48.0, -59.0, -75.0, -81.0, -71.0, -24.0, 52.0, 144.0, 277.0, 419.0, 544.0, 663.0, 778.0, 817.0, 838.0, 850.0, 851.0, 849.0, 815.0, 726.0, 593.0, 396.0, 158.0, -209.0, -433.0, -616.0, -760.0, -847.0, -902.0, -921.0, -922.0]	[-490.0, -490.0, -490.0, -490.0, -490.0, -490.0, -490.0, -490.0, -490.0, -490.0, -490.0, -490.0, -490.0, -490.0, -490.0, -490.0, -490.0, -490.0, -490.0, -490.0, -490.0, -490.0, -482.0, -455.0, -433.0, -391.0, -332.0, -253.0, -158.0, -64.0, 26.0, 115.0, 196.0, 247.0, 296.0, 337.0, 349.0, 359.0, 373.0, 384.0, 389.0, 393.0, 393.0, 393.0, 393.0, 406.0, 450.0, 482.0, 498.0, 506.0, 506.0, 508.0, 508.0, 508.0]	[0.004826519128982909, 0.010197737712587696, 0.024930700841650832, 0.04149218569364166, 0.0583779370499542, 0.07484896861569723, 0.09180264526366955, 0.10819482887745835, 0.12504235091182636, 0.14132872124173446, 0.15845852580241626, 0.17485070941620506, 0.19184705270890845, 0.2080600364060956, 0.22505876904324396, 0.24149225396104157, 0.2584121386316838, 0.2748357248856337, 0.29176789755001664, 0.30819933447492076, 0.32510044582159026, 0.3416093653650023, 0.35843777275294997, 0.374841903016204, 0.3918262996521662, 0.40805908067704877, 0.4249578026938252, 0.4414936875618878, 0.45835930025350535, 0.47483545182331, 0.49178230181132676, 0.5082413867203286, 0.525059554107429, 0.541376644418051, 0.5583784490445396, 0.57487576326821, 0.5918792745578685, 0.6081639382246067, 0.625039449580072, 0.6414606465114048, 0.6583723391813692, 0.6748409814172192, 0.6917810047452804, 0.7082018603396136, 0.7250196863897145, 0.7412415447543026, 0.7583030826863251, 0.7749389781674836, 0.7917083349166205, 0.8083199957400211, 0.8250504405077663, 0.8415207894140622, 0.8583915221097413, 0.8747840470459778]
21	inanimate/n15.jpg	animate	inanimate	right	0.852	[0.0, 0.0, 0.0, 0.0, 0.0, -1.0, -4.0, -8.0, -10.0, -11.0, -14.0, -18.0, -18.0, -18.0, -18.0, -18.0, -18.0, -18.0, -18.0, -18.0, -18.0, -18.0, -18.0, -18.0, -19.0, -39.0, -97.0, -190.0, -304.0, -424.0, -562.0, -617.0, -651.0, -663.0, -667.0, -667.0, -667.0, -664.0, -649.0, -618.0, -572.0, -497.0, -298.0, -114.0, 88.0, 302.0, 480.0, 637.0, 761.0, 836.0, 857.0, 860.0]	[-490.0, -490.0, -491.0, -491.0, -491.0, -491.0, -491.0, -491.0, -491.0, -491.0, -492.0, -493.0, -493.0, -493.0, -493.0, -493.0, -493.0, -493.0, -493.0, -493.0, -493.0, -493.0, -493.0, -493.0, -494.0, -502.0, -504.0, -470.0, -414.0, -329.0, -186.0, -99.0, -16.0, 42.0, 90.0, 126.0, 157.0, 178.0, 192.0, 205.0, 225.0, 254.0, 308.0, 335.0, 362.0, 368.0, 371.0, 373.0, 385.0, 394.0, 394.0, 394.0]	[0.009485034082899801, 0.015041596569062676, 0.019937338060117327, 0.034448434635123704, 0.050938239524839446, 0.06780214555328712, 0.08432232909399318, 0.1011923791229492, 0.11740706949058222, 0.13454301805177238, 0.150967628309445, 0.16784621166880243, 0.18435752054210752, 0.20128389054298168, 0.2176265808448079, 0.23456011884263717, 0.25094445178547176, 0.26786706712300656, 0.28427870672021527, 0.3013149859980331, 0.3176467536322889, 0.33453694231866393, 0.3509407312521944, 0.3678455972622032, 0.3843497381458292, 0.4012866894772742, 0.41764508109918097, 0.4345380004524486, 0.4509977680281736, 0.4678190074118902, 0.48434738295327406, 0.5013252942590043, 0.517721573865856, 0.5344854692812078, 0.5509725435040309, 0.5679187108253245, 0.5843641424071393, 0.6013195257255575, 0.6176492453669198, 0.6345500153765897, 0.6506978044417338, 0.667872323654592, 0.6843590565404156, 0.7012584612239152, 0.7177001381423906, 0.7345251321894466, 0.7509244837929145, 0.7678668964581448, 0.7843601146742003, 0.8012547406906378, 0.8175687590046437, 0.8345476943140966]
22	animate/a28.jpg	inanimate	animate	right	0.868	[0.0, 0.0, 0.0, 0.0, 0.0, 0.0, 0.0, 0.0, 0.0, 0.0, 0.0, 0.0, 0.0, 0.0, 0.0, 0.0, 2.0, 11.0, 24.0, 30.0, 32.0, 32.0, 32.0, 32.0, 32.0, 32.0, 28.0, -14.0, -97.0, -208.0, -324.0, -448.0, -569.0, -660.0, -710.0, -730.0, -748.0, -755.0, -758.0, -757.0, -731.0, -661.0, -550.0, -388.0, -200.0, 17.0, 241.0, 457.0, 743.0, 896.0, 959.0, 959.0]	[-490.0, -490.0, -490.0, -490.0, -490.0, -490.0, -490.0, -490.0, -490.0, -490.0, -490.0, -490.0, -490.0, -490.0, -490.0, -490.0, -490.0, -493.0, -496.0, -497.0, -497.0, -497.0, -497.0, -497.0, -497.0, -497.0, -497.0, -479.0, -431.0, -348.0, -253.0, -132.0, -5.0, 108.0, 173.0, 210.0, 264.0, 296.0, 313.0, 323.0, 330.0, 348.0, 364.0, 385.0, 407.0, 416.0, 416.0, 418.0, 423.0, 440.0, 444.0, 444.0]	[0.0046811112042632885, 0.011079401265305933, 0.024370573126361705, 0.041470681702776346, 0.05771984671446262, 0.07466021137952339, 0.09101109367475146, 0.10795623699959833, 0.12437470325676259, 0.14135602789610857, 0.15769359820114914, 0.17464283751905896, 0.1909053145282087, 0.20790404715808108, 0.2243371907461551, 0.24129359806102002, 0.2576881709974259, 0.2745885996846482, 0.29113984454306774, 0.30794367593625793, 0.32439593417802826, 0.341345173503214, 0.3577182424487546, 0.37463983378984267, 0.3910596653804532, 0.40789489942835644, 0.4243847043180722, 0.4412841090015718, 0.4576694659408531, 0.4745634092905675, 0.4908975662619923, 0.5078358829268836, 0.5243837144516874, 0.5413527510972926, 0.557446268190688, 0.5745610540980124, 0.5910365229938179, 0.6080175062961644, 0.6244110552361235, 0.6413067052562837, 0.6575493849377381, 0.6745173975868965, 0.6908474585579825, 0.7078209325336502, 0.724411430703185, 0.7413753473520046, 0.757765482958348, 0.7746280236606253, 0.7910389805911109, 0.8078946946261567, 0.8245305901073152, 0.8413979094766546]
23	animate/a9.jpg	inanimate	animate	right	0.848	[0.0, 0.0, 0.0, 0.0, 0.0, 0.0, 0.0, 0.0, 0.0, 0.0, 0.0, 0.0, 0.0, 0.0, 0.0, 0.0, -38.0, -88.0, -127.0, -210.0, -248.0, -376.0, -457.0, -548.0, -631.0, -696.0, -738.0, -756.0, -765.0, -773.0, -773.0, -760.0, -695.0, -640.0, -614.0, -598.0, -591.0, -590.0, -590.0, -590.0, -589.0, -553.0, -438.0, -177.0, -73.0, 259.0, 480.0, 685.0, 830.0, 920.0, 945.0]	[-490.0, -490.0, -490.0, -490.0, -490.0, -490.0, -490.0, -490.0, -490.0, -490.0, -490.0, -490.0, -490.0, -490.0, -490.0, -490.0, -485.0, -485.0, -484.0, -463.0, -452.0, -397.0, -345.0, -270.0, -185.0, -88.0, 2.0, 77.0, 145.0, 204.0, 243.0, 286.0, 346.0, 375.0, 390.0, 400.0, 406.0, 409.0, 414.0, 420.0, 431.0, 445.0, 472.0, 513.0, 524.0, 524.0, 524.0, 524.0, 524.0, 524.0, 524.0]	[0.0129298024403397, 0.018865244739572518, 0.024628313789435197, 0.04083412948966725, 0.057833886123262346, 0.07429911502549658, 0.09130808764894027, 0.10761664462916087, 0.1245945559348911, 0.14095328889379743, 0.15784620824706508, 0.17411448791972362, 0.1911248258766136, 0.20764978807710577, 0.22451744877616875, 0.24095673635747517, 0.2578117677330738, 0.27404966874746606, 0.29125661460420815, 0.307622174230346, 0.3245120215797215, 0.34092161317676073, 0.35780599919962697, 0.3744630573419272, 0.3912870273925364, 0.4075938777095871, 0.42452605037397007, 0.4409209646473755, 0.457819686656876, 0.47429754488985054, 0.49126112020167056, 0.5074522585782688, 0.5244410925515695, 0.5410602627089247, 0.5579996033702628, 0.5743320536712417, 0.5912140503642149, 0.6075635673259967, 0.6245192919741385, 0.6409684782192926, 0.657797909603687, 0.6742870318266796, 0.6912410498116515, 0.7076776067333412, 0.724481779463531, 0.7409398403688101, 0.7578030637378106, 0.7743095939513296, 0.791263953273301, 0.8075670489197364, 0.8243684909903095]
24	animate/a48.jpg	inanimate	animate	right	0.849	[0.0, 0.0, 0.0, 0.0, 0.0, 0.0, 0.0, 0.0, 0.0, 0.0, 0.0, 0.0, 0.0, 0.0, 0.0, 0.0, 0.0, 0.0, 0.0, 0.0, 0.0, 0.0, 0.0, 0.0, -14.0, -46.0, -110.0, -156.0, -206.0, -281.0, -373.0, -474.0, -562.0, -622.0, -649.0, -666.0, -676.0, -684.0, -691.0, -667.0, -577.0, -427.0, -251.0, -42.0, 183.0, 407.0, 618.0, 791.0, 921.0, 959.0, 959.0]	[-490.0, -490.0, -490.0, -490.0, -490.0, -490.0, -490.0, -490.0, -490.0, -490.0, -490.0, -490.0, -490.0, -490.0, -490.0, -490.0, -490.0, -490.0, -490.0, -490.0, -490.0, -490.0, -490.0, -489.0, -492.0, -501.0, -505.0, -501.0, -473.0, -409.0, -307.0, -189.0, -84.0, -5.0, 40.0, 72.0, 94.0, 117.0, 139.0, 174.0, 225.0, 284.0, 333.0, 383.0, 424.0, 458.0, 469.0, 472.0, 472.0, 472.0, 472.0]	[0.002110531182552222, 0.008417343953624368, 0.019414074326050468, 0.035996380502183456, 0.05295312915404793, 0.06931254477967741, 0.08623174678359646, 0.10263724238029681, 0.11956463638489367, 0.1360254279570654, 0.15290469397587003, 0.16910607235331554, 0.1862310982469353, 0.2027645937851048, 0.2195841265056515, 0.23598347810911946, 0.2529658267449122, 0.26934299169806764, 0.28622635371721117, 0.3025106760469498, 0.3195206726741162, 0.33602242422057316, 0.3529153435738408, 0.3692597405388369, 0.3862018118670676, 0.402420256890764, 0.4195036401433754, 0.4361173489742214, 0.4530385989783099, 0.4694068892640644, 0.48627659795602085, 0.5025107443143497, 0.5195415622583823, 0.5360303431516513, 0.552932137165044, 0.569345142095699, 0.5861493148258887, 0.6027005596843082, 0.6195887003705138, 0.6360822599235689, 0.6530110192543361, 0.6693827228737064, 0.6862118129283772, 0.7026565618361929, 0.7194477639059187, 0.7360099314319086, 0.7529543920900323, 0.7693776370142587, 0.7862118470584392, 0.8026504519730224, 0.8195744326440035]
25	animate/a2.jpg	inanimate	animate	right	0.9	[0.0, 0.0, 0.0, 0.0, 0.0, 0.0, 0.0, 0.0, 0.0, 0.0, 0.0, 0.0, 0.0, 0.0, 0.0, 0.0, 0.0, 0.0, -1.0, -1.0, -8.0, -25.0, -51.0, -93.0, -142.0, -203.0, -286.0, -386.0, -516.0, -577.0, -631.0, -674.0, -718.0, -753.0, -788.0, -804.0, -804.0, -786.0, -759.0, -747.0, -746.0, -747.0, -747.0, -736.0, -681.0, -552.0, -374.0, -150.0, 116.0, 386.0, 654.0, 880.0, 959.0, 959.0, 959.0]	[-490.0, -490.0, -490.0, -490.0, -490.0, -490.0, -490.0, -490.0, -490.0, -490.0, -490.0, -490.0, -490.0, -490.0, -490.0, -490.0, -490.0, -490.0, -489.0, -489.0, -490.0, -494.0, -497.0, -500.0, -500.0, -487.0, -453.0, -409.0, -325.0, -277.0, -228.0, -175.0, -92.0, -1.0, 97.0, 164.0, 200.0, 252.0, 317.0, 370.0, 410.0, 426.0, 435.0, 447.0, 469.0, 498.0, 522.0, 522.0, 522.0, 522.0, 504.0, 481.0, 466.0, 463.0, 463.0]	[0.011091689259046689, 0.016435259858553763, 0.023415864277922083, 0.036937094693712424, 0.05406109659088543, 0.07054578148381552, 0.08739842352224514, 0.10367523651802912, 0.12076305710797897, 0.1369381528274971, 0.15423043197370134, 0.17042225301702274, 0.1874885696088313, 0.20367936665570596, 0.2207866432290757, 0.23716858684201725, 0.25407106352213304, 0.2705369750910904, 0.28740736644977005, 0.3038968300097622, 0.3207296747204964, 0.3371484823146602, 0.3540625643217936, 0.37054315322166076, 0.3873934059229214, 0.4039067628036719, 0.42076623150205705, 0.4372280470779515, 0.45420971304702107, 0.47034657945187064, 0.4873879787264741, 0.5038852929501445, 0.520750905649038, 0.537143771922274, 0.5539974379571504, 0.5706275307748001, 0.5874484288287931, 0.6038795244166977, 0.620768689106626, 0.637143806052336, 0.6540613013930852, 0.6705408662892296, 0.6874959082706482, 0.703693873314478, 0.7206588139597443, 0.7371820694970665, 0.7540548501929152, 0.7702831938877353, 0.787443718429131, 0.8038659393569105, 0.820729162725911, 0.8372329622725374, 0.8541385109492694, 0.8705457132164156, 0.8875693631707691]
26	inanimate/n39.jpg	animate	inanimate	right	1.047	[0.0, 0.0, 0.0, 0.0, 0.0, 0.0, 0.0, 0.0, 0.0, 0.0, 0.0, 0.0, 0.0, 0.0, 0.0, 0.0, 0.0, 0.0, 0.0, 0.0, 0.0, 0.0, 0.0, 0.0, 0.0, 0.0, -5.0, -10.0, -14.0, -24.0, -40.0, -63.0, -116.0, -180.0, -264.0, -345.0, -432.0, -522.0, -638.0, -677.0, -689.0, -693.0, -695.0, -698.0, -698.0, -699.0, -701.0, -702.0, -702.0, -702.0, -680.0, -595.0, -441.0, -217.0, 43.0, 298.0, 539.0, 760.0, 938.0, 959.0, 959.0, 959.0, 959.0]	[-490.0, -490.0, -490.0, -490.0, -490.0, -490.0, -490.0, -490.0, -490.0, -490.0, -490.0, -490.0, -490.0, -490.0, -490.0, -490.0, -490.0, -490.0, -490.0, -490.0, -490.0, -490.0, -490.0, -490.0, -490.0, -490.0, -487.0, -484.0, -481.0, -474.0, -467.0, -448.0, -382.0, -289.0, -183.0, -79.0, 41.0, 163.0, 301.0, 347.0, 369.0, 386.0, 398.0, 407.0, 412.0, 416.0, 420.0, 422.0, 425.0, 426.0, 429.0, 425.0, 403.0, 378.0, 355.0, 332.0, 322.0, 322.0, 322.0, 337.0, 344.0, 344.0, 345.0]	[0.003450946504017338, 0.009172031575872097, 0.02163888385257451, 0.03876117908657761, 0.0552311866558739, 0.07210430868144613, 0.08856168692727806, 0.10549078758776886, 0.12188877385779051, 0.13877452521410305, 0.15524589811684564, 0.17211526547907852, 0.18864159302029293, 0.20555192035681102, 0.22173042940994492, 0.23878309267456643, 0.25528757489519194, 0.27211393428297015, 0.28846174457430607, 0.30545603987411596, 0.3216628795780707, 0.33872646551026264, 0.3549831398486276, 0.37205833110783715, 0.38854574666765984, 0.40551375930954237, 0.4219424655675539, 0.4387746276188409, 0.4554385124138207, 0.4722259598202072, 0.4885314448038116, 0.5054236814903561, 0.5219377210378298, 0.5387688590853941, 0.5551938106727903, 0.5720966286899056, 0.5882737724023173, 0.6054595556051936, 0.621867440539063, 0.6387723065490718, 0.6553416420647409, 0.6721594681221177, 0.6885352677418268, 0.7054121444307384, 0.721907751983963, 0.7387760953497491, 0.7552443962485995, 0.7721280996047426, 0.7885882085101912, 0.8054831758636283, 0.8219006181243458, 0.8388037774711847, 0.8553567289927742, 0.8721042404213222, 0.8885428453359054, 0.9055193913081894, 0.9219371749059064, 0.9388420409159153, 0.9551246565752081, 0.972147965192562, 0.9886275300887064, 1.005607489394606, 1.0220184463250916]
27	inanimate/n55.jpg	animate	inanimate	right	0.833	[0.0, -3.0, -3.0, -3.0, -3.0, -3.0, -3.0, -3.0, -4.0, -4.0, -4.0, -4.0, -4.0, -4.0, -4.0, -2.0, 4.0, 20.0, 43.0, 62.0, 74.0, 83.0, 93.0, 94.0, 94.0, 94.0, 94.0, 88.0, 72.0, 47.0, 2.0, -72.0, -171.0, -281.0, -470.0, -584.0, -645.0, -684.0, -716.0, -726.0, -710.0, -616.0, -464.0, -269.0, -43.0, 175.0, 475.0, 623.0, 715.0, 748.0, 756.0]	[-490.0, -490.0, -490.0, -490.0, -490.0, -490.0, -490.0, -490.0, -490.0, -490.0, -489.0, -489.0, -489.0, -489.0, -489.0, -489.0, -486.0, -481.0, -473.0, -470.0, -469.0, -467.0, -466.0, -466.0, -466.0, -466.0, -466.0, -466.0, -466.0, -466.0, -455.0, -430.0, -378.0, -309.0, -178.0, -102.0, -42.0, 13.0, 81.0, 142.0, 224.0, 315.0, 396.0, 469.0, 520.0, 540.0, 540.0, 540.0, 528.0, 524.0, 521.0]	[0.008856298394675832, 0.013609362627903465, 0.018613989399455022, 0.03296397672238527, 0.049479722933028825, 0.0663388503016904, 0.08281022319715703, 0.0996516012455686, 0.11614072346856119, 0.13303364282182883, 0.14946030107239494, 0.1663719937496353, 0.18252626814501127, 0.19963217938493472, 0.21609262962738285, 0.2329858903103741, 0.24943166322191246, 0.26638704654033063, 0.28278400881390553, 0.2996376748487819, 0.31614045039896155, 0.3330374657525681, 0.34944432668271475, 0.36634953402972315, 0.38253862440615194, 0.39960562366468366, 0.41609611122112256, 0.43299995323468465, 0.44952047811239026, 0.4663581014901865, 0.4826472024869872, 0.49965856444032397, 0.5161688493171823, 0.5330525526733254, 0.5493095683559659, 0.5663571116238018, 0.5829837911078357, 0.5996845398913138, 0.6161200728092808, 0.6329686188546475, 0.6494307757602655, 0.6663103831160697, 0.6827769773517502, 0.6996381527205813, 0.7161576535945642, 0.73296660498454, 0.7494523138811928, 0.7663404545673984, 0.7829155927465763, 0.7996880214923294, 0.816136866400484]
28	animate/a80.jpg	inanimate	animate	right	0.866	[0.0, 0.0, 0.0, 0.0, 2.0, 5.0, 5.0, 5.0, 5.0, 5.0, 5.0, 5.0, 5.0, 5.0, 5.0, 5.0, 8.0, 9.0, 11.0, 13.0, 16.0, 16.0, 16.0, 13.0, -13.0, -40.0, -75.0, -112.0, -147.0, -177.0, -192.0, -193.0, -174.0, -124.0, -31.0, 93.0, 232.0, 358.0, 453.0, 492.0, 488.0, 446.0, 355.0, 334.0, 299.0, 299.0, 321.0, 401.0, 520.0, 636.0, 748.0, 824.0]	[-490.0, -490.0, -490.0, -490.0, -488.0, -488.0, -488.0, -488.0, -488.0, -488.0, -488.0, -488.0, -488.0, -488.0, -488.0, -487.0, -485.0, -485.0, -484.0, -484.0, -484.0, -484.0, -484.0, -482.0, -482.0, -482.0, -482.0, -481.0, -475.0, -463.0, -448.0, -431.0, -376.0, -308.0, -215.0, -107.0, 13.0, 117.0, 201.0, 251.0, 274.0, 296.0, 326.0, 331.0, 345.0, 355.0, 369.0, 383.0, 399.0, 413.0, 438.0, 459.0]	[0.002834840153809637, 0.008010816171008628, 0.020419300482899416, 0.0375071210655733, 0.053990781962056644, 0.07087311998475343, 0.08726666892471258, 0.10421215357928304, 0.12058965986216208, 0.13755494184442796, 0.15397852809837786, 0.17089192743878812, 0.18731824435963063, 0.20419716905598762, 0.22063577397057088, 0.23752323199005332, 0.25402293554361677, 0.2709731988652493, 0.28706398529175203, 0.3041596565381042, 0.32063273610401666, 0.3374966421397403, 0.3540390123380348, 0.37101965431065764, 0.3873104619633523, 0.404228298641101, 0.42065393289522035, 0.4375099882672657, 0.4539588331754203, 0.4709046591669903, 0.4872917227767175, 0.5042078527840204, 0.5206836630095495, 0.5375462037118268, 0.5541046165672014, 0.5709292692845338, 0.587283223583654, 0.6041614656060119, 0.6205830038670683, 0.6374868458733545, 0.6539991787576582, 0.6709743593964959, 0.6872818923802697, 0.7042338623650721, 0.7206274113050313, 0.7375107733314508, 0.754036418205942, 0.7710054548515473, 0.7872167318782886, 0.8041550485431799, 0.8206240321087535, 0.8374971541343257]
29	inanimate/n11.jpg	animate	inanimate	right	0.866	[0.0, 0.0, 0.0, 0.0, 0.0, 0.0, 0.0, 0.0, 0.0, 0.0, 0.0, 0.0, 0.0, 0.0, 0.0, 0.0, 0.0, 0.0, 0.0, 0.0, 1.0, 1.0, 1.0, 1.0, 1.0, -2.0, -15.0, -30.0, -53.0, -88.0, -127.0, -199.0, -262.0, -330.0, -395.0, -458.0, -530.0, -606.0, -687.0, -732.0, -732.0, -686.0, -565.0, -285.0, -61.0, 190.0, 419.0, 632.0, 781.0, 868.0, 892.0, 893.0]	[-490.0, -490.0, -490.0, -490.0, -490.0, -490.0, -490.0, -490.0, -490.0, -490.0, -490.0, -490.0, -490.0, -490.0, -490.0, -490.0, -490.0, -490.0, -490.0, -490.0, -490.0, -490.0, -490.0, -490.0, -492.0, -498.0, -507.0, -512.0, -514.0, -514.0, -508.0, -476.0, -431.0, -355.0, -252.0, -155.0, -57.0, 15.0, 102.0, 182.0, 237.0, 278.0, 328.0, 402.0, 436.0, 466.0, 500.0, 535.0, 540.0, 540.0, 540.0, 540.0]	[0.0003905533958459273, 0.006527723591716494, 0.0159123374542105, 0.03267247820622288, 0.04955345089547336, 0.06603540512151085, 0.08287302849930711, 0.09902320690162014, 0.11613014213799033, 0.13260458703734912, 0.14950638105074177, 0.16582790869870223, 0.18286452930624364, 0.1992608089130954, 0.21624384021561127, 0.2324134746013442, 0.2494019672376453, 0.2658064388378989, 0.2828840194270015, 0.2992775683669606, 0.316189261044201, 0.33240190341166453, 0.3495016706510796, 0.3660030808750889, 0.3829089708815445, 0.3993182211488602, 0.41629681512131356, 0.4324271961959312, 0.4495109207855421, 0.4657290244795149, 0.4828571223770268, 0.49931654861575225, 0.5162415532831801, 0.5327279448392801, 0.5494283522930345, 0.5659475118372939, 0.5829015298222657, 0.5993309187397244, 0.6162149634328671, 0.6323818671517074, 0.6494403330871137, 0.6659540312975878, 0.6829322839403176, 0.6993251502135536, 0.7162788268615259, 0.7327669250880717, 0.7495451564973337, 0.7659598680911586, 0.7828336727907299, 0.7993036803527502, 0.8162648663419532, 0.8327120045869378]
30	inanimate/n51.jpg	inanimate	animate	left	0.849	[0.0, 0.0, 0.0, 0.0, 0.0, -6.0, -7.0, -8.0, -8.0, -8.0, -8.0, -8.0, -2.0, 7.0, 7.0, 7.0, 7.0, 7.0, 7.0, 7.0, 7.0, 7.0, 7.0, 7.0, -12.0, -54.0, -83.0, -108.0, -148.0, -207.0, -264.0, -322.0, -357.0, -379.0, -387.0, -387.0, -358.0, -295.0, -241.0, -207.0, -198.0, -205.0, -257.0, -379.0, -558.0, -753.0, -912.0, -960.0, -960.0, -960.0, -960.0]	[-490.0, -490.0, -490.0, -490.0, -490.0, -491.0, -492.0, -492.0, -492.0, -492.0, -492.0, -492.0, -492.0, -488.0, -488.0, -488.0, -488.0, -488.0, -488.0, -488.0, -488.0, -488.0, -488.0, -488.0, -490.0, -491.0, -491.0, -491.0, -484.0, -458.0, -424.0, -367.0, -297.0, -218.0, -143.0, -80.0, 5.0, 132.0, 201.0, 239.0, 257.0, 269.0, 292.0, 329.0, 389.0, 459.0, 503.0, 530.0, 540.0, 540.0, 540.0]	[0.002817773500282783, 0.010013759143475909, 0.020746297654113732, 0.03743236910668202, 0.05432562978967326, 0.07076730670814868, 0.0877203006966738, 0.10409985497244634, 0.12101393697957974, 0.13737301126820967, 0.1543720852350816, 0.17081273814983433, 0.18767118285177276, 0.20416917973489035, 0.22114026438066503, 0.2375713599685696, 0.2543949886894552, 0.27080560429021716, 0.287679067645513, 0.3041719445391209, 0.32101434657670325, 0.3374980074731866, 0.35437044683203567, 0.3707663851091638, 0.38768319777591387, 0.4041699306690134, 0.4210464660282014, 0.4376045375538524, 0.4544319209380774, 0.4707865578966448, 0.4876630932558328, 0.5041255914911744, 0.5210045161875314, 0.5374496064323466, 0.5544036244173185, 0.5708142400180805, 0.5876849727137596, 0.6041935509274481, 0.6210270783049054, 0.6375575018464588, 0.6544982078339672, 0.6707719488404109, 0.6876638441899559, 0.7041638890732429, 0.7209970751209767, 0.7375165759949596, 0.7544146153450129, 0.7709071509016212, 0.7876765076507581, 0.8041632405438577, 0.8209711679373868]
31	animate/a35.jpg	inanimate	animate	right	0.846	[0.0, 1.0, 0.0, -5.0, -22.0, -48.0, -66.0, -70.0, -70.0, -70.0, -70.0, -70.0, -70.0, -70.0, -70.0, -70.0, -70.0, -70.0, -76.0, -97.0, -149.0, -282.0, -393.0, -514.0, -637.0, -761.0, -880.0, -960.0, -960.0, -960.0, -960.0, -953.0, -903.0, -815.0, -686.0, -615.0, -566.0, -543.0, -539.0, -538.0, -531.0, -500.0, -405.0, -248.0, -41.0, 316.0, 546.0, 757.0, 910.0, 959.0, 959.0]	[-490.0, -491.0, -493.0, -497.0, -503.0, -508.0, -512.0, -513.0, -513.0, -513.0, -513.0, -513.0, -513.0, -513.0, -513.0, -513.0, -513.0, -513.0, -515.0, -517.0, -524.0, -539.0, -539.0, -530.0, -499.0, -444.0, -366.0, -247.0, -108.0, 36.0, 163.0, 270.0, 355.0, 419.0, 483.0, 508.0, 520.0, 527.0, 528.0, 529.0, 530.0, 533.0, 533.0, 533.0, 533.0, 540.0, 540.0, 540.0, 540.0, 540.0, 540.0]	[0.003972503567638341, 0.009599039352906402, 0.022917176531336736, 0.03984969053271925, 0.0562538207959733, 0.07323241476842668, 0.08965497702592984, 0.10654823771619704, 0.12273357342928648, 0.13983641267259372, 0.15623815360595472, 0.173238592898997, 0.18936487798055168, 0.20638101860095048, 0.2229022261381033, 0.23979207349475473, 0.25627368638379266, 0.2732782216844498, 0.28955844801384956, 0.3064779913474922, 0.322771871004079, 0.3397613876441028, 0.35612012059573317, 0.37311441589554306, 0.38955950614763424, 0.4064746121512144, 0.4228661130910041, 0.4397098804693087, 0.45630754663579864, 0.4731216180298361, 0.4896308789102477, 0.5064340276367147, 0.5227446326243808, 0.5398341598702245, 0.5563014367726282, 0.5732346334334579, 0.5896882570159505, 0.6064695604218286, 0.6229624373081606, 0.6398109833462513, 0.6560021217228496, 0.6731664009348606, 0.6892844940157374, 0.7064897332093096, 0.7229587167748832, 0.7397584521750105, 0.7562724917224841, 0.773161997742136, 0.7896804746196722, 0.8065129780006828, 0.8228870709499461]
32	animate/a50.jpg	inanimate	animate	right	1.017	[0.0, 0.0, 0.0, 0.0, 0.0, 0.0, 0.0, 0.0, 0.0, 1.0, 1.0, 1.0, 1.0, 1.0, 1.0, 1.0, 1.0, 1.0, 1.0, 1.0, 1.0, 1.0, -2.0, -16.0, -52.0, -108.0, -200.0, -303.0, -402.0, -512.0, -619.0, -768.0, -830.0, -870.0, -890.0, -891.0, -891.0, -875.0, -856.0, -841.0, -835.0, -835.0, -844.0, -870.0, -879.0, -884.0, -886.0, -886.0, -876.0, -826.0, -723.0, -567.0, -357.0, 13.0, 285.0, 527.0, 735.0, 892.0, 959.0, 959.0, 959.0]	[-490.0, -490.0, -490.0, -490.0, -490.0, -490.0, -490.0, -490.0, -490.0, -490.0, -490.0, -490.0, -490.0, -490.0, -490.0, -490.0, -490.0, -490.0, -490.0, -490.0, -490.0, -490.0, -490.0, -490.0, -500.0, -503.0, -503.0, -503.0, -484.0, -438.0, -376.0, -250.0, -160.0, -71.0, 27.0, 120.0, 196.0, 266.0, 334.0, 393.0, 431.0, 458.0, 480.0, 513.0, 525.0, 533.0, 538.0, 540.0, 540.0, 540.0, 540.0, 540.0, 540.0, 540.0, 534.0, 509.0, 482.0, 456.0, 442.0, 441.0, 441.0]	[0.014877790788887069, 0.020769201102666557, 0.028196951971040107, 0.045141412629163824, 0.06212819859501906, 0.07851492087502265, 0.09536039491649717, 0.11176964517653687, 0.12861546055501094, 0.145144518755842, 0.1620452887727879, 0.17841357905854238, 0.19529728241468547, 0.21173895932588493, 0.22861583602207247, 0.2450506862733164, 0.2620313282459392, 0.27840337319503305, 0.29530550854542525, 0.3117594734503655, 0.3286319128164905, 0.34515107235347386, 0.3620538903705892, 0.3783747353445506, 0.3952792600248358, 0.4117929582353099, 0.42857118964457186, 0.4450958105153404, 0.4619938498653937, 0.4783863748089061, 0.4953209368031821, 0.5118237123533618, 0.5286292504169978, 0.5451409006273025, 0.5620225559832761, 0.5783515929579153, 0.5952701122951112, 0.6118397891405039, 0.6286070978894713, 0.644949446861574, 0.662008936793427, 0.6783963417328778, 0.6953414850577246, 0.7116537967085605, 0.72861942002055, 0.7452020675264066, 0.7621359468612354, 0.7783656558822258, 0.7953831618360709, 0.8117702254457981, 0.8286412994712009, 0.845130763031193, 0.8620554263688973, 0.8783810500099207, 0.8952951320170541, 0.9117409049285925, 0.9286109549575485, 0.9450932505205856, 0.9620455618351116, 0.9783554841560544, 0.995305747477687]
33	inanimate/n52.jpg	inanimate	animate	left	0.897	[0.0, 0.0, 0.0, 0.0, -2.0, -8.0, -10.0, -10.0, -10.0, -11.0, -11.0, -11.0, -11.0, -11.0, -11.0, -11.0, -11.0, -11.0, -16.0, -27.0, -53.0, -90.0, -163.0, -252.0, -370.0, -513.0, -671.0, -816.0, -937.0, -960.0, -960.0, -960.0, -950.0, -926.0, -886.0, -811.0, -718.0, -648.0, -620.0, -605.0, -602.0, -593.0, -571.0, -542.0, -512.0, -496.0, -493.0, -508.0, -582.0, -671.0, -765.0, -833.0, -853.0, -856.0]	[-490.0, -490.0, -490.0, -490.0, -490.0, -487.0, -487.0, -487.0, -487.0, -487.0, -487.0, -487.0, -487.0, -487.0, -484.0, -484.0, -484.0, -484.0, -484.0, -484.0, -484.0, -478.0, -469.0, -446.0, -397.0, -309.0, -185.0, -53.0, 79.0, 240.0, 320.0, 363.0, 389.0, 423.0, 464.0, 513.0, 540.0, 540.0, 540.0, 540.0, 540.0, 540.0, 540.0, 540.0, 540.0, 540.0, 534.0, 524.0, 512.0, 506.0, 506.0, 506.0, 505.0, 504.0]	[0.01397223391541047, 0.018962183363328222, 0.02619093699468067, 0.043073957684100606, 0.059933767712209374, 0.07641026061173761, 0.09331103062868351, 0.10970184890175005, 0.12665825621661497, 0.14312655712274136, 0.15998807382129598, 0.1761928655250813, 0.1932537207903806, 0.20981349897920154, 0.2267460129733081, 0.2430668579545454, 0.25997650262434036, 0.2765021474988316, 0.2932779895782005, 0.3098265037697274, 0.32668597247538855, 0.34309385740198195, 0.35997721942840144, 0.3764421069936361, 0.3933756449914654, 0.4097838712623343, 0.42670785192603944, 0.44281809434323804, 0.4600762401751126, 0.47646091445494676, 0.49331287382665323, 0.5098538786915014, 0.5266539554213523, 0.5430840270128101, 0.5599540770417661, 0.5764315939377411, 0.5932750199790462, 0.6097399075515568, 0.6266246349041467, 0.6428232826074236, 0.6598660472154734, 0.676424460070848, 0.6932569634518586, 0.70978090166318, 0.7266448076916276, 0.7430953592702281, 0.7600176332707633, 0.7762190116409329, 0.7933020535638207, 0.8094952399405884, 0.8266141218409757, 0.8430875427438878, 0.8599811447566026, 0.876471973650041]
34	inanimate/n45.jpg	animate	inanimate	left	0.632	[0.0, 0.0, 0.0, 0.0, 0.0, 0.0, 0.0, 0.0, 0.0, 0.0, 0.0, 3.0, 11.0, 13.0, 14.0, 14.0, 14.0, 14.0, 13.0, -11.0, -69.0, -174.0, -287.0, -496.0, -626.0, -742.0, -841.0, -908.0, -956.0, -960.0, -960.0, -960.0, -960.0, -957.0, -946.0, -924.0, -899.0, -879.0]	[-490.0, -490.0, -490.0, -490.0, -490.0, -490.0, -490.0, -490.0, -490.0, -490.0, -490.0, -490.0, -486.0, -484.0, -484.0, -484.0, -484.0, -484.0, -484.0, -484.0, -484.0, -470.0, -439.0, -371.0, -305.0, -227.0, -133.0, -35.0, 70.0, 189.0, 296.0, 390.0, 440.0, 470.0, 494.0, 528.0, 540.0, 540.0]	[0.014202633792592678, 0.020540849218377843, 0.026595416784402914, 0.043526224115339573, 0.060408220801036805, 0.07690314569481416, 0.09386194233957212, 0.11025446728308452, 0.12714192530256696, 0.14355629556666827, 0.16052601487899665, 0.1769574517966248, 0.19381043517205399, 0.21018316278787097, 0.22711465278553078, 0.24357612702442566, 0.2604912330280058, 0.2769069686255534, 0.2937377653361182, 0.3102156235690927, 0.32711024958553025, 0.3432822733084322, 0.3604752245009877, 0.37674862417043187, 0.3936674848446273, 0.409974335161678, 0.42710106772574363, 0.4435540086342371, 0.46051007461937843, 0.47689099422859726, 0.49377162558812415, 0.509976758621633, 0.5270826698688325, 0.5434564214810962, 0.5604828021023422, 0.5769306230140501, 0.5938156916963635, 0.6102310859641875]
35	animate/a40.jpg	animate	inanimate	left	0.86	[0.0, 0.0, 0.0, 0.0, 0.0, 0.0, 0.0, 0.0, 0.0, 0.0, 0.0, 0.0, 0.0, 0.0, 0.0, 0.0, 0.0, 0.0, 0.0, 0.0, 0.0, 0.0, 0.0, 0.0, 0.0, 0.0, -9.0, -30.0, -58.0, -106.0, -173.0, -259.0, -344.0, -436.0, -528.0, -615.0, -674.0, -655.0, -584.0, -473.0, -396.0, -380.0, -380.0, -391.0, -455.0, -556.0, -672.0, -776.0, -852.0, -863.0, -863.0, -863.0]	[-490.0, -490.0, -490.0, -490.0, -490.0, -490.0, -490.0, -490.0, -490.0, -490.0, -490.0, -490.0, -490.0, -490.0, -490.0, -490.0, -490.0, -490.0, -490.0, -490.0, -490.0, -490.0, -490.0, -490.0, -490.0, -490.0, -491.0, -491.0, -491.0, -486.0, -460.0, -411.0, -344.0, -244.0, -121.0, 19.0, 158.0, 196.0, 249.0, 300.0, 328.0, 330.0, 330.0, 329.0, 326.0, 329.0, 347.0, 365.0, 376.0, 377.0, 378.0, 378.0]	[0.0029235867768875323, 0.00833815467194654, 0.020747662987560034, 0.03769963297236245, 0.053927635330182966, 0.0710219412430888, 0.08743665284418967, 0.10433981218375266, 0.12082415574695915, 0.1377518910812796, 0.15411813336686464, 0.17101378337974893, 0.1875479615846416, 0.2043732969686971, 0.22083954987465404, 0.23771813323401147, 0.2538765036224504, 0.27093531088758027, 0.2874558357652859, 0.30437094176886603, 0.32080374402721645, 0.3377686846724828, 0.35425336956541287, 0.3710565182918799, 0.3874435819016071, 0.4042965652770363, 0.4209863914002199, 0.4379014974038, 0.45413120642479043, 0.4709855551336659, 0.48748389335378306, 0.504358039375802, 0.5208300949452678, 0.537758854276035, 0.5541834645337076, 0.5710705812234664, 0.5873651435467764, 0.6043188201947487, 0.6208912277143099, 0.6376694591235719, 0.6542288959753932, 0.6710405780395376, 0.6875075136049418, 0.704345136982738, 0.7208612245303812, 0.7376923625779455, 0.7540661141902092, 0.7710457321663853, 0.7875369023895473, 0.8043584831102635, 0.820874229320907, 0.8377101460355334]
36	inanimate/n40.jpg	animate	inanimate	right	0.796	[0.0, 0.0, 0.0, 0.0, 0.0, 0.0, 0.0, 0.0, 0.0, 0.0, -1.0, -3.0, -4.0, -6.0, -9.0, -12.0, -21.0, -37.0, -78.0, -131.0, -200.0, -276.0, -346.0, -414.0, -485.0, -552.0, -616.0, -684.0, -747.0, -819.0, -915.0, -960.0, -960.0, -960.0, -958.0, -933.0, -871.0, -781.0, -665.0, -515.0, -329.0, -126.0, 197.0, 405.0, 583.0, 731.0, 826.0, 867.0]	[-490.0, -490.0, -490.0, -490.0, -490.0, -491.0, -491.0, -491.0, -491.0, -491.0, -491.0, -491.0, -491.0, -491.0, -491.0, -491.0, -490.0, -487.0, -486.0, -483.0, -478.0, -467.0, -449.0, -430.0, -407.0, -379.0, -341.0, -297.0, -250.0, -194.0, -94.0, -22.0, 27.0, 50.0, 74.0, 119.0, 197.0, 285.0, 358.0, 422.0, 473.0, 507.0, 537.0, 537.0, 537.0, 523.0, 509.0, 502.0]	[0.0006219772767508402, 0.008531007893907372, 0.016194278636248782, 0.033143176624435, 0.04955686422181316, 0.06644773557491135, 0.08288326849287841, 0.09980451849696692, 0.11628954472689657, 0.13311556277767522, 0.1495831810098025, 0.1664156843908131, 0.18292972393828677, 0.1998154752945993, 0.21628343485645019, 0.23316747954959283, 0.24945828720956342, 0.26644336651224876, 0.28289357675384963, 0.29972403214196675, 0.31597865848016227, 0.3330333697522292, 0.34956242795306025, 0.3664396459789714, 0.38284480024594814, 0.39973976759938523, 0.41600872993149096, 0.43307880119391484, 0.4495539287599968, 0.4664809814275941, 0.48290627435198985, 0.499810116358276, 0.516448059839604, 0.5330481153432629, 0.5495785388775403, 0.5664444929134334, 0.5828813911648467, 0.5997439318598481, 0.6162364674164564, 0.633200384065276, 0.6495847170081106, 0.6665069910086459, 0.682900539948605, 0.6997484033272485, 0.7160801709615043, 0.7332601515008719, 0.7496147884594393, 0.7664421718436643]
37	animate/a52.jpg	animate	inanimate	left	0.797	[0.0, -5.0, -5.0, -5.0, -5.0, -5.0, -5.0, -5.0, -5.0, -5.0, -5.0, -5.0, -5.0, -5.0, -5.0, -5.0, -5.0, -5.0, -5.0, -5.0, -5.0, -5.0, -7.0, -26.0, -47.0, -75.0, -116.0, -198.0, -277.0, -354.0, -422.0, -480.0, -513.0, -517.0, -447.0, -360.0, -323.0, -321.0, -325.0, -353.0, -417.0, -508.0, -601.0, -692.0, -751.0, -784.0, -785.0, -785.0]	[-490.0, -488.0, -487.0, -485.0, -484.0, -484.0, -484.0, -484.0, -484.0, -484.0, -484.0, -484.0, -484.0, -484.0, -484.0, -484.0, -484.0, -484.0, -484.0, -484.0, -484.0, -484.0, -484.0, -483.0, -483.0, -483.0, -477.0, -453.0, -414.0, -356.0, -266.0, -151.0, -28.0, 79.0, 169.0, 212.0, 231.0, 231.0, 231.0, 231.0, 236.0, 255.0, 288.0, 327.0, 362.0, 384.0, 386.0, 387.0]	[0.002903106782468967, 0.009187050229229499, 0.02101799884258071, 0.03762761167308781, 0.05455637100385502, 0.07070996273250785, 0.0878360126298503, 0.10406674565456342, 0.12115797957085306, 0.13765426979080075, 0.1545485544775147, 0.1709530260777683, 0.18791523605614202, 0.2040579051245004, 0.22112797638692427, 0.23742253871023422, 0.25450489796639886, 0.27095783887489233, 0.28791595285292715, 0.3040937792393379, 0.3211843304889044, 0.33765297272475436, 0.3545479400709155, 0.37076638510188786, 0.38786205634824, 0.40432284792041173, 0.4211802686259034, 0.43744752429483924, 0.4545220328873256, 0.4711053630671813, 0.4879310397809604, 0.5043262953913654, 0.5211803027559654, 0.537613787681039, 0.5544852030361653, 0.5710487358956016, 0.5879409725748701, 0.6044376041318174, 0.6212663528494886, 0.6377271444216603, 0.6545408744786982, 0.6709651433993713, 0.6879201853880659, 0.704302470330731, 0.7211537470357143, 0.7376182932785014, 0.7545603645994561, 0.7707883669572766]
38	animate/a66.jpg	animate	inanimate	left	0.694	[0.0, 0.0, 0.0, 0.0, 0.0, 0.0, 0.0, 0.0, 0.0, 0.0, 0.0, 0.0, 0.0, 0.0, 0.0, 0.0, -2.0, -12.0, -31.0, -57.0, -93.0, -124.0, -165.0, -251.0, -337.0, -433.0, -537.0, -643.0, -749.0, -850.0, -929.0, -960.0, -960.0, -960.0, -959.0, -926.0, -898.0, -875.0, -858.0, -843.0, -833.0, -831.0]	[-490.0, -491.0, -491.0, -491.0, -491.0, -491.0, -491.0, -491.0, -491.0, -491.0, -491.0, -491.0, -491.0, -491.0, -491.0, -491.0, -491.0, -491.0, -485.0, -477.0, -468.0, -462.0, -451.0, -418.0, -381.0, -332.0, -270.0, -196.0, -119.0, -47.0, 15.0, 55.0, 92.0, 125.0, 170.0, 249.0, 288.0, 319.0, 338.0, 351.0, 356.0, 357.0]	[0.0017691980247036554, 0.008035392151214182, 0.01886145593744004, 0.0355734687182121, 0.0524786760652205, 0.06875378239783458, 0.08576787501806393, 0.10225563190761022, 0.1191086152830394, 0.13559056950907689, 0.15246847020171117, 0.16891731510986574, 0.18573923716758145, 0.20221777806000318, 0.21912947073724354, 0.2355547636616393, 0.2524251550203189, 0.2688780959288124, 0.2857542899582768, 0.302132478907879, 0.3191120968767791, 0.33559268577664625, 0.35247365846589673, 0.36892625803739065, 0.3856983454534202, 0.40223730231809895, 0.41921828562772134, 0.4355978399034939, 0.4525102152474574, 0.4689204895112198, 0.4857632328858017, 0.5022615711059188, 0.5191964744371944, 0.5352899915305898, 0.5524638280694489, 0.5689672862863517, 0.5858052510011476, 0.6022657012363197, 0.6192756978634861, 0.6353617056229268, 0.6524515742057702, 0.6688970057875849]
39	inanimate/n14.jpg	inanimate	animate	left	1.362	[0.0, 0.0, 0.0, 0.0, -4.0, -15.0, -22.0, -25.0, -28.0, -29.0, -31.0, -36.0, -39.0, -42.0, -47.0, -47.0, -48.0, -51.0, -54.0, -56.0, -59.0, -67.0, -91.0, -113.0, -137.0, -175.0, -227.0, -280.0, -335.0, -398.0, -476.0, -563.0, -636.0, -693.0, -715.0, -713.0, -677.0, -578.0, -434.0, -266.0, -89.0, 68.0, 213.0, 312.0, 358.0, 364.0, 358.0, 341.0, 315.0, 285.0, 246.0, 178.0, 98.0, -15.0, -129.0, -254.0, -395.0, -541.0, -742.0, -850.0, -923.0, -952.0, -960.0, -960.0, -944.0, -863.0, -746.0, -634.0, -558.0, -536.0, -536.0, -538.0, -557.0, -598.0, -663.0, -726.0, -780.0, -813.0, -824.0, -825.0, -825.0]	[-490.0, -490.0, -490.0, -490.0, -489.0, -489.0, -489.0, -490.0, -491.0, -491.0, -491.0, -493.0, -494.0, -494.0, -497.0, -497.0, -497.0, -497.0, -497.0, -496.0, -496.0, -492.0, -483.0, -476.0, -471.0, -460.0, -444.0, -432.0, -416.0, -395.0, -373.0, -349.0, -327.0, -300.0, -272.0, -247.0, -207.0, -150.0, -71.0, 14.0, 85.0, 140.0, 174.0, 184.0, 184.0, 184.0, 182.0, 180.0, 180.0, 185.0, 197.0, 216.0, 236.0, 248.0, 266.0, 284.0, 310.0, 353.0, 416.0, 465.0, 502.0, 521.0, 532.0, 537.0, 540.0, 540.0, 540.0, 540.0, 540.0, 538.0, 536.0, 534.0, 531.0, 531.0, 531.0, 531.0, 531.0, 528.0, 524.0, 524.0, 524.0]	[0.0056822754922905006, 0.012182624166598544, 0.026529539485636633, 0.043565136096731294, 0.059881885077629704, 0.0769010976946447, 0.09337759059417294, 0.11017869132774649, 0.12666269355395343, 0.143691122168093, 0.16004575912666041, 0.1769526731368387, 0.19356569930096157, 0.2103135520592332, 0.2267470369770308, 0.2436426869899151, 0.2600021026155446, 0.2768998006285983, 0.29345684815052664, 0.3102937888688757, 0.32675048444070853, 0.34370620909612626, 0.3600683553813724, 0.37695513073413167, 0.39341489830985665, 0.41035833496425766, 0.42679625721939374, 0.4435878006188432, 0.46008101884217467, 0.47692410355375614, 0.49341766310681123, 0.5101713185285917, 0.5267720566989738, 0.5436322080640821, 0.5600383863275056, 0.5769316470177728, 0.5935337505143252, 0.6103423605745775, 0.6267778934925445, 0.6436032288766, 0.6600435404616292, 0.6769593291319325, 0.6947953519993462, 0.7101556854686351, 0.7264464931286057, 0.7434988150635036, 0.7600142199444235, 0.776919427284156, 0.7934867148069316, 0.810284743536613, 0.8266615671527688, 0.8436022731475532, 0.8600320034020115, 0.8770017227143398, 0.8933311010187026, 0.9102496203558985, 0.9266609186161077, 0.9436176672679721, 0.9600610508496175, 0.9770546634827042, 0.9931410125791444, 1.0103035851279856, 1.0267384353792295, 1.0435439734428655, 1.0600365089994739, 1.0769751669940888, 1.093369398600771, 1.1102531019569142, 1.1266545015532756, 1.1435317195791868, 1.1600682871139725, 1.1770639477472287, 1.1931363021867583, 1.210270202747779, 1.2267849249546998, 1.2435696416941937, 1.2600256546065793, 1.276885464634688, 1.2931766136316583, 1.3102463435570826, 1.3265272525532055]
40	animate/a71.jpg	inanimate	animate	right	0.747	[0.0, 0.0, 0.0, 0.0, 0.0, 0.0, 0.0, 0.0, 0.0, 0.0, 0.0, 0.0, 0.0, 0.0, 0.0, 0.0, 0.0, 0.0, 0.0, -6.0, -9.0, -12.0, -21.0, -38.0, -59.0, -91.0, -141.0, -205.0, -282.0, -365.0, -444.0, -531.0, -574.0, -623.0, -658.0, -671.0, -669.0, -626.0, -523.0, -359.0, -155.0, 74.0, 313.0, 634.0, 787.0, 882.0]	[-490.0, -490.0, -490.0, -490.0, -490.0, -490.0, -490.0, -490.0, -490.0, -490.0, -490.0, -490.0, -490.0, -490.0, -490.0, -490.0, -490.0, -490.0, -490.0, -490.0, -490.0, -490.0, -486.0, -476.0, -464.0, -449.0, -430.0, -408.0, -378.0, -328.0, -251.0, -86.0, 29.0, 142.0, 216.0, 257.0, 275.0, 305.0, 358.0, 419.0, 469.0, 504.0, 520.0, 518.0, 499.0, 490.0]	[0.0077189763251226395, 0.013833277189405635, 0.018574053428892512, 0.030182794158463366, 0.04730679605563637, 0.06377168362087104, 0.08065845898090629, 0.09712129854597151, 0.11402514055953361, 0.130408790842921, 0.14732696884311736, 0.16355701920110732, 0.18055063183419406, 0.1971093860192923, 0.21397192672156962, 0.23049791292578448, 0.24731505631643813, 0.2637594638945302, 0.2806701325753238, 0.2969216869169031, 0.31405388081475394, 0.330460400415177, 0.34735946376167703, 0.36347994617244694, 0.3805926840796019, 0.3971190116208163, 0.4139644856622908, 0.43047818387276493, 0.4472997645934811, 0.46375884949520696, 0.4806896568261436, 0.4971115364241996, 0.5140058211036376, 0.5306004152735113, 0.5474117560006562, 0.5637896036132588, 0.5807036856203922, 0.5970030266107642, 0.613961140596075, 0.6301867536167265, 0.6473278221747023, 0.6635076965612825, 0.6806289677915629, 0.6970907833674573, 0.71394581473578, 0.7304004623074434]
41	animate/a74.jpg	animate	inanimate	left	0.911	[0.0, 0.0, 0.0, 0.0, 0.0, 0.0, 0.0, 0.0, 0.0, 0.0, 0.0, 0.0, -1.0, -8.0, -20.0, -26.0, -26.0, -27.0, -27.0, -27.0, -27.0, -27.0, -28.0, -30.0, -32.0, -32.0, -33.0, -34.0, -38.0, -53.0, -79.0, -105.0, -147.0, -212.0, -347.0, -439.0, -517.0, -568.0, -599.0, -617.0, -629.0, -641.0, -646.0, -650.0, -650.0, -650.0, -657.0, -659.0, -659.0, -661.0, -663.0, -663.0, -667.0, -670.0, -670.0]	[-490.0, -490.0, -490.0, -490.0, -491.0, -491.0, -491.0, -491.0, -491.0, -491.0, -491.0, -491.0, -492.0, -495.0, -497.0, -497.0, -497.0, -497.0, -497.0, -497.0, -502.0, -514.0, -521.0, -523.0, -524.0, -524.0, -524.0, -524.0, -522.0, -517.0, -506.0, -492.0, -469.0, -424.0, -310.0, -224.0, -140.0, -81.0, -30.0, 17.0, 66.0, 127.0, 183.0, 239.0, 286.0, 317.0, 343.0, 349.0, 350.0, 354.0, 357.0, 357.0, 359.0, 359.0, 359.0]	[0.016331870036083274, 0.02429073529492598, 0.031061078494531102, 0.04806322445801925, 0.06422978684713598, 0.08127835411869455, 0.09759646843303926, 0.11462045971711632, 0.13106862195854774, 0.14798406929912744, 0.16441926088009495, 0.18128623891243478, 0.19778389446582878, 0.21462254184734775, 0.23116559471236542, 0.24797659410251072, 0.2641919671368669, 0.28119991575658787, 0.29779621659690747, 0.3146225759774097, 0.33110453021072317, 0.3479950602268218, 0.36436266784585314, 0.3813337524916278, 0.39781638938438846, 0.41471203939727275, 0.4307850765035255, 0.44785241709905677, 0.4644255072780652, 0.48139113059733063, 0.49754369832226075, 0.5146052362542832, 0.5310547638364369, 0.547958605842723, 0.5644371467424207, 0.5812904714475735, 0.5978089483178337, 0.6147213236617972, 0.6308680887304945, 0.6479378186559188, 0.6641333943625796, 0.6813253215586883, 0.6977076065086294, 0.714598136524728, 0.7307954189018346, 0.747898940811865, 0.7644013750250451, 0.7812813237178489, 0.7977697632741183, 0.8146503946336452, 0.8310183435824001, 0.8479303775893641, 0.8643997024919372, 0.8813810271312832, 0.8976929974451195]
42	animate/a39.jpg	inanimate	animate	right	0.988	[0.0, 0.0, 0.0, 0.0, 0.0, 0.0, 0.0, 0.0, 0.0, 0.0, 3.0, 10.0, 22.0, 38.0, 61.0, 86.0, 116.0, 145.0, 182.0, 206.0, 224.0, 233.0, 233.0, 233.0, 233.0, 224.0, 208.0, 187.0, 151.0, 99.0, 29.0, -50.0, -135.0, -261.0, -345.0, -434.0, -513.0, -590.0, -648.0, -689.0, -716.0, -732.0, -740.0, -741.0, -741.0, -741.0, -740.0, -736.0, -720.0, -669.0, -576.0, -418.0, -230.0, -3.0, 215.0, 439.0, 623.0, 829.0, 908.0]	[-490.0, -490.0, -490.0, -490.0, -490.0, -490.0, -490.0, -490.0, -490.0, -490.0, -490.0, -490.0, -490.0, -490.0, -490.0, -494.0, -499.0, -501.0, -508.0, -511.0, -516.0, -519.0, -520.0, -520.0, -525.0, -528.0, -532.0, -534.0, -536.0, -536.0, -536.0, -526.0, -511.0, -452.0, -391.0, -310.0, -211.0, -103.0, 17.0, 121.0, 215.0, 290.0, 353.0, 394.0, 421.0, 431.0, 433.0, 436.0, 447.0, 469.0, 497.0, 530.0, 540.0, 540.0, 540.0, 540.0, 540.0, 537.0, 533.0]	[0.0021275978433550335, 0.008401642626267858, 0.0193922289981856, 0.03604484981042333, 0.05297019580757478, 0.06945863537112018, 0.08633414672658546, 0.10277787163795438, 0.1197247216332471, 0.1361308998966706, 0.15300572859268868, 0.1694504775077803, 0.1863577328476822, 0.20291204970271792, 0.21962542781693628, 0.23609441138250986, 0.25297982140182285, 0.26949590894946596, 0.28635196432151133, 0.30273561459762277, 0.31978418186918134, 0.3361606641483377, 0.35305119417171227, 0.36948126575589413, 0.38624618517496856, 0.4028800326559576, 0.4196644080657279, 0.4361193969671149, 0.45298398566956166, 0.4694290759143769, 0.48632609126798343, 0.5028186268173158, 0.5197371461617877, 0.5361187484377297, 0.5530543344357284, 0.5695161500043469, 0.5863206640642602, 0.6029207195679191, 0.6197689242762863, 0.6361126385745592, 0.6530386672384338, 0.6692714482633164, 0.686331279532169, 0.7027627164497972, 0.7196720197898685, 0.7360969713845407, 0.7529045574410702, 0.7694540956363198, 0.7862657776931883, 0.8028890438508824, 0.8197799152039806, 0.8358700189637602, 0.8529892422011471, 0.8694196551223285, 0.8863074544715346, 0.902920821965381, 0.9196980293781962, 0.9361584796206444, 0.952948999023647]
43	inanimate/n26.jpg	inanimate	animate	left	0.781	[0.0, 0.0, 0.0, 0.0, 0.0, 0.0, 0.0, 0.0, 0.0, 0.0, 0.0, 0.0, 0.0, 0.0, 0.0, 0.0, 0.0, 0.0, 6.0, 10.0, 10.0, 10.0, 10.0, 10.0, 10.0, 10.0, 10.0, 10.0, 8.0, -13.0, -55.0, -115.0, -197.0, -368.0, -488.0, -594.0, -701.0, -802.0, -887.0, -937.0, -948.0, -946.0, -938.0, -929.0, -918.0, -916.0, -915.0]	[-490.0, -490.0, -490.0, -490.0, -490.0, -490.0, -490.0, -490.0, -490.0, -490.0, -490.0, -490.0, -490.0, -490.0, -490.0, -490.0, -490.0, -490.0, -488.0, -486.0, -486.0, -486.0, -486.0, -486.0, -486.0, -486.0, -486.0, -486.0, -486.0, -488.0, -491.0, -491.0, -481.0, -421.0, -376.0, -305.0, -210.0, -77.0, 68.0, 189.0, 251.0, 279.0, 305.0, 331.0, 347.0, 348.0, 349.0]	[0.005705110677808989, 0.012008851452264935, 0.026268726818670984, 0.04319851014588494, 0.05968148837564513, 0.07652696241711965, 0.09298468199267518, 0.10989978799625533, 0.12605337972490815, 0.1431446136411978, 0.15971599715703633, 0.17657614852214465, 0.19284203886491014, 0.20987012614205014, 0.22632238439109642, 0.24321018374030245, 0.25966722064913483, 0.27659120132011594, 0.2929632462692098, 0.30996470956597477, 0.3263442638417473, 0.34320270854368573, 0.3596710094498121, 0.3766079607739812, 0.39296191506582545, 0.40993982637883164, 0.4263026553308009, 0.44320035334385466, 0.45951232366496697, 0.476551674939401, 0.49274281331599923, 0.5098582818827708, 0.5263347747822991, 0.5432563661161112, 0.559764603000076, 0.5766479650192196, 0.593136404582765, 0.6099310199788306, 0.6263569955699495, 0.6431953016144689, 0.6597185571590671, 0.6765247778821504, 0.6927452709132922, 0.709810563508654, 0.7263481550398865, 0.7433421090099728, 0.7595274447230622]
44	animate/a69.jpg	inanimate	animate	right	0.867	[0.0, 0.0, 0.0, 0.0, 0.0, 0.0, 0.0, 0.0, 0.0, 0.0, 0.0, 0.0, 0.0, 0.0, 0.0, 0.0, 0.0, 0.0, 0.0, 0.0, 0.0, 0.0, 0.0, 0.0, 0.0, 0.0, 0.0, 0.0, 0.0, 0.0, -25.0, -69.0, -141.0, -240.0, -353.0, -475.0, -656.0, -742.0, -777.0, -786.0, -770.0, -700.0, -572.0, -393.0, -168.0, 66.0, 292.0, 492.0, 705.0, 779.0, 799.0, 799.0]	[-490.0, -490.0, -490.0, -490.0, -490.0, -490.0, -490.0, -490.0, -490.0, -490.0, -490.0, -490.0, -490.0, -490.0, -490.0, -490.0, -490.0, -490.0, -490.0, -490.0, -490.0, -490.0, -490.0, -490.0, -490.0, -490.0, -490.0, -490.0, -490.0, -490.0, -490.0, -490.0, -473.0, -434.0, -384.0, -301.0, -126.0, -5.0, 89.0, 162.0, 221.0, 292.0, 363.0, 425.0, 471.0, 494.0, 499.0, 499.0, 499.0, 499.0, 499.0, 499.0]	[0.002230339130619541, 0.007022315337962937, 0.019348879694007337, 0.036255793704185635, 0.0526810866285814, 0.06965182993735652, 0.08604981621465413, 0.10294102889747592, 0.1194042097995407, 0.13628279315889813, 0.15283233135414775, 0.16966517606488196, 0.1860553116785013, 0.20301206033036578, 0.21939332127658417, 0.23628316862595966, 0.25253472297481494, 0.269587727576436, 0.2860300871543586, 0.3029267611709656, 0.3194496753785643, 0.3362620401021559, 0.3527508209954249, 0.3696410096817999, 0.3860768839294906, 0.403069131229131, 0.4194080668676179, 0.43627163156634197, 0.45272184180794284, 0.46958574784366647, 0.4860479047492845, 0.5029486747589544, 0.5191172851482406, 0.5362573297024937, 0.5527413319359766, 0.5696946672542254, 0.5861028935178183, 0.6028452849423047, 0.6191500872664619, 0.6362682865001261, 0.6527304434057442, 0.6695981041048071, 0.6861223836385761, 0.7030115483285044, 0.7194747292305692, 0.7363072326115798, 0.7527772401808761, 0.7695868742375751, 0.7860633671371033, 0.8029023558483459, 0.8191522035267553, 0.8362485574398306]
45	inanimate/n65.jpg	inanimate	animate	left	0.715	[0.0, 0.0, 0.0, 0.0, 0.0, 0.0, 0.0, 0.0, 0.0, 0.0, 0.0, 0.0, 0.0, 0.0, 0.0, 0.0, 0.0, 0.0, 0.0, 0.0, 0.0, 0.0, -19.0, -72.0, -149.0, -252.0, -374.0, -513.0, -659.0, -796.0, -911.0, -960.0, -960.0, -939.0, -897.0, -868.0, -853.0, -841.0, -835.0, -834.0, -834.0, -834.0, -834.0, -834.0]	[-490.0, -490.0, -490.0, -490.0, -490.0, -490.0, -490.0, -490.0, -490.0, -490.0, -490.0, -490.0, -490.0, -490.0, -490.0, -490.0, -490.0, -490.0, -490.0, -490.0, -490.0, -490.0, -494.0, -495.0, -492.0, -463.0, -421.0, -352.0, -243.0, -105.0, 40.0, 161.0, 237.0, 310.0, 371.0, 412.0, 433.0, 447.0, 453.0, 456.0, 458.0, 458.0, 458.0, 458.0]	[0.010714857453422155, 0.01597821476025274, 0.021850169083336368, 0.03640973496658262, 0.05323848368425388, 0.06975354722817428, 0.08661506392672891, 0.10284921027778182, 0.11998242817207938, 0.13635583845461952, 0.15335934975155396, 0.16983823198097525, 0.18663318871404044, 0.2030291269911686, 0.21997051564540016, 0.2364309658878483, 0.25330511190986726, 0.26975600482546724, 0.2866168388572987, 0.30287078253604705, 0.31989545648684725, 0.33612482417811407, 0.35321537542768056, 0.36946590577281313, 0.38662711298820795, 0.40309609655378154, 0.4199105092775426, 0.43640884749765974, 0.453255345535581, 0.4697308144386625, 0.48659437913738657, 0.5030486853793263, 0.5199835887106019, 0.536369969653606, 0.5532413850160083, 0.5695338993391488, 0.5866916932209278, 0.6028230982919922, 0.6199774788401555, 0.6361679345573066, 0.6532796484607388, 0.669463618840382, 0.6866596420368296, 0.7028644337406149]
46	animate/a50.jpg	animate	inanimate	left	0.78	[0.0, 0.0, 0.0, 0.0, -1.0, -1.0, -1.0, -1.0, -1.0, -1.0, -1.0, -1.0, -1.0, -1.0, -1.0, -1.0, -1.0, -1.0, -1.0, -1.0, -1.0, -2.0, -35.0, -106.0, -211.0, -332.0, -478.0, -632.0, -865.0, -960.0, -960.0, -960.0, -935.0, -832.0, -666.0, -466.0, -319.0, -253.0, -244.0, -253.0, -363.0, -491.0, -662.0, -810.0, -902.0, -920.0, -920.0]	[-490.0, -490.0, -490.0, -490.0, -491.0, -491.0, -491.0, -491.0, -491.0, -491.0, -491.0, -491.0, -491.0, -491.0, -491.0, -491.0, -491.0, -491.0, -491.0, -491.0, -491.0, -491.0, -491.0, -482.0, -452.0, -400.0, -325.0, -227.0, -50.0, 77.0, 185.0, 239.0, 260.0, 314.0, 372.0, 406.0, 414.0, 412.0, 405.0, 394.0, 385.0, 390.0, 414.0, 435.0, 447.0, 450.0, 450.0]	[0.015204105293378234, 0.022559834862477146, 0.02852121847536182, 0.04567252702690894, 0.06211864127544686, 0.07906651525991037, 0.09542490688909311, 0.11226355426333612, 0.12875779649039032, 0.1456561771701672, 0.16209205141785787, 0.17900510942854453, 0.195341997059586, 0.21236701234738575, 0.22889436388504691, 0.2457084352718084, 0.26208730688813375, 0.27900275422871346, 0.29549870311893756, 0.31237592113757273, 0.3284748995647533, 0.34559514679858694, 0.3621194263396319, 0.3789884523721412, 0.39547928125830367, 0.4123247552997782, 0.42881694952666294, 0.44565389023773605, 0.46213174846343463, 0.4789181718733744, 0.4955250540369889, 0.5123183041068842, 0.5284770158323226, 0.545662799035199, 0.5618645187350921, 0.5789977366293897, 0.5954909548527212, 0.612288642252679, 0.6287310018306016, 0.6457259797971346, 0.6621345473977271, 0.6789243841340067, 0.6951868611431564, 0.7123941483296221, 0.7285415960650425, 0.7456478486419655, 0.7618796056631254]
47	inanimate/n20.jpg	animate	inanimate	right	1.018	[0.0, 0.0, 0.0, 0.0, 0.0, 0.0, 0.0, 0.0, 0.0, 0.0, 0.0, 0.0, 0.0, 0.0, 0.0, 0.0, 0.0, 0.0, 0.0, 0.0, 0.0, 0.0, 0.0, 0.0, 0.0, 0.0, 0.0, -17.0, -54.0, -106.0, -174.0, -256.0, -358.0, -473.0, -635.0, -717.0, -774.0, -793.0, -791.0, -748.0, -633.0, -443.0, -204.0, 44.0, 273.0, 527.0, 636.0, 709.0, 741.0, 751.0, 751.0, 751.0, 751.0, 751.0, 751.0, 751.0, 751.0, 751.0, 751.0, 751.0, 751.0, 751.0]	[-490.0, -490.0, -490.0, -490.0, -490.0, -490.0, -490.0, -490.0, -490.0, -490.0, -490.0, -490.0, -490.0, -490.0, -490.0, -490.0, -490.0, -490.0, -490.0, -490.0, -490.0, -490.0, -490.0, -490.0, -490.0, -490.0, -490.0, -485.0, -469.0, -450.0, -420.0, -376.0, -314.0, -223.0, -60.0, 46.0, 153.0, 241.0, 303.0, 356.0, 394.0, 430.0, 450.0, 453.0, 453.0, 423.0, 406.0, 388.0, 378.0, 375.0, 375.0, 375.0, 375.0, 375.0, 375.0, 376.0, 376.0, 378.0, 378.0, 378.0, 378.0, 378.0]	[0.007566741725895554, 0.012044008763041347, 0.016393275873269886, 0.030708105878147762, 0.04715490278613288, 0.06408946478040889, 0.08046731240028748, 0.09747765035717748, 0.1138278499856824, 0.13078050263720797, 0.14697710234759143, 0.16405980293347966, 0.18051957050192868, 0.1974841698174714, 0.21382037478906568, 0.23072694746224442, 0.24715736038342584, 0.264074855724175, 0.2802578021073714, 0.29738658267160645, 0.3138023182618781, 0.330740976256493, 0.34717275451112073, 0.36404280454007676, 0.38051008144248044, 0.3973954914617934, 0.41361461915948894, 0.4308225890126778, 0.44717347130790586, 0.46404420400358504, 0.4804722275948734, 0.49739859759574756, 0.5138105785299558, 0.5307154445399647, 0.5471905721060466, 0.5641073847727966, 0.5806019683295744, 0.5974085303896572, 0.613945097924443, 0.6307141133365803, 0.6469745423455606, 0.6640517816049396, 0.6804961891830317, 0.6973672632084345, 0.7138256654507131, 0.7306301795179024, 0.7472500323419808, 0.764104722373304, 0.7805030499803252, 0.797410305320227, 0.8138294542513904, 0.8307435362585238, 0.8470807652265648, 0.8640422925382154, 0.8805092281108955, 0.8974338914413238, 0.9138629390363349, 0.9306957837470691, 0.9469831780734239, 0.9641228812979534, 0.9806584248362924, 0.9974086669244571]
48	inanimate/n7.jpg	inanimate	animate	left	0.78	[0.0, 0.0, 0.0, 0.0, 0.0, 0.0, 0.0, 0.0, 0.0, 0.0, 0.0, 0.0, 0.0, 0.0, 0.0, 0.0, 0.0, 0.0, 0.0, 0.0, 0.0, 1.0, 3.0, 3.0, 3.0, 2.0, -4.0, -12.0, -37.0, -114.0, -213.0, -337.0, -465.0, -576.0, -693.0, -732.0, -753.0, -773.0, -792.0, -812.0, -830.0, -846.0, -852.0, -854.0, -854.0, -854.0, -854.0]	[-490.0, -490.0, -490.0, -490.0, -490.0, -490.0, -490.0, -490.0, -490.0, -490.0, -490.0, -490.0, -490.0, -490.0, -490.0, -490.0, -490.0, -490.0, -490.0, -490.0, -490.0, -492.0, -493.0, -494.0, -494.0, -497.0, -499.0, -501.0, -501.0, -463.0, -382.0, -269.0, -141.0, -15.0, 151.0, 203.0, 234.0, 264.0, 290.0, 316.0, 342.0, 367.0, 377.0, 382.0, 386.0, 386.0, 386.0]	[0.0013599395751953125, 0.007111061961040832, 0.017931323091033846, 0.034397575989714824, 0.05152567388722673, 0.06791478549712338, 0.08494082478136988, 0.10134154171828413, 0.11826040238520363, 0.13445802609203383, 0.15160626264696475, 0.16771650506416336, 0.18479101365664974, 0.20137366116250632, 0.2182181112075341, 0.23464784146199236, 0.2515581688057864, 0.2679585444057011, 0.28486443441943265, 0.30125320469232975, 0.3181884493533289, 0.33439631306100637, 0.3516042829141952, 0.36771111199777806, 0.38479449525038945, 0.4013027321343543, 0.41817858482681913, 0.43439600586134475, 0.45144832779624267, 0.4679483726795297, 0.48480511071829824, 0.5013587449066108, 0.5181844216276659, 0.5346595491864718, 0.551474644576956, 0.5679047161684139, 0.5848392781626899, 0.6013717496971367, 0.6181469091097824, 0.634348287479952, 0.6514262094060541, 0.6680289955693297, 0.684869008284295, 0.7012297892360948, 0.718201215218869, 0.7345985188221675, 0.7515146488294704]
49	inanimate/n2.jpg	inanimate	animate	left	0.71	[0.0, 0.0, 0.0, 0.0, 0.0, -3.0, -9.0, -9.0, -9.0, -9.0, -9.0, -9.0, -9.0, -9.0, -9.0, -9.0, -13.0, -60.0, -132.0, -181.0, -236.0, -321.0, -473.0, -587.0, -707.0, -825.0, -924.0, -960.0, -960.0, -960.0, -960.0, -960.0, -952.0, -936.0, -919.0, -909.0, -904.0, -897.0, -890.0, -883.0, -873.0, -864.0, -854.0]	[-490.0, -490.0, -490.0, -490.0, -490.0, -489.0, -489.0, -489.0, -489.0, -489.0, -489.0, -489.0, -489.0, -489.0, -489.0, -489.0, -489.0, -507.0, -539.0, -539.0, -539.0, -533.0, -501.0, -467.0, -430.0, -382.0, -338.0, -272.0, -170.0, -54.0, 68.0, 150.0, 188.0, 211.0, 241.0, 264.0, 285.0, 306.0, 321.0, 328.0, 336.0, 343.0, 352.0]	[0.001679086075455416, 0.00990589785942575, 0.01833375488058664, 0.03525466354767559, 0.051757097768131644, 0.06859267314575845, 0.08481521417706972, 0.10193853340751957, 0.11841946363711031, 0.13527824966877233, 0.15172845991764916, 0.16857290995540097, 0.18508353616925888, 0.2019460768715362, 0.21825087918841746, 0.23519841184315737, 0.25171552338724723, 0.26864974405179964, 0.28502656766795553, 0.30190583368676016, 0.3183806199231185, 0.3352428192883963, 0.35304982883826597, 0.36851256225054385, 0.3850218231382314, 0.4018710518430453, 0.4184182007011259, 0.43520633077423554, 0.4516988663308439, 0.4685085003875429, 0.4849631479664822, 0.5018741579697235, 0.5180680270132143, 0.535157554266334, 0.5514357325955643, 0.5686235637986101, 0.5847447288761032, 0.6018728267736151, 0.6180404131591786, 0.635119700418727, 0.6517030305913067, 0.6685314379792544, 0.6849980322149349]
50	animate/a42.jpg	inanimate	animate	right	0.698	[0.0, 1.0, 1.0, 1.0, 1.0, 1.0, 1.0, 1.0, 1.0, 2.0, 3.0, 4.0, 4.0, 4.0, 4.0, 4.0, -3.0, -14.0, -36.0, -100.0, -153.0, -213.0, -276.0, -350.0, -428.0, -498.0, -557.0, -593.0, -623.0, -634.0, -634.0, -606.0, -552.0, -436.0, -280.0, -110.0, 60.0, 227.0, 397.0, 562.0, 694.0, 789.0]	[-490.0, -491.0, -491.0, -491.0, -491.0, -491.0, -491.0, -491.0, -491.0, -491.0, -490.0, -488.0, -485.0, -482.0, -479.0, -475.0, -467.0, -454.0, -430.0, -369.0, -328.0, -286.0, -241.0, -190.0, -136.0, -74.0, -4.0, 58.0, 135.0, 193.0, 229.0, 281.0, 324.0, 375.0, 414.0, 438.0, 456.0, 456.0, 456.0, 456.0, 442.0, 427.0]	[0.015010228038590867, 0.020590342515788507, 0.02850005579966819, 0.04537078849534737, 0.0623336811477202, 0.07865281945851166, 0.09557475212932331, 0.11202018370386213, 0.12892743905103998, 0.14510219343355857, 0.16221732067060657, 0.17838900305650895, 0.19555533026868943, 0.21198574318987085, 0.2288947052002186, 0.2453210221210611, 0.2623497920722002, 0.27871603435778525, 0.29561441503756214, 0.3119233133547823, 0.3288906433372176, 0.34536065089923795, 0.36240102617739467, 0.3784310553019168, 0.39557553719350835, 0.41198000879376195, 0.42888555747049395, 0.4454627436498413, 0.4623624896630645, 0.4785218840552261, 0.4955687446636148, 0.5120332908991259, 0.5288931009345106, 0.5454020204779226, 0.5623737877904205, 0.5784700355507084, 0.5955493228029809, 0.6120070423785364, 0.6288736790738767, 0.6453628013041453, 0.6621639020304428, 0.6786250349396141]
