trialIndex	left_option	right_option	response	response_time	xTrajectory	yTrajectory	tTrajectory
0	images/0376.jpg	images/0066.jpg	left	1.924	[0.0, 0.0, 0.0, 0.0, 0.0, 0.0, 0.0, 0.0, 0.0, 0.0, 0.0, 0.0, 0.0, 0.0, 0.0, 0.0, 0.0, 0.0, 0.0, 0.0, 0.0, 0.0, 0.0, 0.0, 0.0, 0.0, 0.0, 0.0, 0.0, 7.0, 29.0, 71.0, 131.0, 208.0, 281.0, 356.0, 401.0, 428.0, 439.0, 445.0, 445.0, 445.0, 445.0, 443.0, 442.0, 441.0, 440.0, 437.0, 434.0, 433.0, 432.0, 432.0, 432.0, 432.0, 432.0, 432.0, 432.0, 432.0, 432.0, 432.0, 432.0, 432.0, 432.0, 432.0, 432.0, 432.0, 432.0, 432.0, 436.0, 444.0, 463.0, 486.0, 517.0, 546.0, 581.0, 614.0, 625.0, 630.0, 633.0, 635.0, 635.0, 635.0, 635.0, 635.0, 635.0, 635.0, 578.0, 476.0, 343.0, 155.0, -61.0, -252.0, -393.0, -495.0, -569.0, -612.0, -639.0, -662.0, -685.0, -713.0, -725.0, -727.0, -729.0, -730.0, -732.0, -732.0, -733.0, -733.0, -733.0, -733.0, -733.0, -733.0, -733.0, -733.0]	[-490.0, -490.0, -490.0, -490.0, -490.0, -490.0, -490.0, -490.0, -490.0, -490.0, -490.0, -490.0, -490.0, -490.0, -490.0, -490.0, -490.0, -490.0, -490.0, -490.0, -490.0, -490.0, -490.0, -490.0, -490.0, -490.0, -490.0, -490.0, -485.0, -463.0, -415.0, -335.0, -236.0, -130.0, -24.0, 84.0, 164.0, 209.0, 232.0, 247.0, 250.0, 253.0, 257.0, 259.0, 260.0, 261.0, 261.0, 262.0, 264.0, 264.0, 264.0, 264.0, 264.0, 264.0, 264.0, 264.0, 264.0, 264.0, 264.0, 264.0, 264.0, 264.0, 264.0, 264.0, 264.0, 264.0, 265.0, 267.0, 269.0, 271.0, 279.0, 286.0, 297.0, 309.0, 323.0, 339.0, 345.0, 348.0, 351.0, 353.0, 353.0, 353.0, 353.0, 353.0, 353.0, 355.0, 374.0, 395.0, 420.0, 458.0, 495.0, 515.0, 514.0, 500.0, 488.0, 485.0, 480.0, 472.0, 467.0, 453.0, 447.0, 445.0, 444.0, 442.0, 440.0, 438.0, 436.0, 436.0, 436.0, 436.0, 436.0, 436.0, 436.0, 436.0]	[0.015168021083809435, 0.022084452561102808, 0.03038533078506589, 0.04735163098666817, 0.06353013450279832, 0.08057323459070176, 0.09695175930391997, 0.11377947824075818, 0.130218077567406, 0.14712942310143262, 0.16362741438206285, 0.18051759735681117, 0.19726612698286772, 0.21380507829599082, 0.2302344616036862, 0.2471010924782604, 0.2635055584833026, 0.2803991547552869, 0.29687769000884145, 0.3137863049050793, 0.33023036550730467, 0.34709802048746496, 0.36356597440317273, 0.3804865359561518, 0.3968882713234052, 0.4137815262656659, 0.4303515388164669, 0.4470618391642347, 0.4635489077772945, 0.4803442001575604, 0.49682717269752175, 0.5138054195558652, 0.5301337683340535, 0.5470983618870378, 0.5635608544107527, 0.5804220240097493, 0.5969084099633619, 0.613681857008487, 0.6302747388835996, 0.6470891458448023, 0.6635659744497389, 0.6803735548164696, 0.6966916634701192, 0.7137197449337691, 0.7300566270714626, 0.7469925485784188, 0.7635239905212075, 0.7804698107065633, 0.7968514073872939, 0.8137808436295018, 0.8302621095208451, 0.8471103084739298, 0.8634243212873116, 0.8804121253779158, 0.8968998766504228, 0.9137275957036763, 0.9300364883383736, 0.9470802712021396, 0.9635332064935938, 0.9805575333302841, 0.9968551620841026, 1.0137405663263053, 1.0303252561716363, 1.0471836951328442, 1.0636199050350115, 1.0804633253719658, 1.0968589166877791, 1.1139685767702758, 1.1302836135728285, 1.1472082710824907, 1.1635953290387988, 1.1804192933486775, 1.1968551620375365, 1.2139013342093676, 1.230244018835947, 1.2470632045296952, 1.2635413984535262, 1.2804841466713697, 1.2968671086709946, 1.3136624010512605, 1.3299484244780615, 1.3471144045470282, 1.3636338997166604, 1.3804704933427274, 1.3966199835995212, 1.4137832329142839, 1.4302730321651325, 1.4470864151371643, 1.4635680224746466, 1.4805493413005024, 1.4966216902248561, 1.5137661662884057, 1.5301225043367594, 1.5470649112248793, 1.5635325238108635, 1.5804257787531242, 1.5968541380716488, 1.6137426142813638, 1.630009523127228, 1.6471167937852442, 1.6635413984768093, 1.6803633148083463, 1.6968712046509609, 1.7138218035688624, 1.7301139710471034, 1.7470741271972656, 1.7635263798292726, 1.7804786853957921, 1.7968913433142006, 1.8137306676944718, 1.8302569895749912, 1.847122255130671, 1.8635659744031727, 1.8804831226589158]
1	images/0356.jpg	images/0166.jpg	right	1.551	[0.0, 0.0, 0.0, 0.0, 0.0, 0.0, 0.0, 0.0, 0.0, 0.0, 0.0, 0.0, 0.0, 0.0, 0.0, 0.0, 0.0, 0.0, 0.0, 0.0, 0.0, 0.0, 0.0, 0.0, 0.0, 0.0, 0.0, 0.0, 0.0, 0.0, 0.0, 0.0, 0.0, 0.0, 0.0, 0.0, 0.0, 0.0, 0.0, 0.0, 0.0, 0.0, 0.0, 0.0, 0.0, 0.0, 0.0, 0.0, 0.0, 0.0, 0.0, 0.0, 0.0, 0.0, 0.0, 0.0, 0.0, 0.0, 0.0, 0.0, 10.0, 63.0, 168.0, 310.0, 482.0, 676.0, 872.0, 959.0, 959.0, 959.0, 959.0, 959.0, 959.0, 959.0, 959.0, 957.0, 955.0, 948.0, 936.0, 916.0, 897.0, 865.0, 841.0, 816.0, 793.0, 782.0, 778.0, 778.0, 778.0, 778.0, 778.0, 778.0, 778.0]	[-490.0, -490.0, -490.0, -490.0, -490.0, -490.0, -490.0, -490.0, -490.0, -490.0, -490.0, -490.0, -490.0, -490.0, -490.0, -490.0, -490.0, -490.0, -490.0, -490.0, -490.0, -490.0, -490.0, -490.0, -490.0, -490.0, -490.0, -490.0, -490.0, -490.0, -490.0, -490.0, -490.0, -490.0, -490.0, -490.0, -490.0, -490.0, -490.0, -490.0, -490.0, -489.0, -489.0, -489.0, -489.0, -489.0, -488.0, -488.0, -488.0, -488.0, -488.0, -488.0, -488.0, -488.0, -481.0, -464.0, -439.0, -367.0, -307.0, -228.0, -137.0, -46.0, 42.0, 125.0, 199.0, 253.0, 298.0, 324.0, 339.0, 345.0, 346.0, 346.0, 348.0, 349.0, 350.0, 352.0, 352.0, 354.0, 358.0, 363.0, 368.0, 378.0, 385.0, 392.0, 399.0, 401.0, 402.0, 402.0, 402.0, 402.0, 402.0, 402.0, 402.0]	[0.004846860887482762, 0.009472606354393065, 0.026051152148284018, 0.04300584702286869, 0.059490526327863336, 0.07639231451321393, 0.09273329260759056, 0.10958422219846398, 0.12612351472489536, 0.1429478203644976, 0.15936150238849223, 0.17635579186026007, 0.19272339390590787, 0.20964395545888692, 0.22615184541791677, 0.2430010683601722, 0.25909389730077237, 0.27630151994526386, 0.2927974632475525, 0.3096173314843327, 0.32613204803783447, 0.342996972380206, 0.3593867610907182, 0.3763598878867924, 0.39270837523508817, 0.40972109674476087, 0.42581290169619024, 0.4430014096433297, 0.4593830064404756, 0.4764059678418562, 0.4930408336222172, 0.5096210861811414, 0.5261023520724848, 0.5429795644013211, 0.5593570651253685, 0.5763622772647068, 0.5924462315160781, 0.6096217688173056, 0.6260136055061594, 0.6429020818322897, 0.6593522863695398, 0.6764558025170118, 0.6927230525761843, 0.709721096791327, 0.7262600479880348, 0.7430823056492954, 0.7593635503435507, 0.7765199730638415, 0.7926585406530648, 0.8095934381708503, 0.8260733388597146, 0.8429781990125775, 0.8592481798259541, 0.8763728585327044, 0.892704279278405, 0.9096364461584017, 0.9259354402311146, 0.9429031057516113, 0.9593440943863243, 0.9763093705987558, 0.9927411432145163, 1.009618014213629, 1.025920421583578, 1.0428887697635219, 1.059301086468622, 1.0762144799809903, 1.092658540699631, 1.1095924142282456, 1.1260863094357774, 1.1428884284105152, 1.1590696626808494, 1.1762185760308057, 1.192724076565355, 1.2095750062726438, 1.2257763791130856, 1.242959767114371, 1.2593604783760384, 1.2763028852641582, 1.2927264659665525, 1.3095835394924507, 1.32609518407844, 1.3428512231912464, 1.3594181636581197, 1.376248613349162, 1.392649665940553, 1.40952790225856, 1.4261863200226799, 1.442889452446252, 1.459319177083671, 1.4763223412446678, 1.4926950632361695, 1.5094804569380358, 1.5260514934780076]
2	images/0599.jpg	images/0361.jpg	left	1.782	[0.0, 0.0, 0.0, 0.0, 0.0, 0.0, 0.0, 0.0, 0.0, 0.0, 0.0, 0.0, 0.0, 0.0, 0.0, 0.0, 0.0, 0.0, 0.0, 0.0, 0.0, 0.0, 0.0, 1.0, 4.0, 8.0, 13.0, 18.0, 35.0, 53.0, 73.0, 93.0, 107.0, 124.0, 141.0, 157.0, 169.0, 182.0, 195.0, 206.0, 219.0, 223.0, 225.0, 225.0, 225.0, 226.0, 226.0, 226.0, 226.0, 226.0, 226.0, 226.0, 226.0, 226.0, 226.0, 226.0, 226.0, 226.0, 226.0, 226.0, 226.0, 227.0, 229.0, 235.0, 245.0, 267.0, 276.0, 277.0, 273.0, 227.0, 81.0, -131.0, -377.0, -634.0, -828.0, -953.0, -960.0, -960.0, -960.0, -960.0, -960.0, -960.0, -960.0, -960.0, -960.0, -960.0, -960.0, -960.0, -960.0, -960.0, -960.0, -960.0, -960.0, -953.0, -938.0, -912.0, -874.0, -843.0, -822.0, -807.0, -802.0, -798.0, -798.0, -798.0, -798.0, -798.0, -798.0]	[-490.0, -490.0, -490.0, -490.0, -490.0, -490.0, -490.0, -490.0, -490.0, -490.0, -490.0, -490.0, -490.0, -490.0, -490.0, -490.0, -490.0, -490.0, -490.0, -490.0, -490.0, -490.0, -490.0, -490.0, -489.0, -483.0, -468.0, -433.0, -322.0, -244.0, -186.0, -147.0, -123.0, -101.0, -79.0, -60.0, -44.0, -24.0, -8.0, 6.0, 25.0, 31.0, 34.0, 35.0, 35.0, 36.0, 36.0, 36.0, 36.0, 36.0, 36.0, 36.0, 36.0, 36.0, 36.0, 36.0, 36.0, 36.0, 36.0, 36.0, 36.0, 37.0, 41.0, 46.0, 62.0, 110.0, 136.0, 155.0, 176.0, 229.0, 331.0, 454.0, 540.0, 540.0, 540.0, 540.0, 540.0, 540.0, 538.0, 526.0, 511.0, 498.0, 479.0, 456.0, 435.0, 416.0, 395.0, 373.0, 347.0, 312.0, 300.0, 298.0, 298.0, 299.0, 303.0, 310.0, 320.0, 331.0, 342.0, 355.0, 364.0, 372.0, 373.0, 373.0, 373.0, 373.0, 373.0]	[0.005343500408343971, 0.0102941949153319, 0.02717652719002217, 0.04396806482691318, 0.06036536279134452, 0.07733848970383406, 0.09355795313604176, 0.11064542655367404, 0.12700586067512631, 0.143947584903799, 0.16035717085469514, 0.17746136954519898, 0.1937176970532164, 0.21066010394133627, 0.22698162600863725, 0.2439626035047695, 0.2605025786906481, 0.2772698818007484, 0.2936944863758981, 0.3106846798909828, 0.32696524204220623, 0.3440370140597224, 0.36020664300303906, 0.37719649518840015, 0.3934596492908895, 0.41056282399222255, 0.42674713023006916, 0.44390730757731944, 0.46040768816601485, 0.47724632977042347, 0.4936129078269005, 0.5105775012634695, 0.5270836845738813, 0.5439530462026596, 0.5604302161373198, 0.577198201790452, 0.593689366360195, 0.6106095865834504, 0.6270201966399327, 0.6439400755334646, 0.6604052988113835, 0.6771848897915334, 0.6936439691344276, 0.7105925199575722, 0.7270625219680369, 0.7439161821966991, 0.7601957203587517, 0.7772859244141728, 0.7936688864137977, 0.8106095866532996, 0.8270021060016006, 0.843864299589768, 0.8603080188622698, 0.8772562284721062, 0.8936736651230603, 0.9105519013246521, 0.9270369219593704, 0.9440243848366663, 0.960423048119992, 0.9773029910866171, 0.9937706036726013, 1.0105672613717616, 1.027026681927964, 1.0438561076298356, 1.0603889147751033, 1.0772029805229977, 1.0936903903493658, 1.1105737466132268, 1.1270580845884979, 1.1439404168631881, 1.1602755922358483, 1.1771910338429734, 1.1936770784668624, 1.2105751120252535, 1.2270403353031725, 1.2439271048642695, 1.2603629735531285, 1.27724496438168, 1.2936743476893753, 1.3104826107155532, 1.3270594499772415, 1.3439680648734793, 1.360271496232599, 1.3771736258640885, 1.3936941450228915, 1.4105972986435518, 1.4270212206756696, 1.443864299566485, 1.460352050838992, 1.4771862551569939, 1.4936630837619305, 1.510620509274304, 1.526998351328075, 1.5439052595756948, 1.5602831016294658, 1.5771934231743217, 1.5934268812416121, 1.610507869394496, 1.6269891352858394, 1.643904235563241, 1.6603107495466247, 1.677225167164579, 1.6936620597261935, 1.7106461093062535, 1.727029412635602, 1.7438871689373627, 1.76008103240747]
3	images/0421.jpg	images/0410.jpg	left	1.401	[0.0, 0.0, 0.0, 0.0, 0.0, 0.0, 0.0, 0.0, 0.0, 0.0, 0.0, 0.0, 0.0, 0.0, 0.0, 0.0, 0.0, 0.0, 0.0, 0.0, 0.0, 0.0, 0.0, 0.0, 0.0, 0.0, 0.0, 0.0, 0.0, 0.0, 0.0, 0.0, 0.0, 0.0, 0.0, 0.0, 0.0, 0.0, 0.0, 0.0, 0.0, 0.0, 0.0, 0.0, 0.0, 0.0, 0.0, 0.0, -20.0, -59.0, -115.0, -198.0, -295.0, -423.0, -549.0, -693.0, -807.0, -897.0, -954.0, -960.0, -960.0, -960.0, -960.0, -960.0, -960.0, -960.0, -960.0, -960.0, -960.0, -960.0, -960.0, -955.0, -938.0, -927.0, -912.0, -895.0, -886.0, -882.0, -882.0, -881.0, -881.0, -881.0, -881.0, -881.0]	[-490.0, -490.0, -490.0, -490.0, -490.0, -490.0, -490.0, -490.0, -490.0, -490.0, -490.0, -490.0, -490.0, -490.0, -490.0, -490.0, -490.0, -490.0, -490.0, -490.0, -490.0, -490.0, -490.0, -490.0, -490.0, -490.0, -490.0, -490.0, -490.0, -490.0, -490.0, -490.0, -490.0, -490.0, -490.0, -490.0, -490.0, -490.0, -490.0, -490.0, -490.0, -490.0, -490.0, -490.0, -490.0, -490.0, -490.0, -490.0, -433.0, -341.0, -230.0, -106.0, 19.0, 147.0, 270.0, 383.0, 468.0, 528.0, 540.0, 540.0, 540.0, 540.0, 540.0, 540.0, 540.0, 540.0, 540.0, 540.0, 538.0, 532.0, 524.0, 512.0, 486.0, 470.0, 455.0, 441.0, 435.0, 433.0, 433.0, 433.0, 433.0, 433.0, 433.0, 433.0]	[0.003932429593987763, 0.008079626131802797, 0.02434380422346294, 0.04012567875906825, 0.05874164158012718, 0.07472148921806365, 0.09103823266923428, 0.10801989282481372, 0.1243164975894615, 0.14132341637741774, 0.15766780776903033, 0.17466824129223824, 0.19106690457556397, 0.20798712479881942, 0.22437384154181927, 0.24132819508668035, 0.2576637117890641, 0.2746750679798424, 0.2911167392740026, 0.3080297914566472, 0.324397393502295, 0.3413776883389801, 0.35767668241169304, 0.3746429826132953, 0.39082489942666143, 0.40807075146585703, 0.4242123910225928, 0.4413920242805034, 0.45774290105327964, 0.47462216136045754, 0.49118364055175334, 0.5080564154777676, 0.5245096920989454, 0.5414032883709297, 0.5574592532357201, 0.5746928172884509, 0.5911249312339351, 0.6078987196087837, 0.6244001241866499, 0.6412926964694634, 0.657701941090636, 0.6746508332435042, 0.6910907978890464, 0.7079820048529655, 0.7243694041389972, 0.7413694963324815, 0.7576555197592825, 0.7747320705093443, 0.7911635019117966, 0.8081458447268233, 0.8245260760886595, 0.8413834909442812, 0.8578306236304343, 0.8746747266268358, 0.8910389152588323, 0.9079475301550701, 0.924477948108688, 0.9412752884672955, 0.9577302717370912, 0.9746723372954875, 0.9908429901115596, 1.0080250127939507, 1.0244042201666161, 1.0415172935463488, 1.0577446076786146, 1.07469179329928, 1.0910535926232114, 1.107938314205967, 1.1244141188217327, 1.1412527604261413, 1.157685215701349, 1.1746463959570974, 1.1909313953947276, 1.2079325115773827, 1.2244130948092788, 1.2413258056621999, 1.2577674770727754, 1.2746395693393424, 1.2909870326984674, 1.3079089595703408, 1.3244448387995362, 1.3412817737553269, 1.3577271996764466, 1.3747095426078886]
4	images/0557.jpg	images/0227.jpg	left	1.286	[0.0, 0.0, 0.0, 0.0, 0.0, 0.0, 0.0, 0.0, 0.0, 0.0, 0.0, 0.0, 0.0, 0.0, 0.0, 0.0, 0.0, 0.0, 0.0, 0.0, 0.0, 0.0, 0.0, 0.0, 0.0, 0.0, 0.0, 0.0, 0.0, 0.0, 0.0, 0.0, 0.0, 0.0, 0.0, 0.0, 0.0, 0.0, 0.0, 0.0, 0.0, 0.0, 0.0, 0.0, 0.0, 0.0, 1.0, 5.0, 5.0, -40.0, -128.0, -240.0, -433.0, -553.0, -655.0, -728.0, -771.0, -787.0, -793.0, -794.0, -798.0, -802.0, -807.0, -812.0, -823.0, -832.0, -836.0, -837.0, -830.0, -818.0, -807.0, -801.0, -800.0, -799.0, -798.0, -798.0, -798.0, -798.0]	[-490.0, -490.0, -490.0, -490.0, -490.0, -490.0, -490.0, -490.0, -490.0, -490.0, -490.0, -490.0, -490.0, -490.0, -490.0, -490.0, -490.0, -490.0, -490.0, -490.0, -490.0, -490.0, -490.0, -490.0, -490.0, -490.0, -490.0, -490.0, -490.0, -490.0, -490.0, -490.0, -490.0, -490.0, -490.0, -490.0, -490.0, -490.0, -490.0, -490.0, -490.0, -490.0, -490.0, -490.0, -490.0, -490.0, -479.0, -446.0, -361.0, -228.0, -47.0, 130.0, 380.0, 510.0, 540.0, 540.0, 540.0, 540.0, 540.0, 540.0, 540.0, 540.0, 540.0, 534.0, 519.0, 497.0, 469.0, 444.0, 418.0, 398.0, 387.0, 382.0, 381.0, 381.0, 381.0, 381.0, 381.0, 381.0]	[0.0076939198188483715, 0.012488283682614565, 0.017010946525260806, 0.032763807801529765, 0.04896210855804384, 0.06508224422577769, 0.0821034989785403, 0.0984226317377761, 0.11545105453114957, 0.13151145679876208, 0.14875833282712847, 0.1650603988673538, 0.18206492834724486, 0.19844584236852825, 0.21531213202979416, 0.23172854469157755, 0.2487091808579862, 0.2650272895116359, 0.28202226175926626, 0.298385426402092, 0.3153452413389459, 0.33176813926547766, 0.3486750475130975, 0.3651085267774761, 0.38202874700073153, 0.39849158097058535, 0.41531144932378083, 0.43168758472893387, 0.4486784607870504, 0.4651102335192263, 0.4820468376856297, 0.4984820237150416, 0.5154640252003446, 0.5317589233163744, 0.548709180788137, 0.5651088681770489, 0.5820434243651107, 0.5984502796782181, 0.6152902867179364, 0.6316124914446846, 0.6487405834486708, 0.6650900947861373, 0.6820499097229913, 0.6984414050821215, 0.7152933586621657, 0.7318544965237379, 0.7487747167469934, 0.7650037375278771, 0.782036256394349, 0.798202813253738, 0.8153175932820886, 0.8317845232086256, 0.8486839222023264, 0.8648207830265164, 0.8819287364603952, 0.8984468664275482, 0.91526878264267, 0.9318340165773407, 0.9487658421276137, 0.9648829057114199, 0.9820195310749114, 0.9982645945856348, 1.0153203239897266, 1.03176609124057, 1.0486706101801246, 1.065081902896054, 1.0819249817868695, 1.0984004450729117, 1.1153309053042904, 1.1318046619417146, 1.148713618167676, 1.1650423081591725, 1.18194614443928, 1.1984458423685282, 1.2152960892999545, 1.231456160894595, 1.2486907488200814, 1.2650518654845655]
5	images/0079.jpg	images/0216.jpg	left	1.14	[0.0, 0.0, 0.0, 0.0, 0.0, 0.0, 0.0, 0.0, 0.0, 0.0, 0.0, 0.0, 0.0, 0.0, 0.0, 0.0, 0.0, 0.0, 0.0, 0.0, 0.0, 0.0, 0.0, 0.0, 0.0, 0.0, 0.0, 0.0, 0.0, 0.0, 0.0, 0.0, 0.0, 0.0, 0.0, 0.0, -2.0, -12.0, -41.0, -126.0, -214.0, -300.0, -371.0, -425.0, -474.0, -522.0, -570.0, -615.0, -643.0, -666.0, -688.0, -714.0, -717.0, -717.0, -717.0, -717.0, -717.0, -717.0, -715.0, -713.0, -705.0, -700.0, -697.0, -695.0, -695.0, -695.0, -695.0, -695.0, -695.0]	[-490.0, -490.0, -490.0, -490.0, -490.0, -490.0, -490.0, -490.0, -490.0, -490.0, -490.0, -490.0, -490.0, -490.0, -490.0, -490.0, -490.0, -490.0, -490.0, -490.0, -490.0, -490.0, -490.0, -490.0, -490.0, -490.0, -490.0, -490.0, -490.0, -490.0, -490.0, -490.0, -490.0, -490.0, -490.0, -490.0, -480.0, -434.0, -347.0, -175.0, -33.0, 97.0, 207.0, 301.0, 364.0, 416.0, 454.0, 480.0, 495.0, 507.0, 522.0, 535.0, 536.0, 536.0, 536.0, 536.0, 534.0, 531.0, 522.0, 506.0, 484.0, 466.0, 452.0, 445.0, 443.0, 443.0, 443.0, 443.0, 443.0]	[0.00836975930724293, 0.013297584373503923, 0.019926954759284854, 0.032859039725735784, 0.04991749988403171, 0.06612194469198585, 0.08321351406630129, 0.09953810821752995, 0.11700821586418897, 0.1329095569672063, 0.14996528648771346, 0.16615368868224323, 0.1832537914160639, 0.20027231553103775, 0.21652659494429827, 0.23279998905491084, 0.25006085971836, 0.2670360346091911, 0.283099508844316, 0.2994213722413406, 0.3164941683644429, 0.3328443623613566, 0.34990077454131097, 0.36786410852801055, 0.38324423402082175, 0.3995964761124924, 0.4167064775247127, 0.4328139837598428, 0.44994583050720394, 0.4663407391635701, 0.4831841595005244, 0.4994271749164909, 0.5165678963530809, 0.5328040850581601, 0.5503899047616869, 0.5661652939161286, 0.5831612901529297, 0.5993592496961355, 0.6166276296135038, 0.6327679038513452, 0.6499557291390374, 0.6661181900417432, 0.6832503780024126, 0.6994510681834072, 0.7166129522956908, 0.7328703036764637, 0.7499086251482368, 0.7662280992371961, 0.7839521587593481, 0.799553468124941, 0.8169344880152494, 0.832653557183221, 0.8498779052169994, 0.8662526751868427, 0.8839385054307058, 0.899583846796304, 0.9168675866676494, 0.932792138424702, 0.9498669825261459, 0.9662291232962161, 0.9840726493857801, 0.9994176175678149, 1.0167784987716004, 1.0327651731204242, 1.049869713257067, 1.0662028406513855, 1.0833066980121657, 1.0995370841119438, 1.1167549467645586]
6	images/0328.jpg	images/0358.jpg	right	1.215	[0.0, 0.0, 0.0, 0.0, 0.0, 0.0, 0.0, 0.0, 0.0, 0.0, 0.0, 0.0, 0.0, 0.0, 0.0, 0.0, 0.0, 0.0, 0.0, 0.0, 0.0, 0.0, 0.0, 0.0, 0.0, 0.0, 0.0, 0.0, 0.0, 0.0, 0.0, 0.0, 0.0, 0.0, 0.0, 0.0, 0.0, 0.0, 0.0, 0.0, 0.0, 0.0, 27.0, 103.0, 288.0, 438.0, 594.0, 749.0, 870.0, 954.0, 959.0, 959.0, 959.0, 959.0, 959.0, 959.0, 959.0, 958.0, 954.0, 947.0, 936.0, 919.0, 896.0, 872.0, 852.0, 835.0, 824.0, 822.0, 822.0, 822.0, 822.0, 822.0, 822.0]	[-490.0, -490.0, -490.0, -490.0, -490.0, -490.0, -490.0, -490.0, -490.0, -490.0, -490.0, -490.0, -490.0, -490.0, -490.0, -490.0, -490.0, -490.0, -490.0, -490.0, -490.0, -490.0, -490.0, -490.0, -490.0, -490.0, -490.0, -490.0, -490.0, -490.0, -490.0, -490.0, -490.0, -490.0, -490.0, -490.0, -490.0, -490.0, -490.0, -490.0, -490.0, -490.0, -471.0, -416.0, -273.0, -150.0, -17.0, 104.0, 206.0, 267.0, 296.0, 305.0, 305.0, 305.0, 305.0, 305.0, 305.0, 306.0, 305.0, 305.0, 305.0, 305.0, 309.0, 312.0, 314.0, 317.0, 320.0, 320.0, 320.0, 320.0, 320.0, 320.0, 320.0]	[0.006001590634696186, 0.009646686143241823, 0.013261061743833125, 0.029226914746686816, 0.04516614379826933, 0.062302086502313614, 0.07849253679160029, 0.09556055418215692, 0.11180766567122191, 0.12942113331519067, 0.1451511251507327, 0.1622727318899706, 0.1784713740926236, 0.1955916155129671, 0.2118237082613632, 0.2291060829302296, 0.24603995645884424, 0.26929634192492813, 0.279154040152207, 0.295537002151832, 0.3126930835423991, 0.328790349769406, 0.34666254790499806, 0.3626099689863622, 0.37852462206501514, 0.39564486348535866, 0.41270844358950853, 0.4286626912653446, 0.4463843614794314, 0.46244851837400347, 0.4789601629599929, 0.49581757793202996, 0.5118970948969945, 0.5289391709957272, 0.5451412264956161, 0.5625601343344897, 0.579772194265388, 0.5954509862931445, 0.6140034610871226, 0.629017336294055, 0.6450831999536604, 0.6622140225954354, 0.6784362167818472, 0.6956673914100975, 0.7117551004048437, 0.7287801097845659, 0.7451917438302189, 0.7623273452045396, 0.7797977942973375, 0.7957063034409657, 0.8143615194130689, 0.8290381575934589, 0.8450787626206875, 0.862155654700473, 0.8783126542111859, 0.8956213115015998, 0.9117462256690487, 0.9288531551137567, 0.9450466772541404, 0.9622222146717831, 0.9792755547678098, 0.9954922875622287, 1.0124493717448786, 1.028904696344398, 1.0451456638984382, 1.0622263106051832, 1.0796001624548808, 1.0959493324626237, 1.111955462838523, 1.1290047069778666, 1.1459252685308456, 1.1620160494931042, 1.1797810689313337]
7	images/0271.jpg	images/0105.jpg	right	1.202	[0.0, 0.0, 0.0, 0.0, 0.0, 0.0, 0.0, 0.0, 0.0, 0.0, 0.0, 0.0, 0.0, 0.0, 0.0, 0.0, 0.0, 0.0, 0.0, 0.0, 0.0, 0.0, 0.0, 0.0, 0.0, 0.0, 0.0, 0.0, 0.0, 0.0, 0.0, 0.0, 0.0, 0.0, 0.0, 0.0, 0.0, 0.0, 0.0, 0.0, 0.0, 0.0, 0.0, 0.0, 0.0, 0.0, 0.0, 0.0, 4.0, 49.0, 134.0, 254.0, 379.0, 507.0, 616.0, 692.0, 734.0, 751.0, 756.0, 761.0, 764.0, 764.0, 764.0, 765.0, 765.0, 766.0, 767.0, 768.0, 768.0, 768.0, 768.0, 768.0, 768.0]	[-490.0, -490.0, -490.0, -490.0, -490.0, -490.0, -490.0, -490.0, -490.0, -490.0, -490.0, -490.0, -490.0, -490.0, -490.0, -490.0, -490.0, -490.0, -490.0, -490.0, -490.0, -490.0, -490.0, -490.0, -490.0, -490.0, -490.0, -490.0, -490.0, -490.0, -490.0, -490.0, -490.0, -490.0, -490.0, -490.0, -490.0, -490.0, -490.0, -490.0, -490.0, -490.0, -490.0, -490.0, -490.0, -490.0, -490.0, -490.0, -484.0, -428.0, -328.0, -189.0, -38.0, 112.0, 233.0, 319.0, 370.0, 389.0, 400.0, 408.0, 414.0, 416.0, 416.0, 417.0, 417.0, 418.0, 420.0, 424.0, 424.0, 424.0, 424.0, 424.0, 424.0]	[0.00708122702781111, 0.01139158068690449, 0.014993326971307397, 0.031047585303895175, 0.04749028058722615, 0.06443405279424042, 0.08083339873701334, 0.09784543758723885, 0.11407718912232667, 0.13114759582094848, 0.14751485653687268, 0.16448115673847497, 0.18092590000014752, 0.19782120292074978, 0.21427550353109837, 0.23114486515987664, 0.24747389659751207, 0.26440230885054916, 0.2808139427797869, 0.2977734162705019, 0.3139829811407253, 0.33098000136669725, 0.34753021656069905, 0.3645480580162257, 0.3808521721512079, 0.39782598160672933, 0.4143065648386255, 0.4310718198539689, 0.4473670592997223, 0.4645064154174179, 0.4807354361983016, 0.49768569378647953, 0.5142178182723001, 0.5311622731387615, 0.5474609258817509, 0.5644442928023636, 0.5807589881587774, 0.5977580563630909, 0.6141246344195679, 0.6311414518859237, 0.6475800510961562, 0.6645709272706881, 0.6808074574219063, 0.6978000402450562, 0.7142365915933624, 0.7311325771734118, 0.7474261099705473, 0.7645040260395035, 0.7807746895123273, 0.7977160724112764, 0.814218842308037, 0.83103802788537, 0.847446248633787, 0.8643828528001904, 0.8807115429081023, 0.8976307391421869, 0.9141188317444175, 0.9309441613731906, 0.9472267715027556, 0.964268164942041, 0.980578423012048, 0.9976512191351503, 1.0141444316832349, 1.0309786360012367, 1.047258174046874, 1.0644193754997104, 1.080757622839883, 1.0976512191118672, 1.1141283890465274, 1.1310294945724308, 1.1474520512856543, 1.16434155148454, 1.1807811748003587]
8	images/0367.jpg	images/0036.jpg	right	1.285	[0.0, 0.0, 0.0, 0.0, 0.0, 0.0, 0.0, 0.0, 0.0, 0.0, 0.0, 0.0, 0.0, 0.0, 0.0, 0.0, 0.0, 0.0, 0.0, 8.0, 16.0, 16.0, 16.0, 17.0, 23.0, 23.0, 23.0, 23.0, 23.0, 23.0, 24.0, 25.0, 24.0, 23.0, 21.0, 21.0, 21.0, 21.0, 21.0, 21.0, 21.0, 21.0, 21.0, 28.0, 37.0, 50.0, 73.0, 113.0, 184.0, 282.0, 387.0, 516.0, 636.0, 766.0, 872.0, 959.0, 959.0, 959.0, 959.0, 959.0, 959.0, 959.0, 959.0, 959.0, 959.0, 959.0, 944.0, 926.0, 909.0, 892.0, 879.0, 871.0, 864.0, 861.0, 860.0, 860.0, 860.0, 860.0]	[-490.0, -490.0, -490.0, -490.0, -490.0, -490.0, -490.0, -490.0, -490.0, -490.0, -490.0, -490.0, -490.0, -490.0, -490.0, -490.0, -490.0, -490.0, -490.0, -490.0, -490.0, -490.0, -490.0, -491.0, -494.0, -494.0, -494.0, -494.0, -495.0, -497.0, -500.0, -501.0, -502.0, -504.0, -504.0, -505.0, -505.0, -505.0, -505.0, -505.0, -505.0, -505.0, -504.0, -497.0, -489.0, -477.0, -459.0, -424.0, -357.0, -257.0, -143.0, -10.0, 107.0, 207.0, 280.0, 344.0, 359.0, 372.0, 376.0, 377.0, 378.0, 378.0, 378.0, 378.0, 379.0, 380.0, 393.0, 400.0, 405.0, 408.0, 409.0, 409.0, 409.0, 409.0, 409.0, 409.0, 409.0, 409.0]	[0.007604831946082413, 0.012327515869401395, 0.016573357628658414, 0.031371169025078416, 0.04849857836961746, 0.0648620844585821, 0.08187036856543273, 0.09787854691967368, 0.1149987883400172, 0.13157016620971262, 0.14843952772207558, 0.16477060713805258, 0.18183998996391892, 0.19813932536635548, 0.2150991401867941, 0.2316012274241075, 0.2484204131178558, 0.2647648045094684, 0.2817348593380302, 0.2981260133674368, 0.31513293215539306, 0.3314872222254053, 0.3484569357242435, 0.3649498070590198, 0.38188163260929286, 0.39819120801985264, 0.4152824360644445, 0.4315394462319091, 0.44837126112543046, 0.4648555991007015, 0.4818809499265626, 0.4981782373506576, 0.5151895934250206, 0.5315882568247616, 0.5484811704372987, 0.5648228310747072, 0.5817867419682443, 0.5981649253517389, 0.6151100628776476, 0.6315278408583254, 0.648414951749146, 0.6647904044948518, 0.6816444060532376, 0.6978618216235191, 0.7150694442680106, 0.7314868809189647, 0.7484364557312801, 0.7648433110443875, 0.7818963099271059, 0.7982676665997133, 0.8150250709149987, 0.8314667422091588, 0.8485054050106555, 0.8647747031645849, 0.8816799047635868, 0.8981133840279654, 0.9150513536296785, 0.9315234035020694, 0.9483524878742173, 0.9648392151575536, 0.9817881073104218, 0.9981782373506576, 1.015032580238767, 1.0315571954706684, 1.0483453198103234, 1.064838873804547, 1.0817382726818323, 1.0979348669061437, 1.1148912684293464, 1.1315660701366141, 1.1483340559061617, 1.1648494551191106, 1.1816853660857305, 1.198131815996021, 1.2150131242815405, 1.2314032543217763, 1.2483791118720546, 1.2648088365094736]
9	images/0483.jpg	images/0200.jpg	left	1.029	[0.0, 0.0, 0.0, 0.0, 0.0, 0.0, 0.0, 0.0, 0.0, 0.0, 0.0, 0.0, 0.0, 0.0, 0.0, 0.0, 0.0, 0.0, -2.0, -3.0, -4.0, -4.0, -4.0, -4.0, -4.0, -4.0, -4.0, -4.0, -4.0, -4.0, -4.0, -4.0, -4.0, -4.0, -4.0, -4.0, -4.0, -21.0, -89.0, -244.0, -374.0, -520.0, -630.0, -708.0, -736.0, -749.0, -753.0, -755.0, -755.0, -756.0, -760.0, -760.0, -760.0, -760.0, -760.0, -761.0, -761.0, -761.0, -761.0, -761.0, -761.0, -761.0]	[-490.0, -490.0, -490.0, -490.0, -490.0, -490.0, -490.0, -490.0, -490.0, -490.0, -490.0, -490.0, -490.0, -490.0, -490.0, -490.0, -490.0, -490.0, -490.0, -490.0, -490.0, -490.0, -490.0, -490.0, -490.0, -490.0, -490.0, -490.0, -490.0, -490.0, -490.0, -490.0, -490.0, -490.0, -490.0, -490.0, -490.0, -469.0, -382.0, -205.0, -75.0, 57.0, 176.0, 272.0, 322.0, 344.0, 356.0, 362.0, 369.0, 373.0, 382.0, 383.0, 390.0, 395.0, 402.0, 404.0, 404.0, 404.0, 404.0, 404.0, 404.0, 404.0]	[0.016699787229299545, 0.020749362534843385, 0.03297591209411621, 0.0499637161847204, 0.06641426216810942, 0.08331229572650045, 0.09968126309104264, 0.116603531409055, 0.13293529336806387, 0.14993504423182458, 0.1663115209667012, 0.1832744077546522, 0.19969901244621724, 0.21658066206146032, 0.23310527729336172, 0.24988384428434074, 0.2663647688459605, 0.2832921571098268, 0.29957920452579856, 0.31654652871657163, 0.3330776293296367, 0.3498831616016105, 0.36632961162831634, 0.3832866958109662, 0.3996853590942919, 0.416578272706829, 0.4330346212955192, 0.44998863351065665, 0.4664473715238273, 0.4833061518147588, 0.49969662306830287, 0.5165885126916692, 0.5330127760535106, 0.5499135402496904, 0.5664217715384439, 0.5833416504319757, 0.5996686337748542, 0.6165188808226958, 0.6330165306571871, 0.6498596096644178, 0.6662913822801784, 0.683247783803381, 0.6996491778409109, 0.7166618993505836, 0.7330861625960097, 0.7498507349519059, 0.766309131635353, 0.7831870265072212, 0.7996382551500574, 0.8165642780950293, 0.8330578319728374, 0.8498452736530453, 0.8663036703364924, 0.8832177465083078, 0.8995355139486492, 0.9165369714610279, 0.9330458852928132, 0.9500456361565739, 0.9664299634750932, 0.9832163811661303, 0.9996614658739418, 1.0165468701161444]
10	images/0420.jpg	images/0110.jpg	left	1.052	[0.0, 0.0, 0.0, 0.0, 0.0, 0.0, 0.0, 0.0, 0.0, 0.0, 0.0, 0.0, 0.0, 0.0, 0.0, 0.0, 0.0, 0.0, 0.0, 0.0, 0.0, 0.0, 0.0, 0.0, 0.0, 0.0, 0.0, 0.0, 0.0, 0.0, 0.0, 0.0, 0.0, 0.0, 0.0, 0.0, 0.0, -2.0, -10.0, -44.0, -106.0, -207.0, -332.0, -464.0, -591.0, -684.0, -740.0, -760.0, -760.0, -760.0, -760.0, -760.0, -761.0, -763.0, -763.0, -763.0, -763.0, -763.0, -763.0, -763.0, -763.0, -763.0, -763.0]	[-490.0, -490.0, -490.0, -490.0, -490.0, -490.0, -490.0, -490.0, -490.0, -490.0, -490.0, -490.0, -490.0, -490.0, -490.0, -490.0, -490.0, -490.0, -490.0, -490.0, -490.0, -490.0, -490.0, -490.0, -490.0, -490.0, -490.0, -490.0, -490.0, -490.0, -490.0, -490.0, -490.0, -490.0, -490.0, -490.0, -490.0, -482.0, -443.0, -362.0, -250.0, -112.0, 28.0, 156.0, 265.0, 336.0, 372.0, 384.0, 384.0, 384.0, 384.0, 384.0, 384.0, 384.0, 384.0, 384.0, 384.0, 384.0, 384.0, 384.0, 384.0, 384.0, 384.0]	[0.00489976757671684, 0.009177353233098984, 0.026376783847808838, 0.04274848196655512, 0.05994620593264699, 0.0763827571645379, 0.09329615079332143, 0.10966819012537599, 0.12667033029720187, 0.14312224159948528, 0.1601079978281632, 0.17624895472545177, 0.19333915878087282, 0.20971734216436744, 0.22656622377689928, 0.2430253030033782, 0.2599284566240385, 0.2763813919154927, 0.2932848867494613, 0.30974294210318476, 0.3266300529940054, 0.34314818296115845, 0.3600230058655143, 0.3763605705462396, 0.3932517775101587, 0.4097528407583013, 0.42661469301674515, 0.44294713775161654, 0.45995610451791435, 0.47639743459876627, 0.4932466575410217, 0.5096528301946819, 0.5266751089366153, 0.5430604603607208, 0.5600049152271822, 0.576107642846182, 0.5932429028907791, 0.6097023234469816, 0.6267071942565963, 0.6431079056346789, 0.6599202646175399, 0.6764380531385541, 0.6933367694728076, 0.709756595431827, 0.7265180958202109, 0.7430406629573554, 0.7598960299510509, 0.7761161761591211, 0.7932753295172006, 0.8094589529791847, 0.8265686130616814, 0.8430761616909876, 0.8598970539169386, 0.8763042506761849, 0.8932647481560707, 0.909518344909884, 0.9265225330600515, 0.943062849692069, 0.9599666858557612, 0.9763028853340074, 0.9933026360813528, 1.0096934487810358, 1.026595919742249]
11	images/0348.jpg	images/0480.jpg	right	1.199	[0.0, 0.0, 0.0, 0.0, 0.0, 0.0, 0.0, 0.0, 0.0, 0.0, 0.0, 0.0, 0.0, 0.0, 8.0, 18.0, 22.0, 22.0, 22.0, 22.0, 22.0, 22.0, 22.0, 22.0, 22.0, 22.0, 20.0, 12.0, -1.0, -11.0, -16.0, -17.0, -17.0, -17.0, -17.0, -17.0, -18.0, -18.0, -17.0, -17.0, -17.0, -17.0, -14.0, -14.0, -6.0, 5.0, 16.0, 50.0, 90.0, 127.0, 185.0, 266.0, 359.0, 517.0, 617.0, 703.0, 756.0, 777.0, 782.0, 783.0, 783.0, 783.0, 783.0, 783.0, 783.0, 783.0, 783.0, 783.0, 783.0, 783.0, 783.0, 783.0]	[-490.0, -490.0, -490.0, -490.0, -490.0, -490.0, -490.0, -490.0, -490.0, -490.0, -490.0, -490.0, -490.0, -489.0, -484.0, -476.0, -476.0, -476.0, -476.0, -476.0, -476.0, -476.0, -476.0, -476.0, -476.0, -476.0, -483.0, -491.0, -491.0, -496.0, -497.0, -497.0, -497.0, -497.0, -497.0, -497.0, -497.0, -493.0, -484.0, -473.0, -456.0, -437.0, -400.0, -357.0, -292.0, -213.0, -140.0, -69.0, 7.0, 74.0, 141.0, 214.0, 280.0, 375.0, 423.0, 459.0, 477.0, 484.0, 488.0, 488.0, 489.0, 489.0, 489.0, 489.0, 489.0, 489.0, 489.0, 489.0, 489.0, 489.0, 489.0, 489.0]	[0.015845430665649474, 0.019986483152024448, 0.031874089036136866, 0.04818127513863146, 0.06530424719676375, 0.08187562506645918, 0.09865999466273934, 0.11506889807060361, 0.13210551289375871, 0.14841645362321287, 0.1652899112086743, 0.18183603044599295, 0.19863678410183638, 0.2150477353716269, 0.23191300104372203, 0.2484420535620302, 0.26532540982589126, 0.281782099744305, 0.2987876533297822, 0.3151061033131555, 0.33203758753370494, 0.3484560481738299, 0.3653469138080254, 0.38184524641837925, 0.3986791094066575, 0.4150583167793229, 0.43197000364307314, 0.4485031522344798, 0.4652701138984412, 0.4817827824736014, 0.4986221067374572, 0.5150600234046578, 0.5320034542819485, 0.5484693602193147, 0.5653182418318465, 0.5818503664340824, 0.5985941174440086, 0.61491188488435, 0.631958739599213, 0.648436933523044, 0.6652882045600563, 0.6818558276863769, 0.698685594717972, 0.714919735561125, 0.7320706968894228, 0.7484208908863366, 0.7654387324582785, 0.7818708464037627, 0.7987224586540833, 0.8150890367105603, 0.8320119875716045, 0.8482246244093403, 0.8652789884945378, 0.8817759557859972, 0.8986166453687474, 0.9148221142822877, 0.932113022194244, 0.9484120162669569, 0.9652605565497652, 0.9818694810383022, 0.9987265546806157, 1.0150487594073638, 1.0320194968953729, 1.048257733695209, 1.0653974311426282, 1.0817148571368307, 1.098621424054727, 1.1150545621057972, 1.1320031129289418, 1.1483604749664664, 1.16526772454381, 1.181839443743229]
12	images/0083.jpg	images/0191.jpg	left	1.281	[0.0, 0.0, 0.0, 0.0, 0.0, 0.0, 0.0, 0.0, 0.0, 0.0, 0.0, 0.0, 0.0, 0.0, 0.0, 0.0, 0.0, 0.0, 0.0, 0.0, 0.0, 0.0, 0.0, 0.0, 0.0, 0.0, 0.0, 0.0, 0.0, 0.0, 0.0, 0.0, 0.0, 0.0, 0.0, 0.0, 0.0, 0.0, 0.0, 0.0, 0.0, 0.0, 0.0, 0.0, 0.0, -13.0, -57.0, -123.0, -220.0, -340.0, -525.0, -629.0, -699.0, -740.0, -766.0, -782.0, -791.0, -796.0, -803.0, -806.0, -806.0, -806.0, -806.0, -809.0, -811.0, -815.0, -820.0, -822.0, -823.0, -823.0, -823.0, -823.0, -823.0, -823.0, -823.0, -823.0, -823.0]	[-490.0, -490.0, -490.0, -490.0, -490.0, -490.0, -490.0, -490.0, -490.0, -490.0, -490.0, -490.0, -490.0, -490.0, -490.0, -490.0, -490.0, -490.0, -490.0, -490.0, -490.0, -490.0, -490.0, -490.0, -490.0, -490.0, -490.0, -490.0, -490.0, -490.0, -490.0, -490.0, -490.0, -490.0, -490.0, -490.0, -490.0, -490.0, -490.0, -490.0, -490.0, -490.0, -486.0, -479.0, -451.0, -362.0, -239.0, -101.0, 39.0, 184.0, 354.0, 430.0, 477.0, 496.0, 504.0, 511.0, 516.0, 519.0, 521.0, 521.0, 521.0, 521.0, 521.0, 521.0, 521.0, 520.0, 515.0, 513.0, 511.0, 511.0, 511.0, 511.0, 511.0, 511.0, 511.0, 511.0, 511.0]	[0.005324385943822563, 0.010622898698784411, 0.02703316742554307, 0.04395816626492888, 0.06027798168361187, 0.07732586050406098, 0.09379620372783393, 0.11054780543781817, 0.12691062886733562, 0.14387112634722143, 0.16024657909292728, 0.1771705539431423, 0.19360642251558602, 0.21055190148763359, 0.22669251705519855, 0.24388375564012676, 0.2602704723831266, 0.2772268739063293, 0.29358525993302464, 0.31048670678865165, 0.32693691144231707, 0.3439602142898366, 0.3600827391492203, 0.3771657752804458, 0.39346852398011833, 0.4105191334383562, 0.42690755682997406, 0.44387419836129993, 0.4602957309689373, 0.47732244711369276, 0.49366479052696377, 0.5106280187610537, 0.5269116527633741, 0.5439342729514465, 0.5603182589402422, 0.5771551938960329, 0.5936804917873815, 0.6105017254594713, 0.6269573915051296, 0.6438980916282162, 0.6603930109413341, 0.6772446231916547, 0.6936726411804557, 0.7105061628390104, 0.7269358874764293, 0.7438448437023908, 0.7603213309776038, 0.7771900099469349, 0.7936098359059542, 0.8104501841589808, 0.8269338394748047, 0.8438018357846886, 0.8602998269489035, 0.8772920684423298, 0.8937183797825128, 0.9104624722385779, 0.9269031195435673, 0.9438192436937243, 0.9603216722607613, 0.9771528046112508, 0.9936651318566874, 1.0104662268422544, 1.0267126556718722, 1.0438632756704465, 1.060327133629471, 1.077264420571737, 1.0937248651171103, 1.110545416129753, 1.1269116528565064, 1.1439093556255102, 1.1603049469413236, 1.177136079291813, 1.1935849186265841, 1.2105208401335403, 1.226955343503505, 1.2438318730564788, 1.2600335872266442]
13	images/0525.jpg	images/0238.jpg	left	1.653	[0.0, 0.0, 0.0, 0.0, 0.0, 0.0, 0.0, 0.0, 0.0, 0.0, 0.0, 0.0, 0.0, 0.0, 0.0, 0.0, 0.0, 0.0, 0.0, 0.0, 0.0, 0.0, 0.0, 0.0, 0.0, 0.0, 0.0, 0.0, 0.0, 0.0, 0.0, 0.0, 0.0, 0.0, 0.0, 0.0, 0.0, 0.0, 0.0, 0.0, 0.0, 0.0, 0.0, 0.0, 0.0, 0.0, 0.0, 3.0, 53.0, 125.0, 246.0, 369.0, 498.0, 604.0, 674.0, 708.0, 715.0, 716.0, 716.0, 716.0, 717.0, 717.0, 717.0, 717.0, 717.0, 717.0, 717.0, 717.0, 717.0, 714.0, 710.0, 705.0, 702.0, 700.0, 694.0, 672.0, 613.0, 497.0, 360.0, 204.0, 29.0, -157.0, -338.0, -483.0, -637.0, -704.0, -749.0, -774.0, -790.0, -798.0, -805.0, -810.0, -813.0, -814.0, -814.0, -814.0, -814.0, -814.0, -814.0, -814.0]	[-490.0, -490.0, -490.0, -490.0, -490.0, -490.0, -490.0, -490.0, -490.0, -490.0, -490.0, -490.0, -490.0, -490.0, -490.0, -490.0, -490.0, -490.0, -490.0, -490.0, -490.0, -490.0, -490.0, -490.0, -490.0, -490.0, -490.0, -490.0, -490.0, -490.0, -490.0, -490.0, -490.0, -490.0, -490.0, -490.0, -490.0, -490.0, -490.0, -490.0, -490.0, -490.0, -490.0, -490.0, -490.0, -490.0, -490.0, -482.0, -422.0, -347.0, -217.0, -90.0, 31.0, 128.0, 191.0, 222.0, 230.0, 232.0, 234.0, 234.0, 234.0, 235.0, 235.0, 235.0, 236.0, 238.0, 242.0, 249.0, 259.0, 276.0, 290.0, 302.0, 307.0, 310.0, 315.0, 321.0, 337.0, 353.0, 361.0, 361.0, 377.0, 401.0, 427.0, 444.0, 470.0, 478.0, 485.0, 486.0, 486.0, 486.0, 486.0, 486.0, 485.0, 485.0, 485.0, 485.0, 485.0, 485.0, 485.0, 485.0]	[0.006810549763031304, 0.011135239386931062, 0.015536046354100108, 0.02985121274832636, 0.046825363649986684, 0.06308851775247604, 0.08018247655127198, 0.09649205196183175, 0.11352627736050636, 0.12995463667903095, 0.14679942233487964, 0.16339298686943948, 0.18014970852527767, 0.19654973724391311, 0.21350750408601016, 0.22968498361296952, 0.246747198398225, 0.2630400484194979, 0.28018145251553506, 0.2963377693668008, 0.3134559628088027, 0.3297778262058273, 0.3468168303370476, 0.3630622351774946, 0.3801548285409808, 0.3965838705189526, 0.4135365174151957, 0.4299293780932203, 0.44688407296780497, 0.46331038419157267, 0.48023982043378055, 0.4966029851930216, 0.513560410705395, 0.5299891113536432, 0.5468420889228582, 0.5632400696631521, 0.5801643858430907, 0.5965845531318337, 0.6134586934931576, 0.6299007061170414, 0.6468482329510152, 0.6633431522641331, 0.6801237672334537, 0.6965674865059555, 0.7135054561076686, 0.7297436929075047, 0.7468059076927602, 0.7630345871439204, 0.780233335099183, 0.7965958171989769, 0.8135460746707395, 0.8299822846893221, 0.846916840877384, 0.8634397494606674, 0.8802128551760688, 0.8966381425270811, 0.9135443679988384, 0.9299641940742731, 0.9467656303895637, 0.963313797605224, 0.9801285458961502, 0.9966238065389916, 1.013523205416277, 1.0298962687375024, 1.0468158063013107, 1.0630789604038, 1.0801370792323723, 1.096591379842721, 1.1135027253767475, 1.1299368874169886, 1.1467611930565909, 1.1632465550210327, 1.180099191260524, 1.1965374492574483, 1.2135399307589978, 1.2299375700531527, 1.2468123929575086, 1.263318917597644, 1.2801480018533766, 1.2965439344989136, 1.3133996428223327, 1.3299041193677112, 1.3467994222883135, 1.363260890939273, 1.380107041914016, 1.3964469960192218, 1.413457328104414, 1.4298839807743207, 1.4468601796543226, 1.4633038989268243, 1.480139127233997, 1.4965435932390392, 1.5134658614406362, 1.5298809087835252, 1.5468082970473915, 1.563248944352381, 1.5801459539216012, 1.5967139183776453, 1.6135146720334888, 1.629919138038531]
14	images/0541.jpg	images/0055.jpg	right	1.4	[0.0, 0.0, 0.0, 0.0, 0.0, 0.0, 0.0, 0.0, 0.0, 0.0, 0.0, 0.0, 0.0, 0.0, 0.0, 0.0, 0.0, 0.0, 0.0, 0.0, 0.0, 0.0, 0.0, 0.0, 0.0, 0.0, 0.0, 0.0, 0.0, 0.0, 0.0, 0.0, 0.0, 0.0, 0.0, 0.0, 0.0, 0.0, 0.0, 0.0, 0.0, 0.0, 0.0, 0.0, 0.0, 0.0, 0.0, 0.0, 0.0, 0.0, 0.0, 0.0, 0.0, 2.0, 13.0, 43.0, 101.0, 196.0, 317.0, 442.0, 564.0, 671.0, 751.0, 795.0, 800.0, 800.0, 800.0, 800.0, 800.0, 800.0, 800.0, 797.0, 789.0, 782.0, 778.0, 766.0, 761.0, 760.0, 760.0, 760.0, 760.0, 760.0, 760.0, 760.0]	[-490.0, -490.0, -490.0, -490.0, -490.0, -490.0, -490.0, -490.0, -490.0, -490.0, -490.0, -490.0, -490.0, -490.0, -490.0, -490.0, -490.0, -490.0, -490.0, -490.0, -490.0, -490.0, -490.0, -490.0, -490.0, -490.0, -490.0, -490.0, -490.0, -490.0, -490.0, -490.0, -490.0, -490.0, -490.0, -490.0, -490.0, -490.0, -490.0, -490.0, -490.0, -490.0, -490.0, -490.0, -490.0, -490.0, -490.0, -490.0, -490.0, -490.0, -490.0, -490.0, -490.0, -490.0, -476.0, -434.0, -357.0, -245.0, -118.0, 8.0, 128.0, 234.0, 303.0, 342.0, 350.0, 351.0, 352.0, 352.0, 352.0, 352.0, 352.0, 352.0, 349.0, 345.0, 341.0, 332.0, 327.0, 326.0, 326.0, 326.0, 326.0, 326.0, 326.0, 326.0]	[0.004238946712575853, 0.008067679475061595, 0.02491109981201589, 0.04168966680299491, 0.05863173236139119, 0.07500377169344574, 0.09194071730598807, 0.10815471946261823, 0.12517290224786848, 0.1414148936746642, 0.15862422296777368, 0.1747699585976079, 0.19188303197734058, 0.20838853251188993, 0.22522990487050265, 0.24180469603743404, 0.25857268169056624, 0.27502322767395526, 0.2918335386784747, 0.30839433521032333, 0.32523570745252073, 0.3417278961278498, 0.35851226572413, 0.37476142519153655, 0.39180828002281487, 0.4082188900792971, 0.42528759012930095, 0.44165553350467235, 0.45860818040091544, 0.47500889166258276, 0.4919192133238539, 0.5083701005205512, 0.5252541394438595, 0.5414456137223169, 0.5585870177019387, 0.5750187903176993, 0.5918645999627188, 0.6082704312866554, 0.6252367314882576, 0.6416818161960691, 0.6586061323760077, 0.6750126463593915, 0.691871426650323, 0.7083765858551487, 0.7252370727946982, 0.7416824988322333, 0.7585573217365891, 0.7750140116550028, 0.7919127279892564, 0.8082567780511454, 0.825231270166114, 0.8417145841522142, 0.858581556356512, 0.875019131693989, 0.8919280879199505, 0.9084291511680931, 0.925235707545653, 0.9416760135209188, 0.958589407033287, 0.9750102569814771, 0.9918731333455071, 1.0083776098908857, 1.0252200062386692, 1.0417193627217785, 1.0585463991155848, 1.0749809023691341, 1.0919072666438296, 1.1083308472298086, 1.125219323555939, 1.1416647494770586, 1.158564148354344, 1.1749972864054143, 1.1918830319773406, 1.2083881911821663, 1.225190651603043, 1.2417299441294745, 1.25854366843123, 1.2750249343225732, 1.2918751812539995, 1.308349620550871, 1.3252398035256192, 1.3417118533980101, 1.358585993759334, 1.3750389290507883]
15	images/0319.jpg	images/0269.jpg	left	1.272	[0.0, 0.0, 0.0, 0.0, 0.0, 0.0, 0.0, 0.0, 0.0, 0.0, 0.0, 0.0, 0.0, 0.0, 0.0, 0.0, 0.0, 0.0, 0.0, 0.0, 0.0, 0.0, 0.0, 0.0, 0.0, 0.0, 0.0, 0.0, 0.0, 0.0, 0.0, 0.0, 0.0, 0.0, 0.0, 0.0, 0.0, 0.0, 0.0, 0.0, 0.0, 0.0, 0.0, 0.0, 0.0, 0.0, 0.0, 0.0, 0.0, -15.0, -50.0, -99.0, -160.0, -274.0, -407.0, -528.0, -629.0, -710.0, -761.0, -783.0, -792.0, -799.0, -801.0, -801.0, -801.0, -802.0, -802.0, -805.0, -806.0, -807.0, -809.0, -809.0, -809.0, -809.0, -809.0, -809.0, -809.0]	[-490.0, -490.0, -490.0, -490.0, -490.0, -490.0, -490.0, -490.0, -490.0, -489.0, -488.0, -488.0, -488.0, -488.0, -488.0, -488.0, -488.0, -488.0, -488.0, -488.0, -488.0, -488.0, -488.0, -488.0, -488.0, -488.0, -488.0, -488.0, -488.0, -488.0, -488.0, -488.0, -488.0, -488.0, -488.0, -488.0, -488.0, -488.0, -488.0, -488.0, -488.0, -488.0, -488.0, -488.0, -488.0, -488.0, -485.0, -481.0, -461.0, -417.0, -346.0, -256.0, -166.0, -40.0, 86.0, 192.0, 277.0, 344.0, 388.0, 408.0, 420.0, 430.0, 435.0, 435.0, 435.0, 435.0, 435.0, 435.0, 435.0, 435.0, 430.0, 427.0, 427.0, 427.0, 427.0, 427.0, 427.0]	[0.013602872611954808, 0.019922312581911683, 0.026567725581116974, 0.04329099669121206, 0.05964699340984225, 0.07658564555458724, 0.09310377552174032, 0.10992535040713847, 0.12636565638240427, 0.14319883671123534, 0.15970126527827233, 0.17660202959086746, 0.1930249275173992, 0.20990828378126025, 0.22636668046470731, 0.24322682607453316, 0.2594186415662989, 0.27668190153781325, 0.2929682662943378, 0.309896337101236, 0.326335619087331, 0.34337632986716926, 0.3595934041077271, 0.37664674420375377, 0.3929757756413892, 0.40990657708607614, 0.4263533684425056, 0.4433026019250974, 0.45962890272494406, 0.47666551754809916, 0.4929767996072769, 0.509869713219814, 0.5263827231246978, 0.543202591361478, 0.5595637081423774, 0.5765453682979569, 0.5931109434459358, 0.609903505188413, 0.6263421043986455, 0.643232970032841, 0.6596456280676648, 0.6765535603044555, 0.6927805331069976, 0.7098792705219239, 0.7263455177890137, 0.7431967887096107, 0.7594367321580648, 0.7766242162324488, 0.7930232208454981, 0.8099349078256637, 0.8264677149709314, 0.8433217166457325, 0.8597043373156339, 0.8765112350229174, 0.8927849704632536, 0.9097860865294933, 0.9263557577505708, 0.9431421754416078, 0.9596333400113508, 0.9765091870212927, 0.9927539090858772, 1.009829777176492, 1.0260400247061625, 1.0430339728482068, 1.0596606467152014, 1.0766248988220468, 1.0927269437815994, 1.1098106625722721, 1.1263414217391983, 1.143352436600253, 1.1595807747216895, 1.1765238642692566, 1.193006154266186, 1.2098468438489363, 1.2264069577213377, 1.2432114660041407, 1.2596821506740525]
16	images/0024.jpg	images/0416.jpg	left	1.251	[0.0, 0.0, 0.0, 0.0, 0.0, 0.0, 0.0, 0.0, 0.0, 0.0, 0.0, 0.0, 0.0, 0.0, 0.0, 0.0, 0.0, 0.0, 0.0, 0.0, 0.0, 0.0, 0.0, 0.0, 0.0, 0.0, 0.0, 0.0, 0.0, 0.0, 0.0, 0.0, 0.0, 0.0, 0.0, 0.0, 0.0, 0.0, 0.0, 0.0, 0.0, 0.0, 0.0, 0.0, 0.0, 0.0, 0.0, 0.0, 0.0, -10.0, -47.0, -164.0, -292.0, -440.0, -590.0, -721.0, -830.0, -899.0, -936.0, -946.0, -948.0, -948.0, -948.0, -948.0, -948.0, -948.0, -948.0, -948.0, -948.0, -948.0, -947.0, -946.0, -946.0, -945.0, -945.0, -945.0]	[-490.0, -490.0, -490.0, -490.0, -490.0, -490.0, -490.0, -490.0, -490.0, -490.0, -490.0, -490.0, -490.0, -490.0, -490.0, -490.0, -490.0, -490.0, -490.0, -490.0, -490.0, -490.0, -490.0, -490.0, -490.0, -490.0, -490.0, -490.0, -490.0, -490.0, -490.0, -490.0, -490.0, -490.0, -490.0, -490.0, -490.0, -490.0, -490.0, -490.0, -490.0, -490.0, -490.0, -490.0, -490.0, -490.0, -490.0, -490.0, -486.0, -462.0, -398.0, -246.0, -115.0, 15.0, 138.0, 243.0, 322.0, 372.0, 405.0, 417.0, 420.0, 420.0, 420.0, 420.0, 420.0, 420.0, 424.0, 428.0, 435.0, 438.0, 442.0, 443.0, 443.0, 443.0, 443.0, 443.0]	[0.00585754809435457, 0.010133768431842327, 0.013559386832639575, 0.028044878505170345, 0.04486918414477259, 0.061355570098385215, 0.0782218596432358, 0.09461779240518808, 0.11150387930683792, 0.12772163609042764, 0.1446401496650651, 0.1613593247020617, 0.17821981164161116, 0.19463895505759865, 0.21171243372373283, 0.2278899133671075, 0.2448889814550057, 0.2611500875791535, 0.2782809103373438, 0.2946007257560268, 0.3115410845493898, 0.32796193461399525, 0.3448596268426627, 0.36134021007455885, 0.37816997710615396, 0.39472155761905015, 0.41160866850987077, 0.42804999847430736, 0.4448766935383901, 0.46132382610812783, 0.4783013903070241, 0.4945874137338251, 0.5115325512597337, 0.5279854865511879, 0.5448555308394134, 0.5613477193983272, 0.578194894362241, 0.59458912035916, 0.6117032178444788, 0.6279469159198925, 0.644852458848618, 0.6613460127264261, 0.6782071823254228, 0.6946140377549455, 0.7116165191400796, 0.7279680785723031, 0.7448575788876042, 0.7613600074546412, 0.7782679396914318, 0.7946382723748684, 0.8115615645656362, 0.8280230332165956, 0.8449347200803459, 0.8613344074692577, 0.8782727182842791, 0.8946669442811981, 0.9115902365883812, 0.9276557588018477, 0.9448227628599852, 0.961147015565075, 0.9781604197341949, 0.9945979950716719, 1.0115212872624397, 1.027956131962128, 1.0448439255123958, 1.0610565623501316, 1.0782020624028519, 1.0946249603293836, 1.1114711113041267, 1.1277475773822516, 1.1447633708594367, 1.1613634207751602, 1.1781904570525512, 1.1943925125524402, 1.2114113779971376, 1.227973198518157]
17	images/0405.jpg	images/0116.jpg	right	1.603	[0.0, 0.0, 0.0, 0.0, 0.0, 0.0, 0.0, 0.0, 0.0, 0.0, 0.0, 0.0, 0.0, 0.0, 0.0, -1.0, -1.0, -1.0, -1.0, -1.0, -1.0, -1.0, -1.0, -1.0, -1.0, -1.0, -1.0, -1.0, -1.0, -1.0, -1.0, -1.0, -1.0, -1.0, -1.0, -1.0, -1.0, -1.0, -1.0, -1.0, -1.0, -1.0, -1.0, 0.0, 1.0, 1.0, 1.0, 1.0, 1.0, 1.0, 1.0, 1.0, 1.0, -3.0, -16.0, -49.0, -110.0, -200.0, -300.0, -396.0, -441.0, -450.0, -453.0, -452.0, -432.0, -370.0, -168.0, 29.0, 259.0, 512.0, 729.0, 906.0, 959.0, 959.0, 959.0, 959.0, 959.0, 959.0, 958.0, 957.0, 954.0, 950.0, 946.0, 945.0, 943.0, 939.0, 931.0, 923.0, 916.0, 913.0, 913.0, 911.0, 911.0, 911.0, 911.0, 911.0, 911.0]	[-490.0, -490.0, -490.0, -490.0, -490.0, -490.0, -490.0, -490.0, -490.0, -490.0, -490.0, -490.0, -490.0, -490.0, -490.0, -490.0, -490.0, -490.0, -490.0, -490.0, -490.0, -490.0, -490.0, -490.0, -490.0, -490.0, -490.0, -490.0, -490.0, -490.0, -490.0, -490.0, -490.0, -490.0, -490.0, -490.0, -490.0, -490.0, -490.0, -490.0, -490.0, -488.0, -486.0, -483.0, -481.0, -480.0, -479.0, -478.0, -477.0, -475.0, -473.0, -469.0, -463.0, -450.0, -431.0, -384.0, -297.0, -193.0, -82.0, 12.0, 59.0, 78.0, 97.0, 116.0, 131.0, 146.0, 177.0, 208.0, 243.0, 271.0, 286.0, 304.0, 317.0, 326.0, 326.0, 326.0, 326.0, 326.0, 326.0, 326.0, 326.0, 326.0, 326.0, 326.0, 326.0, 329.0, 330.0, 331.0, 332.0, 334.0, 334.0, 335.0, 335.0, 335.0, 335.0, 335.0, 335.0]	[0.006668213987722993, 0.011568049783818424, 0.015464366530068219, 0.029819810297340155, 0.046600766596384346, 0.06299123796634376, 0.07991521281655878, 0.09646542801056057, 0.11327096039894968, 0.12940884521231055, 0.14670180121902376, 0.16301683790516108, 0.17992067418526858, 0.1962507296120748, 0.21322044311091304, 0.2297501782886684, 0.24657482525799423, 0.2627369448309764, 0.2798394368728623, 0.29640637745615095, 0.313267205725424, 0.32966347970068455, 0.34662739059422165, 0.3629622246371582, 0.37994525011163205, 0.3962968095438555, 0.41324126441031694, 0.4296491437125951, 0.44657346000894904, 0.4630554085597396, 0.4799414954613894, 0.49641354545019567, 0.5133562936680391, 0.5294470745138824, 0.546636606566608, 0.5629560806555673, 0.5799452501814812, 0.5961735883029178, 0.6132156644016504, 0.6296464130282402, 0.6465997425839305, 0.6627471848623827, 0.6798947328934446, 0.6962927135173231, 0.713293147040531, 0.7295883864862844, 0.7468048837035894, 0.7627017875202, 0.7798367062350735, 0.7963749747723341, 0.813207472441718, 0.829599991790019, 0.8465540040051565, 0.8629396966425702, 0.8798735701711848, 0.8961336523061618, 0.9132183950860053, 0.9294651652453467, 0.9466386545682326, 0.963075888575986, 0.9798834688263014, 0.9963278708746657, 1.0132040590979159, 1.0296262743650004, 1.0465792625909671, 1.0629690513014793, 1.079878690186888, 1.0963090974837542, 1.1132149817422032, 1.129740962292999, 1.146659134537913, 1.1627174888271838, 1.1798728875583038, 1.1964074014686048, 1.213242971105501, 1.2297494956292212, 1.2465529799228534, 1.2628468540497124, 1.2799251114483923, 1.2964108147425577, 1.3131784590659663, 1.3296658690087497, 1.3466280732536688, 1.3627645927481353, 1.3798704982036725, 1.3963616627734154, 1.4131740217562765, 1.4296829357044771, 1.446533523965627, 1.4630424379138276, 1.4799186261370778, 1.4963435721583664, 1.5132108858088031, 1.5297020503785461, 1.5465867719613016, 1.5629782673204318, 1.5798486529383808]
18	images/0115.jpg	images/0520.jpg	left	1.284	[0.0, 0.0, 0.0, 0.0, 0.0, 0.0, 0.0, 0.0, 0.0, 0.0, 0.0, 0.0, 0.0, 0.0, 0.0, 0.0, 0.0, 0.0, 0.0, 0.0, 0.0, 0.0, 0.0, 0.0, 0.0, 0.0, 0.0, 0.0, 0.0, 0.0, 0.0, 0.0, 0.0, 0.0, 0.0, 0.0, 0.0, 0.0, 0.0, 0.0, 0.0, 0.0, 0.0, 0.0, 0.0, -3.0, -32.0, -82.0, -163.0, -268.0, -379.0, -486.0, -578.0, -638.0, -668.0, -681.0, -690.0, -690.0, -690.0, -690.0, -690.0, -690.0, -690.0, -690.0, -690.0, -690.0, -690.0, -690.0, -690.0, -690.0, -690.0, -690.0, -690.0, -690.0, -690.0, -690.0, -690.0, -690.0]	[-490.0, -490.0, -490.0, -490.0, -490.0, -490.0, -490.0, -490.0, -490.0, -490.0, -490.0, -490.0, -490.0, -490.0, -490.0, -490.0, -490.0, -490.0, -490.0, -490.0, -490.0, -490.0, -490.0, -490.0, -490.0, -490.0, -490.0, -490.0, -490.0, -490.0, -490.0, -490.0, -490.0, -490.0, -490.0, -490.0, -490.0, -490.0, -490.0, -490.0, -490.0, -490.0, -490.0, -490.0, -490.0, -483.0, -411.0, -330.0, -243.0, -127.0, -8.0, 108.0, 194.0, 246.0, 273.0, 285.0, 292.0, 292.0, 292.0, 292.0, 292.0, 292.0, 292.0, 292.0, 292.0, 292.0, 292.0, 292.0, 292.0, 292.0, 292.0, 292.0, 292.0, 292.0, 292.0, 292.0, 292.0, 292.0]	[0.007298314711079001, 0.011286449967883527, 0.015160921378992498, 0.0314070088788867, 0.04788861609995365, 0.06474500708281994, 0.08123651298228651, 0.09814717585686594, 0.11439087404869497, 0.1314107634825632, 0.1479121680604294, 0.1647542230784893, 0.18120954767800868, 0.19808949064463377, 0.21455744456034154, 0.23146844876464456, 0.24786847748328, 0.2646965377498418, 0.28122968634124845, 0.29808095726184547, 0.3145530072506517, 0.33159781398717314, 0.3479213840328157, 0.3647415937157348, 0.38125972368288785, 0.39808846660889685, 0.4145731459138915, 0.43144216609653085, 0.44771214690990746, 0.4646866391412914, 0.48106721183285117, 0.49806764523964375, 0.5145164845744148, 0.5314476274652407, 0.5478913467377424, 0.5647163350367919, 0.5812761075794697, 0.5981103118974715, 0.6144017967162654, 0.6314087155042216, 0.6478910053847358, 0.6647252097027376, 0.6811146570835263, 0.6980915386229753, 0.7144676739117131, 0.7314885874511674, 0.7479848719667643, 0.764795865630731, 0.7812266143737361, 0.798120210529305, 0.8144837166182697, 0.8314093981171027, 0.8475653737550601, 0.8646238337969407, 0.8812095476314425, 0.8980092772981152, 0.914457433973439, 0.9313841395778582, 0.9478363920934498, 0.9646979031385854, 0.9812317342730239, 0.998031122609973, 1.0145014659501612, 1.0313732168870047, 1.0477909948676825, 1.064705753698945, 1.081114998436533, 1.0980785680003464, 1.114539695205167, 1.1314237341284752, 1.1477828028146178, 1.1647968896431848, 1.1811627850402147, 1.1980990478768945, 1.2144721113145351, 1.2313663902459666, 1.2478169361129403, 1.264676399063319]
19	images/0297.jpg	images/0135.jpg	left	1.469	[0.0, 0.0, 0.0, 0.0, 0.0, 0.0, 0.0, 0.0, 0.0, 0.0, 0.0, 0.0, 0.0, 0.0, 0.0, 0.0, 0.0, 0.0, 0.0, 0.0, 0.0, 0.0, 0.0, 0.0, 0.0, 0.0, 0.0, 0.0, 0.0, 0.0, 0.0, 0.0, 0.0, 0.0, 0.0, 0.0, 0.0, 0.0, 0.0, 0.0, 0.0, 0.0, 0.0, 0.0, 0.0, 0.0, 0.0, 0.0, 0.0, 0.0, 0.0, 0.0, 0.0, 0.0, -1.0, 6.0, 26.0, 66.0, 155.0, 218.0, 269.0, 309.0, 331.0, 335.0, 327.0, 289.0, 208.0, 73.0, -72.0, -296.0, -433.0, -547.0, -629.0, -682.0, -708.0, -724.0, -731.0, -735.0, -735.0, -736.0, -738.0, -738.0, -738.0, -738.0, -738.0, -738.0, -738.0, -738.0, -738.0]	[-490.0, -490.0, -490.0, -490.0, -490.0, -490.0, -490.0, -490.0, -490.0, -490.0, -490.0, -490.0, -490.0, -490.0, -490.0, -490.0, -490.0, -490.0, -490.0, -490.0, -490.0, -490.0, -490.0, -490.0, -490.0, -490.0, -490.0, -490.0, -490.0, -490.0, -490.0, -490.0, -490.0, -490.0, -490.0, -490.0, -490.0, -490.0, -490.0, -490.0, -490.0, -490.0, -490.0, -490.0, -490.0, -490.0, -490.0, -490.0, -490.0, -490.0, -490.0, -490.0, -490.0, -490.0, -489.0, -479.0, -458.0, -424.0, -351.0, -294.0, -230.0, -158.0, -102.0, -69.0, -42.0, -8.0, 46.0, 103.0, 164.0, 226.0, 264.0, 301.0, 327.0, 346.0, 353.0, 358.0, 360.0, 361.0, 361.0, 361.0, 361.0, 361.0, 361.0, 361.0, 361.0, 361.0, 361.0, 361.0, 361.0]	[0.007994634215719998, 0.012495451723225415, 0.017868716502562165, 0.03242725343443453, 0.0492348336847499, 0.0657478435896337, 0.08260730654001236, 0.09901689260732383, 0.11599923542235047, 0.13238117343280464, 0.14929422561544925, 0.16570176370441914, 0.18259331188164651, 0.19906843383796513, 0.21597977937199175, 0.23238185606896877, 0.24927784164901823, 0.26548194512724876, 0.28250661329366267, 0.29890425270423293, 0.3159569101408124, 0.3323839041404426, 0.34926521230954677, 0.365796995582059, 0.38262369052972645, 0.3990581938996911, 0.4160316620254889, 0.4323398721171543, 0.4495130201103166, 0.4657106383237988, 0.4826752318767831, 0.49898173520341516, 0.5159125367645174, 0.5324064320884645, 0.5492580443387851, 0.5657386275706813, 0.5826165225589648, 0.5990663858829066, 0.6159395021386445, 0.632345333462581, 0.6492751110345125, 0.6657611556584015, 0.6825912639033049, 0.6987783007789403, 0.7158650915371254, 0.7323917547473684, 0.7492703323950991, 0.7657481849892065, 0.7826523624826223, 0.7990814044605941, 0.8159842167515308, 0.832340213470161, 0.8493324549635872, 0.8657635449199006, 0.8825506452703848, 0.8990373725537211, 0.9159422328229994, 0.9322634135605767, 0.9492099164053798, 0.9656881103292108, 0.9825987732037902, 0.9990063111763448, 1.015993432723917, 1.032087285653688, 1.0492256176657975, 1.0657420409843326, 1.082581706577912, 1.0990213298937306, 1.1159002488711849, 1.132361717405729, 1.1492109403479844, 1.1656174544477835, 1.1825608852086589, 1.199038396589458, 1.2159773900639266, 1.2321244910126552, 1.2492222044384107, 1.2656952782999724, 1.2826301758177578, 1.298796050134115, 1.31604804599192, 1.3323893654160202, 1.3492628230014816, 1.3654600998852402, 1.3825151466298848, 1.3989953885320574, 1.4159091234905645, 1.4323941441252828, 1.4492160603404045]
20	images/0234.jpg	images/0049.jpg	left	1.315	[0.0, 0.0, 0.0, 0.0, 0.0, 0.0, 0.0, 0.0, 0.0, 0.0, 0.0, 0.0, 0.0, 0.0, 0.0, 0.0, 0.0, 0.0, 0.0, 0.0, 0.0, 0.0, 0.0, 0.0, 0.0, 0.0, 0.0, 0.0, 0.0, 0.0, 0.0, 0.0, 0.0, 0.0, 0.0, 0.0, 0.0, 0.0, 0.0, 0.0, 0.0, 0.0, 0.0, 0.0, 0.0, 0.0, -3.0, -13.0, -49.0, -119.0, -207.0, -317.0, -429.0, -530.0, -622.0, -696.0, -766.0, -790.0, -801.0, -804.0, -804.0, -804.0, -808.0, -811.0, -814.0, -818.0, -821.0, -827.0, -833.0, -833.0, -833.0, -833.0, -833.0, -833.0, -833.0, -833.0, -833.0, -833.0, -833.0]	[-490.0, -490.0, -490.0, -490.0, -490.0, -490.0, -490.0, -490.0, -490.0, -490.0, -490.0, -490.0, -490.0, -490.0, -490.0, -490.0, -490.0, -490.0, -490.0, -490.0, -490.0, -490.0, -490.0, -490.0, -490.0, -490.0, -490.0, -490.0, -490.0, -490.0, -490.0, -490.0, -490.0, -490.0, -490.0, -490.0, -490.0, -490.0, -490.0, -490.0, -490.0, -490.0, -490.0, -490.0, -490.0, -490.0, -468.0, -422.0, -347.0, -246.0, -137.0, -20.0, 89.0, 192.0, 283.0, 352.0, 425.0, 454.0, 465.0, 468.0, 468.0, 468.0, 469.0, 469.0, 469.0, 469.0, 469.0, 469.0, 469.0, 469.0, 469.0, 469.0, 469.0, 469.0, 469.0, 469.0, 469.0, 469.0, 469.0]	[0.005652065388858318, 0.010958770290017128, 0.027604558737948537, 0.04455037892330438, 0.06097259419038892, 0.07794981705956161, 0.09425529651343822, 0.1112342260312289, 0.12763084133621305, 0.1445397975621745, 0.16102686617523432, 0.17786175315268338, 0.19430137646850199, 0.21121852472424507, 0.22762435604818165, 0.24450259224977344, 0.26098249293863773, 0.2778542438754812, 0.2943266350775957, 0.3112809886224568, 0.32768955058418214, 0.34463980817236006, 0.3610268662450835, 0.37796108110342175, 0.39433687506243587, 0.4112738206749782, 0.4276281107449904, 0.4445077122654766, 0.460993415559642, 0.47791602509096265, 0.49437988304998726, 0.5113062473246828, 0.5275366334244609, 0.5445326295448467, 0.561048028874211, 0.5778723345138133, 0.5943901230348274, 0.6113553992472589, 0.6276226493064314, 0.6444732376839966, 0.6610234528779984, 0.6779436731012538, 0.694191467249766, 0.7112386632943526, 0.72763698536437, 0.7445298989769071, 0.7609562102006748, 0.7778539025457576, 0.794330048491247, 0.811350961914286, 0.827357433619909, 0.8445653975941241, 0.860911154304631, 0.8778655078494921, 0.8942604165058583, 0.9112079433398321, 0.9275977320503443, 0.9444428590359166, 0.960957916919142, 0.9778484412236139, 0.994020800688304, 1.0111676660599187, 1.0277475772891194, 1.0444343256531283, 1.0609961461741477, 1.077804067870602, 1.0942945497808978, 1.1111328500555828, 1.127610019990243, 1.1444452482974157, 1.1608678050106391, 1.1778160145040601, 1.194265877828002, 1.2111755167134106, 1.2275939773535356, 1.2444715310120955, 1.2609514315845445, 1.2778201105538756, 1.2942556377965957]
21	images/0475.jpg	images/0528.jpg	right	2.001	[0.0, 0.0, 0.0, 0.0, 0.0, 0.0, 0.0, 0.0, 0.0, 0.0, 0.0, 0.0, 0.0, 0.0, 0.0, 0.0, 0.0, 0.0, 0.0, 0.0, 0.0, 0.0, 0.0, 0.0, 0.0, 0.0, 0.0, 0.0, 0.0, 0.0, 0.0, 0.0, 0.0, 0.0, 0.0, 0.0, 0.0, 0.0, 0.0, 0.0, 0.0, 0.0, -4.0, -19.0, -29.0, -31.0, -31.0, -31.0, -31.0, -31.0, -31.0, -31.0, -31.0, -31.0, -31.0, -31.0, -33.0, -76.0, -148.0, -232.0, -320.0, -420.0, -532.0, -625.0, -764.0, -850.0, -901.0, -924.0, -927.0, -927.0, -927.0, -927.0, -927.0, -927.0, -927.0, -927.0, -923.0, -914.0, -901.0, -882.0, -863.0, -831.0, -783.0, -718.0, -648.0, -565.0, -449.0, -363.0, -255.0, -117.0, 60.0, 270.0, 483.0, 673.0, 830.0, 930.0, 959.0, 959.0, 959.0, 959.0, 959.0, 959.0, 959.0, 959.0, 954.0, 940.0, 917.0, 893.0, 864.0, 817.0, 776.0, 746.0, 732.0, 732.0, 732.0, 732.0, 732.0, 732.0, 732.0, 732.0]	[-490.0, -490.0, -490.0, -490.0, -490.0, -490.0, -490.0, -490.0, -490.0, -490.0, -490.0, -490.0, -490.0, -490.0, -490.0, -490.0, -490.0, -490.0, -490.0, -490.0, -490.0, -490.0, -490.0, -490.0, -490.0, -490.0, -490.0, -490.0, -490.0, -490.0, -490.0, -490.0, -490.0, -490.0, -490.0, -490.0, -490.0, -490.0, -490.0, -490.0, -490.0, -490.0, -488.0, -488.0, -489.0, -489.0, -489.0, -489.0, -489.0, -489.0, -489.0, -489.0, -489.0, -489.0, -489.0, -489.0, -489.0, -452.0, -352.0, -243.0, -138.0, -27.0, 84.0, 197.0, 359.0, 461.0, 518.0, 540.0, 540.0, 540.0, 540.0, 540.0, 540.0, 540.0, 540.0, 540.0, 536.0, 525.0, 508.0, 489.0, 470.0, 448.0, 421.0, 390.0, 361.0, 325.0, 283.0, 262.0, 249.0, 228.0, 219.0, 219.0, 219.0, 229.0, 255.0, 284.0, 304.0, 315.0, 321.0, 321.0, 321.0, 321.0, 324.0, 328.0, 334.0, 340.0, 348.0, 354.0, 364.0, 377.0, 389.0, 397.0, 401.0, 401.0, 401.0, 401.0, 401.0, 401.0, 401.0, 401.0]	[0.0042652294505387545, 0.008482399163767695, 0.025282128830440342, 0.042234093067236245, 0.05838904459960759, 0.0755468326387927, 0.09196631726808846, 0.10889848414808512, 0.12530090217478573, 0.14220644510351121, 0.15865494310855865, 0.17554717394523323, 0.191989186569117, 0.20885376958176494, 0.22539067280013114, 0.2421617304207757, 0.2586177377961576, 0.27551406470593065, 0.2919721199432388, 0.3088742495747283, 0.3253268435364589, 0.3421692397678271, 0.35862831911072135, 0.37557652860414237, 0.39194583729840815, 0.408841481548734, 0.42531353153754026, 0.4421989357797429, 0.45860647375229746, 0.4756178299430758, 0.4919820185750723, 0.5088554761605337, 0.5253002195386216, 0.5422917783726007, 0.5586849803803489, 0.5755874512251467, 0.591955394600518, 0.6088360202265903, 0.6252613075776026, 0.6421805038116872, 0.658579167095013, 0.6755751633318141, 0.6916823282372206, 0.7088336308952421, 0.7253565394785255, 0.7421648025047034, 0.7586412897799164, 0.7756058832164854, 0.7920311705674976, 0.8087984735611826, 0.825358587433584, 0.8421999597921968, 0.8584187405649573, 0.8755406886339188, 0.8919267227174714, 0.9089001908432692, 0.9254753233399242, 0.9421306691365317, 0.9583624206716195, 0.9755079207243398, 0.9919687065994367, 1.0088384095579386, 1.0250725504010916, 1.0421798210591078, 1.0585784844588488, 1.0754915366414934, 1.0919492506654933, 1.108829193515703, 1.1253053394611925, 1.142164119752124, 1.1586092044599354, 1.1755376165965572, 1.1919253573287278, 1.208819977589883, 1.2253367421217263, 1.2421484184451401, 1.2583525219233707, 1.2755365927005187, 1.2920690585160628, 1.3088797108503059, 1.3253599527524784, 1.3421695810975507, 1.3585696098161861, 1.3754867580719292, 1.3918867866741493, 1.4087940362514928, 1.4253678034292534, 1.4421187224797904, 1.4583221432985738, 1.4754454566864297, 1.4919915759237483, 1.5088032522471622, 1.5253654140979052, 1.5421422744402662, 1.5586286603938788, 1.5754710567416623, 1.5919806532328948, 1.608834654907696, 1.625340496771969, 1.6422303384169936, 1.6586231990950182, 1.6754908540751785, 1.6919352560071275, 1.708825780195184, 1.7252411688677967, 1.7421265731099993, 1.7586324150906876, 1.775475493981503, 1.791972802602686, 1.808740105596371, 1.8253469821065664, 1.8421610477380455, 1.8585996470646933, 1.8755225980421528, 1.8920461891684681, 1.9088759562000632, 1.9253046568483114, 1.9421514904825017, 1.9586597217712551, 1.975515429978259]
22	images/0564.jpg	images/0443.jpg	left	1.725	[0.0, 0.0, 0.0, 0.0, 0.0, 0.0, 0.0, 0.0, 0.0, 0.0, 0.0, 0.0, 0.0, 0.0, 0.0, 0.0, 0.0, 0.0, 0.0, 0.0, 0.0, 0.0, 0.0, 0.0, 0.0, 0.0, 0.0, 0.0, 0.0, 0.0, 0.0, 0.0, 0.0, 0.0, 0.0, 0.0, 0.0, 0.0, 0.0, 0.0, 0.0, 0.0, 0.0, 0.0, 0.0, 0.0, 0.0, 0.0, 0.0, 0.0, 0.0, 0.0, 0.0, 0.0, 0.0, 0.0, 0.0, 0.0, 0.0, 0.0, 0.0, 0.0, 0.0, 0.0, 0.0, 0.0, 0.0, 0.0, 0.0, 0.0, 0.0, 0.0, 0.0, -18.0, -70.0, -154.0, -262.0, -384.0, -509.0, -621.0, -715.0, -777.0, -818.0, -849.0, -872.0, -913.0, -927.0, -932.0, -933.0, -933.0, -933.0, -933.0, -933.0, -933.0, -933.0, -933.0, -933.0, -933.0, -933.0, -933.0, -933.0, -933.0, -933.0]	[-490.0, -490.0, -490.0, -490.0, -490.0, -490.0, -490.0, -490.0, -490.0, -490.0, -490.0, -490.0, -490.0, -490.0, -490.0, -490.0, -490.0, -490.0, -490.0, -490.0, -490.0, -490.0, -490.0, -490.0, -490.0, -490.0, -490.0, -490.0, -490.0, -490.0, -490.0, -490.0, -490.0, -490.0, -490.0, -490.0, -490.0, -490.0, -490.0, -490.0, -490.0, -490.0, -490.0, -490.0, -490.0, -490.0, -490.0, -490.0, -490.0, -490.0, -490.0, -490.0, -490.0, -490.0, -490.0, -490.0, -490.0, -490.0, -490.0, -490.0, -490.0, -490.0, -490.0, -490.0, -490.0, -490.0, -490.0, -490.0, -490.0, -490.0, -490.0, -490.0, -490.0, -439.0, -370.0, -281.0, -183.0, -86.0, 6.0, 93.0, 170.0, 221.0, 250.0, 273.0, 292.0, 321.0, 329.0, 330.0, 330.0, 330.0, 330.0, 330.0, 330.0, 330.0, 330.0, 330.0, 330.0, 330.0, 330.0, 330.0, 330.0, 330.0, 330.0]	[0.0035173685755580664, 0.007132426835596561, 0.023598674102686346, 0.04023149190470576, 0.057143178884871304, 0.07349985826294869, 0.09041666518896818, 0.1068771097343415, 0.12375875934958458, 0.14019121462479234, 0.15710290160495788, 0.17354627954773605, 0.19039652647916228, 0.20686789380852133, 0.2238352179992944, 0.2402270546881482, 0.25711177627090365, 0.27351658360566944, 0.2904381691478193, 0.3068880324717611, 0.32378709001932293, 0.3401710760081187, 0.3571093869395554, 0.37355378887150437, 0.39042076119221747, 0.4068552644457668, 0.4237847006879747, 0.4399652521824464, 0.4569919683272019, 0.47354764491319656, 0.49040335312020034, 0.5067064432660118, 0.5237529566511512, 0.5401734653860331, 0.5570189335849136, 0.5734022370306775, 0.5904480677563697, 0.6067945071263239, 0.6237683166982606, 0.6401731240330264, 0.6571356694912538, 0.673517607501708, 0.6904910757439211, 0.7068723310949281, 0.7237925513181835, 0.7401918973773718, 0.7570998296141624, 0.7735261408379301, 0.7904354385100305, 0.8067859738366678, 0.8237509087193757, 0.8401714173378423, 0.8570943681988865, 0.8735640288796276, 0.8904354384867474, 0.9068743791431189, 0.9237901619635522, 0.9401191934011877, 0.9572913174051791, 0.9735408182023093, 0.9903972091851756, 1.0068347844062373, 1.0237724126782268, 1.040212377323769, 1.05707491224166, 1.0735462795710191, 1.0904142757644877, 1.1068317124154419, 1.1237055114470422, 1.140150937368162, 1.157106997561641, 1.1734851809451357, 1.1903832145035267, 1.206844000495039, 1.2237317940453067, 1.2401973586529493, 1.25711996818427, 1.273562663467601, 1.2903678545262665, 1.3068265924230218, 1.3236973193706945, 1.3401833639945835, 1.357098464271985, 1.3735923594795167, 1.3904678650433198, 1.4068323951214552, 1.4238597939256579, 1.4399597909068689, 1.4570390722947195, 1.4735397942131385, 1.4903995984932408, 1.5068173764739186, 1.52378265268635, 1.5401789266616106, 1.5570742295822129, 1.5735060021979734, 1.590421102475375, 1.606834443169646, 1.6237700233468786, 1.6401666386518627, 1.6570738882292062, 1.673585191485472, 1.6904057424981147]
23	images/0571.jpg	images/0052.jpg	left	1.253	[0.0, 0.0, 0.0, 0.0, 0.0, 0.0, 0.0, 0.0, 0.0, 0.0, 0.0, 0.0, 0.0, 0.0, 0.0, 0.0, 0.0, 0.0, 0.0, 0.0, 0.0, 0.0, 0.0, 0.0, 0.0, 0.0, 0.0, 0.0, 0.0, 0.0, 0.0, 0.0, 0.0, 0.0, 0.0, 0.0, 0.0, 0.0, 0.0, 0.0, 0.0, 0.0, 0.0, 0.0, 0.0, 0.0, 0.0, 0.0, 0.0, 4.0, 26.0, 28.0, -12.0, -83.0, -165.0, -271.0, -386.0, -497.0, -598.0, -686.0, -752.0, -811.0, -850.0, -870.0, -870.0, -870.0, -870.0, -870.0, -870.0, -870.0, -870.0, -870.0, -870.0, -870.0, -870.0, -870.0]	[-490.0, -490.0, -490.0, -490.0, -490.0, -490.0, -490.0, -490.0, -490.0, -490.0, -490.0, -490.0, -490.0, -490.0, -490.0, -490.0, -490.0, -490.0, -490.0, -490.0, -490.0, -490.0, -490.0, -490.0, -490.0, -490.0, -490.0, -490.0, -490.0, -490.0, -490.0, -490.0, -490.0, -490.0, -490.0, -490.0, -490.0, -490.0, -490.0, -490.0, -490.0, -490.0, -490.0, -490.0, -490.0, -490.0, -490.0, -490.0, -490.0, -482.0, -419.0, -354.0, -262.0, -166.0, -72.0, 27.0, 118.0, 196.0, 253.0, 302.0, 337.0, 363.0, 381.0, 390.0, 390.0, 390.0, 390.0, 390.0, 390.0, 390.0, 390.0, 390.0, 390.0, 390.0, 390.0, 390.0]	[0.009337097057141364, 0.013922565151005983, 0.019290709868073463, 0.03497803525533527, 0.05201396730262786, 0.0682173881214112, 0.08519700029864907, 0.10176735417917371, 0.11866299842949957, 0.13505620043724775, 0.15199690067674965, 0.16840273200068623, 0.1852376189781353, 0.20178442087490112, 0.2186503690900281, 0.23505210445728153, 0.2519197594374418, 0.26840409729629755, 0.285249906941317, 0.3017929542111233, 0.31865992641542107, 0.33504561916925013, 0.3519730073167011, 0.36837508401367813, 0.3852557096397504, 0.4017444849014282, 0.41858688124921173, 0.4350626857485622, 0.4520050926366821, 0.4683733773417771, 0.4852376190247014, 0.5017526769079268, 0.5186698251636699, 0.5350633685011417, 0.5520122606540099, 0.5684143373509869, 0.5852048509987071, 0.6017680368386209, 0.6186247691512108, 0.6350589311914518, 0.6519811993930489, 0.6683576760115102, 0.6852963282726705, 0.7016683676047251, 0.7186063372064382, 0.7350964777870104, 0.7519504793453962, 0.7682078308425844, 0.7852297683712095, 0.8017018182436004, 0.8185844918480143, 0.8350555178476498, 0.8519129327032715, 0.8683214947814122, 0.8852686802856624, 0.9017980741336942, 0.91864354244899, 0.9349005526164547, 0.9519607194233686, 0.9683808867121115, 0.9852164563490078, 1.0017431195592508, 1.0185967799043283, 1.0350486910901964, 1.0519351194379851, 1.068373377318494, 1.0852516136365011, 1.1017752048792318, 1.1186933771241456, 1.1350876031210646, 1.1519839300308377, 1.1683989773737267, 1.1852471763268113, 1.2017673541558906, 1.218623745138757, 1.2350640511140227]
24	images/0396.jpg	images/0506.jpg	left	1.502	[0.0, 0.0, 0.0, 0.0, 0.0, 0.0, 0.0, 0.0, 0.0, 0.0, 0.0, 0.0, 0.0, 0.0, 0.0, 0.0, 0.0, 0.0, 0.0, 0.0, 0.0, 0.0, 0.0, 0.0, 0.0, 0.0, 0.0, 0.0, 0.0, 0.0, 0.0, 0.0, 0.0, 0.0, 0.0, 0.0, 0.0, 0.0, 0.0, 0.0, 0.0, 0.0, 0.0, 0.0, 0.0, 0.0, 0.0, 0.0, 0.0, 0.0, -9.0, -18.0, -21.0, -26.0, -41.0, -65.0, -106.0, -161.0, -238.0, -336.0, -455.0, -574.0, -667.0, -729.0, -784.0, -824.0, -867.0, -882.0, -886.0, -889.0, -892.0, -895.0, -902.0, -906.0, -908.0, -909.0, -909.0, -909.0, -909.0, -904.0, -890.0, -871.0, -853.0, -840.0, -833.0, -832.0, -832.0, -832.0, -832.0, -832.0, -832.0]	[-490.0, -490.0, -490.0, -490.0, -490.0, -490.0, -490.0, -490.0, -490.0, -490.0, -490.0, -490.0, -490.0, -490.0, -490.0, -490.0, -490.0, -490.0, -490.0, -490.0, -490.0, -490.0, -490.0, -490.0, -490.0, -490.0, -490.0, -490.0, -490.0, -490.0, -490.0, -490.0, -490.0, -490.0, -490.0, -490.0, -490.0, -490.0, -490.0, -490.0, -490.0, -490.0, -490.0, -490.0, -490.0, -490.0, -490.0, -490.0, -490.0, -490.0, -489.0, -485.0, -482.0, -472.0, -436.0, -384.0, -312.0, -204.0, -75.0, 56.0, 185.0, 293.0, 364.0, 409.0, 447.0, 470.0, 489.0, 494.0, 494.0, 494.0, 494.0, 494.0, 492.0, 492.0, 490.0, 482.0, 473.0, 467.0, 457.0, 442.0, 423.0, 406.0, 392.0, 384.0, 380.0, 380.0, 380.0, 380.0, 380.0, 380.0, 380.0]	[0.005960972048342228, 0.010138547164388001, 0.014792281785048544, 0.028612515307031572, 0.0451855999417603, 0.06196177762467414, 0.07848878216464072, 0.09551208489574492, 0.11184657772537321, 0.12875553395133466, 0.14514771196991205, 0.16205018281470984, 0.17851574742235243, 0.19540115166455507, 0.2118254150263965, 0.22868999792262912, 0.24531291716266423, 0.2620484761428088, 0.27850687282625586, 0.2953912530792877, 0.31179025769233704, 0.3287002379074693, 0.3450869546504691, 0.36211128148715943, 0.3784921955084428, 0.39542811701539904, 0.41152367659378797, 0.42873300588689744, 0.44523748254869133, 0.4620802201097831, 0.4784969741012901, 0.4954008103813976, 0.5118161990540102, 0.5287210593232885, 0.5451801385497674, 0.5621959320269525, 0.5784959500888363, 0.5955083302687854, 0.6117769457632676, 0.6347984940512106, 0.6449524693889543, 0.6620443802094087, 0.678482296760194, 0.6954779516672716, 0.7116670365212485, 0.7288534964900464, 0.7450002559926361, 0.7622129986993968, 0.7783611235208809, 0.7953458557603881, 0.8116649885196239, 0.8287558752344921, 0.8452053972287104, 0.8619924975791946, 0.878483320819214, 0.8954240210587159, 0.9119554628850892, 0.9287142326356843, 0.9452047145459801, 0.9620208281558007, 0.9785058487905189, 0.9953192317625508, 1.011749639059417, 1.0286592779448256, 1.0452347518876195, 1.0620583748677745, 1.0784792248159647, 1.0954465490067378, 1.1118783216224983, 1.128749048570171, 1.1453176958020777, 1.1619727002689615, 1.1784396301954985, 1.1953192317159846, 1.2115653192158788, 1.2286739553092048, 1.2452228051843122, 1.2620081988861784, 1.278504824731499, 1.2953857916872948, 1.3117786523653194, 1.3286391393048689, 1.3452661545015872, 1.3619856708683074, 1.3784549902193248, 1.3953680424019694, 1.4117718257475644, 1.4286654220195487, 1.4451842345297337, 1.4620443801395595, 1.4784263181500137]
25	images/0505.jpg	images/0138.jpg	left	1.202	[0.0, 0.0, 0.0, 0.0, 0.0, 0.0, 0.0, 0.0, 0.0, 0.0, 0.0, 0.0, 0.0, 0.0, 0.0, 0.0, 0.0, 0.0, 0.0, 0.0, 0.0, 0.0, 0.0, 0.0, 0.0, 0.0, 0.0, 0.0, 0.0, 0.0, 0.0, 0.0, 0.0, 0.0, 0.0, 0.0, 0.0, 0.0, 0.0, 0.0, 0.0, 0.0, 0.0, 0.0, 0.0, 0.0, -5.0, -33.0, -108.0, -203.0, -311.0, -416.0, -504.0, -573.0, -659.0, -741.0, -807.0, -843.0, -861.0, -872.0, -874.0, -874.0, -874.0, -874.0, -874.0, -874.0, -874.0, -874.0, -874.0, -874.0, -874.0, -874.0, -874.0]	[-490.0, -490.0, -490.0, -490.0, -490.0, -490.0, -490.0, -490.0, -490.0, -490.0, -490.0, -490.0, -490.0, -490.0, -490.0, -490.0, -490.0, -490.0, -490.0, -490.0, -490.0, -490.0, -490.0, -490.0, -490.0, -490.0, -490.0, -490.0, -490.0, -490.0, -490.0, -490.0, -490.0, -490.0, -490.0, -490.0, -490.0, -490.0, -490.0, -490.0, -490.0, -490.0, -490.0, -490.0, -488.0, -466.0, -434.0, -391.0, -280.0, -187.0, -92.0, -1.0, 73.0, 127.0, 194.0, 255.0, 304.0, 332.0, 348.0, 357.0, 358.0, 359.0, 359.0, 359.0, 359.0, 359.0, 359.0, 359.0, 359.0, 359.0, 359.0, 359.0, 359.0]	[0.006619744701310992, 0.011274844640865922, 0.015752792824059725, 0.029696588986553252, 0.04645092133432627, 0.06287040596362203, 0.07984216755721718, 0.09604968433268368, 0.11299482185859233, 0.12926241336390376, 0.14649119868408889, 0.1628919099457562, 0.17980257282033563, 0.19616061763372272, 0.21312964847311378, 0.22950987983494997, 0.24642497999593616, 0.26281784067396075, 0.2798227114835754, 0.29614798829425126, 0.31313852313905954, 0.3295201198197901, 0.34645569999702275, 0.3628202300751582, 0.37981110624969006, 0.39616368955466896, 0.4131559310480952, 0.42938904790207744, 0.44645945460069925, 0.46281272068154067, 0.4798425087938085, 0.4961643721908331, 0.513122480479069, 0.5294798425165936, 0.5463860681047663, 0.5629233126528561, 0.5798066689167172, 0.5961510603083298, 0.6130856164963916, 0.6295211437391117, 0.6464202014030889, 0.6628157927189022, 0.6798414848744869, 0.6961247776634991, 0.7130671844352037, 0.7295624450780451, 0.7464608199661598, 0.7627581073902547, 0.7798012074781582, 0.7961455988697708, 0.8131777764065191, 0.8294815490953624, 0.8464567239861935, 0.8629963578423485, 0.87978414085228, 0.8961418442195281, 0.9130688911536708, 0.9295324077829719, 0.9463560307631269, 0.9628130620112643, 0.9797360128723085, 0.9961121482774615, 1.0130460218060762, 1.0295303597813472, 1.0464853959856555, 1.0628243259852752, 1.0797240663086995, 1.0959121271735057, 1.1128995899343863, 1.1295204610796645, 1.1463795827003196, 1.1628526566782966, 1.1797087063314393]
26	images/0539.jpg	images/0567.jpg	right	1.519	[0.0, 0.0, 0.0, 0.0, 0.0, 0.0, 0.0, 0.0, 0.0, 0.0, 0.0, 0.0, 0.0, 0.0, 0.0, 0.0, 0.0, 0.0, 0.0, 0.0, 0.0, 0.0, 0.0, 0.0, 0.0, 0.0, 0.0, 0.0, 0.0, 0.0, 0.0, 0.0, 0.0, 0.0, 0.0, 0.0, 0.0, 0.0, 0.0, 0.0, 0.0, 0.0, 0.0, 0.0, 0.0, 0.0, 4.0, 16.0, 42.0, 100.0, 189.0, 312.0, 458.0, 604.0, 742.0, 888.0, 922.0, 931.0, 933.0, 933.0, 933.0, 933.0, 932.0, 929.0, 918.0, 902.0, 888.0, 866.0, 853.0, 839.0, 829.0, 826.0, 824.0, 822.0, 820.0, 816.0, 814.0, 806.0, 798.0, 790.0, 785.0, 779.0, 773.0, 768.0, 765.0, 765.0, 765.0, 765.0, 765.0, 765.0, 765.0, 765.0]	[-490.0, -490.0, -490.0, -490.0, -490.0, -490.0, -490.0, -490.0, -490.0, -490.0, -490.0, -490.0, -490.0, -490.0, -490.0, -490.0, -490.0, -490.0, -490.0, -490.0, -490.0, -490.0, -490.0, -490.0, -490.0, -490.0, -490.0, -490.0, -490.0, -490.0, -490.0, -490.0, -490.0, -490.0, -490.0, -490.0, -490.0, -490.0, -490.0, -490.0, -490.0, -490.0, -490.0, -490.0, -483.0, -472.0, -457.0, -432.0, -389.0, -310.0, -217.0, -109.0, -9.0, 60.0, 103.0, 144.0, 156.0, 163.0, 164.0, 167.0, 170.0, 174.0, 176.0, 178.0, 184.0, 191.0, 197.0, 203.0, 207.0, 210.0, 211.0, 212.0, 212.0, 214.0, 218.0, 224.0, 234.0, 249.0, 273.0, 292.0, 307.0, 323.0, 337.0, 350.0, 357.0, 358.0, 358.0, 358.0, 358.0, 358.0, 358.0, 358.0]	[0.00595346256159246, 0.010622215922921896, 0.014235908864066005, 0.02820393955335021, 0.04509139189030975, 0.06136990594677627, 0.0783314275322482, 0.09470961079932749, 0.11179742554668337, 0.12794111319817603, 0.14507125318050385, 0.16137639130465686, 0.17838740604929626, 0.19470005354378372, 0.21176022035069764, 0.22804214770440012, 0.2451060691382736, 0.26135625259485096, 0.27841812605038285, 0.2947106348583475, 0.31176295096520334, 0.3280134757515043, 0.34509105049073696, 0.3613548872526735, 0.3784205154515803, 0.39469664019998163, 0.41174486035015434, 0.42817321966867894, 0.44506203720811754, 0.4615661724237725, 0.4784836620092392, 0.49485706677660346, 0.5117469083052129, 0.5282025742344558, 0.5450910505605862, 0.5615869937464595, 0.5783983287401497, 0.5948652586666867, 0.6117230149684474, 0.628231928916648, 0.6450241492129862, 0.6615880178287625, 0.6783812621142715, 0.6948519466677681, 0.7117704602424055, 0.7281483022961766, 0.7449883092194796, 0.7616183963837102, 0.7783648781478405, 0.7947174614528194, 0.8117168709868565, 0.8281817529350519, 0.844990698620677, 0.8614743538200855, 0.8783761421218514, 0.8947898241458461, 0.9117598789744079, 0.9279421371174976, 0.9449104852974415, 0.9615078044589609, 0.9783891127444804, 0.9948082560440525, 1.0117202843539417, 1.0281346490373835, 1.0450425812741742, 1.0615132658276707, 1.078376483405009, 1.0945921923266724, 1.1117793349549174, 1.1281424995977432, 1.1450244905427098, 1.1614371485775337, 1.178346104803495, 1.194826005375944, 1.2117322309641168, 1.2282029156340286, 1.2449848959222436, 1.2615504711866379, 1.2784406540449709, 1.2945945815881714, 1.3117492976598442, 1.3281803876161575, 1.3451279144501314, 1.3612552180420607, 1.3783624888164923, 1.394827029434964, 1.411786502925679, 1.428184483665973, 1.4451043625595048, 1.4615484231617302, 1.4784887820715085, 1.494851264054887]
27	images/0192.jpg	images/0458.jpg	right	1.679	[0.0, 0.0, 0.0, 0.0, 0.0, 0.0, 0.0, 0.0, 0.0, 0.0, 0.0, 0.0, 0.0, 0.0, 0.0, 0.0, 0.0, 0.0, 0.0, 0.0, 0.0, 0.0, 0.0, 0.0, 0.0, 0.0, 0.0, 0.0, 0.0, 0.0, 0.0, 0.0, 0.0, 0.0, 0.0, 0.0, 0.0, 0.0, 0.0, 0.0, 0.0, 0.0, 0.0, 0.0, 0.0, 0.0, 0.0, 0.0, 0.0, 0.0, 0.0, 0.0, 0.0, 0.0, 4.0, 7.0, -2.0, -47.0, -124.0, -287.0, -416.0, -547.0, -666.0, -754.0, -805.0, -828.0, -835.0, -835.0, -835.0, -834.0, -764.0, -646.0, -459.0, -214.0, 56.0, 290.0, 450.0, 544.0, 588.0, 611.0, 629.0, 649.0, 668.0, 696.0, 705.0, 710.0, 712.0, 712.0, 712.0, 712.0, 712.0, 712.0, 712.0, 712.0, 712.0, 712.0, 712.0, 712.0, 712.0, 712.0, 712.0]	[-490.0, -490.0, -490.0, -490.0, -490.0, -490.0, -490.0, -490.0, -490.0, -490.0, -490.0, -490.0, -490.0, -490.0, -490.0, -490.0, -490.0, -490.0, -490.0, -490.0, -490.0, -490.0, -490.0, -490.0, -490.0, -490.0, -490.0, -490.0, -490.0, -490.0, -490.0, -490.0, -490.0, -490.0, -490.0, -490.0, -490.0, -490.0, -490.0, -490.0, -490.0, -490.0, -490.0, -490.0, -490.0, -490.0, -490.0, -490.0, -490.0, -490.0, -490.0, -490.0, -490.0, -483.0, -462.0, -426.0, -358.0, -263.0, -157.0, 10.0, 119.0, 224.0, 307.0, 356.0, 385.0, 398.0, 401.0, 401.0, 401.0, 401.0, 386.0, 372.0, 366.0, 366.0, 366.0, 366.0, 366.0, 366.0, 366.0, 367.0, 377.0, 389.0, 401.0, 421.0, 428.0, 433.0, 435.0, 435.0, 435.0, 435.0, 435.0, 435.0, 435.0, 435.0, 435.0, 435.0, 435.0, 435.0, 435.0, 435.0, 435.0]	[0.016385078197345138, 0.02083264768589288, 0.03306909592356533, 0.04932508210185915, 0.06646170746535063, 0.08274943754076958, 0.09987138560973108, 0.11605671583674848, 0.13308070122729987, 0.14927729545161128, 0.16661155258771032, 0.18275524023920298, 0.19990005751606077, 0.2160461344756186, 0.23322406108491123, 0.24937047937419266, 0.2664750193944201, 0.28270062687806785, 0.29977444699034095, 0.31593520124442875, 0.33320323983207345, 0.3496162391966209, 0.36660882201977074, 0.3829214693978429, 0.39980619098059833, 0.4162365982774645, 0.43317183712497354, 0.449557188549079, 0.46648901409935206, 0.4828600294422358, 0.4998519296059385, 0.5162430836353451, 0.5331667171558365, 0.5495534338988364, 0.5664521501166746, 0.5828805094351992, 0.5998495402745903, 0.6162130463635549, 0.6331189305055887, 0.6495961004402488, 0.6664774087257683, 0.6828921147389337, 0.6998123349621892, 0.7162031476618722, 0.7331298532662913, 0.7495066712144762, 0.7664821874350309, 0.7828682214021683, 0.799814383033663, 0.8161970037035644, 0.8331571598537266, 0.8495783511316404, 0.8664292808389291, 0.8828525200951844, 0.8997683030320331, 0.9161761823343113, 0.9330513465683907, 0.9495534339221194, 0.9664849181426689, 0.982883240096271, 0.9997242710087448, 1.0161533129867166, 1.0330591972451657, 1.0495626499177888, 1.066351456916891, 1.0828207761514932, 1.0997382657369599, 1.1161905183689669, 1.1330353039084002, 1.149492335272953, 1.166392075479962, 1.1828624188201502, 1.1997768363216892, 1.2161447796970606, 1.2330810425337404, 1.2496466177981347, 1.2665129073429853, 1.2829579920507967, 1.2997635243227705, 1.3159898144658655, 1.3330540772294626, 1.3495114499237388, 1.366397195495665, 1.3828409147681668, 1.3997123243752867, 1.4161853983532637, 1.433161255903542, 1.4495223725680262, 1.4664903794182464, 1.4827794748125598, 1.4997874177061021, 1.5161802783841267, 1.5330619278829545, 1.5494769752258435, 1.566412896849215, 1.5828514961758628, 1.599774447036907, 1.6161335157230496, 1.6330854799598455, 1.6492762714624405, 1.6664077767636627]
28	images/0101.jpg	images/0029.jpg	right	1.67	[0.0, 0.0, 0.0, 0.0, 0.0, 0.0, 0.0, 0.0, 0.0, 0.0, 0.0, 0.0, 0.0, 0.0, 0.0, 0.0, 0.0, 0.0, 0.0, 0.0, 0.0, 0.0, 0.0, 0.0, 0.0, 0.0, 0.0, 0.0, 0.0, 0.0, 0.0, 0.0, 0.0, 0.0, 0.0, 0.0, 0.0, 0.0, 0.0, 0.0, 0.0, 0.0, 0.0, 0.0, 0.0, 0.0, 0.0, 0.0, 0.0, 0.0, 0.0, 0.0, 0.0, 0.0, 0.0, 0.0, 0.0, 4.0, 6.0, 7.0, 10.0, 21.0, 57.0, 129.0, 247.0, 392.0, 528.0, 640.0, 703.0, 749.0, 761.0, 763.0, 764.0, 764.0, 764.0, 764.0, 764.0, 764.0, 764.0, 764.0, 758.0, 754.0, 754.0, 754.0, 754.0, 754.0, 754.0, 754.0, 754.0, 754.0, 756.0, 756.0, 758.0, 758.0, 759.0, 759.0, 759.0, 759.0, 759.0, 759.0, 759.0]	[-490.0, -490.0, -490.0, -490.0, -490.0, -490.0, -490.0, -490.0, -490.0, -490.0, -490.0, -490.0, -490.0, -490.0, -490.0, -490.0, -490.0, -490.0, -490.0, -490.0, -490.0, -490.0, -490.0, -490.0, -490.0, -490.0, -490.0, -490.0, -490.0, -490.0, -490.0, -490.0, -490.0, -490.0, -490.0, -490.0, -490.0, -490.0, -490.0, -490.0, -490.0, -490.0, -490.0, -490.0, -490.0, -490.0, -490.0, -490.0, -490.0, -490.0, -490.0, -490.0, -490.0, -490.0, -490.0, -490.0, -490.0, -483.0, -478.0, -473.0, -463.0, -442.0, -388.0, -300.0, -178.0, -53.0, 55.0, 135.0, 186.0, 225.0, 235.0, 239.0, 241.0, 242.0, 244.0, 244.0, 244.0, 244.0, 244.0, 245.0, 249.0, 252.0, 253.0, 256.0, 262.0, 267.0, 272.0, 277.0, 280.0, 284.0, 288.0, 291.0, 295.0, 299.0, 301.0, 303.0, 304.0, 304.0, 305.0, 305.0, 305.0]	[0.008214111323468387, 0.01291563268750906, 0.01767381525132805, 0.03286927961744368, 0.049775505205616355, 0.06614344858098775, 0.08304626087192446, 0.09949612419586629, 0.11639347509481013, 0.1327395731350407, 0.1497649239609018, 0.16596766212023795, 0.18292952491901815, 0.19936061499174684, 0.21627298451494426, 0.23276005312800407, 0.24973898264579475, 0.2661011232994497, 0.2830131514929235, 0.29946028417907655, 0.3163699230644852, 0.332761759753339, 0.34969426796305925, 0.3661072673276067, 0.3830407995264977, 0.3994234201963991, 0.4163603658089414, 0.4327501544030383, 0.4496969986939803, 0.46612740599084646, 0.48300632485188544, 0.49946915882173926, 0.5164958749664947, 0.5327675624284893, 0.5498492332408205, 0.5660867873812094, 0.5830141755286604, 0.5992032603826374, 0.6162914164597169, 0.6326081599108875, 0.6497021185932681, 0.6660847393795848, 0.683033631532453, 0.6993732443079352, 0.7164125897688791, 0.73276346642524, 0.7497236225754023, 0.7658707235241309, 0.7830210021929815, 0.7994981721276417, 0.8163716297131032, 0.8327924797777086, 0.8497362519847229, 0.8658656035549939, 0.8829226982779801, 0.8995026095071808, 0.9164354590466246, 0.9327801917679608, 0.9497007533209398, 0.9660639179637656, 0.9829865276115015, 0.9997207212727517, 1.0165037256665528, 1.0327788264257833, 1.0497072386788204, 1.0661594913108274, 1.082998132915236, 1.0991636657854542, 1.11638733104337, 1.13254637864884, 1.149690171936527, 1.1661178485956043, 1.1829452263191342, 1.1994456069078296, 1.2163446644553915, 1.2327614184468985, 1.2497304492862895, 1.266079960623756, 1.282965364982374, 1.2994636974763125, 1.3162873204564676, 1.332765173050575, 1.349725670646876, 1.3658881315495819, 1.3829902822617441, 1.3995507374638692, 1.4162927818251774, 1.432739914394915, 1.4495847000507638, 1.4661202379502356, 1.4829571729060262, 1.4994698414811864, 1.516275032539852, 1.5328023784095421, 1.5496615000301972, 1.5660929313162342, 1.5829428369179368, 1.5994404868688434, 1.6163419337244704, 1.6327552744187415, 1.6496758359717205]
29	images/0187.jpg	images/0468.jpg	right	1.401	[0.0, 0.0, 0.0, 0.0, 0.0, 0.0, 0.0, 0.0, 0.0, 0.0, 0.0, 0.0, 0.0, 0.0, 0.0, 0.0, 0.0, 0.0, 0.0, 0.0, 0.0, 0.0, 0.0, 0.0, 0.0, 0.0, 0.0, 0.0, 0.0, 0.0, 0.0, 0.0, 0.0, 0.0, 0.0, 0.0, 0.0, 0.0, 0.0, 0.0, 0.0, 0.0, 0.0, 0.0, 0.0, 0.0, 0.0, 0.0, 0.0, 4.0, 42.0, 139.0, 284.0, 436.0, 585.0, 701.0, 781.0, 840.0, 851.0, 858.0, 860.0, 862.0, 863.0, 863.0, 863.0, 862.0, 861.0, 859.0, 854.0, 848.0, 840.0, 833.0, 829.0, 824.0, 819.0, 815.0, 813.0, 809.0, 808.0, 807.0, 807.0, 807.0, 807.0, 807.0, 807.0]	[-490.0, -490.0, -490.0, -490.0, -490.0, -490.0, -490.0, -490.0, -490.0, -490.0, -490.0, -490.0, -490.0, -490.0, -490.0, -490.0, -490.0, -490.0, -490.0, -490.0, -490.0, -490.0, -490.0, -490.0, -490.0, -490.0, -490.0, -490.0, -490.0, -490.0, -490.0, -490.0, -490.0, -490.0, -490.0, -490.0, -490.0, -490.0, -490.0, -490.0, -490.0, -490.0, -490.0, -490.0, -490.0, -490.0, -490.0, -490.0, -490.0, -480.0, -444.0, -362.0, -244.0, -123.0, -21.0, 61.0, 119.0, 162.0, 175.0, 185.0, 192.0, 202.0, 214.0, 224.0, 231.0, 235.0, 236.0, 239.0, 245.0, 251.0, 256.0, 261.0, 264.0, 267.0, 272.0, 277.0, 280.0, 286.0, 289.0, 291.0, 293.0, 294.0, 294.0, 294.0, 294.0]	[0.005655137589201331, 0.009975048596970737, 0.014102788991294801, 0.027611726778559387, 0.044631957658566535, 0.06067870662081987, 0.07787540659774095, 0.0943109339568764, 0.11127109010703862, 0.12763835082296282, 0.14462513092439622, 0.16074799722991884, 0.17786892130970955, 0.19403001677710563, 0.21113933552987874, 0.2274007829837501, 0.244546624366194, 0.26097157038748264, 0.2780027238186449, 0.2942819206509739, 0.3111751754768193, 0.3276755560655147, 0.3445776856970042, 0.3609684983966872, 0.3779051025630906, 0.39431776059791446, 0.4112519754562527, 0.4274513003183529, 0.44444320048205554, 0.4609609890030697, 0.47786072932649404, 0.4943027419503778, 0.5111714209197089, 0.5276318654650822, 0.5445415043504909, 0.5609490424394608, 0.5778870119247586, 0.5943003526190296, 0.6111314848531038, 0.6276045588310808, 0.6445462830597535, 0.6609186637215316, 0.6778539025690407, 0.6942716806661338, 0.7112137461081147, 0.7276110441889614, 0.7445421870797873, 0.761000583646819, 0.7780433425214142, 0.7943037658696994, 0.8111246582120657, 0.8275687188142911, 0.8445124910213053, 0.8608944291481748, 0.8778211346361786, 0.8943293659249321, 0.9112441247561947, 0.9276240147883072, 0.9447278722655028, 0.9609821516787633, 0.9779337745858356, 0.9943580378312618, 1.011188487522304, 1.0276315241353586, 1.0444906457560137, 1.0607275172369555, 1.0777614014223218, 1.0943409712053835, 1.1111273888964206, 1.1274629055988044, 1.144524096394889, 1.1608336718054488, 1.1778214760124683, 1.1941522140987217, 1.2110860876273364, 1.2274550549918786, 1.244451392441988, 1.2607780345715582, 1.2777460414217785, 1.2941071580862626, 1.311118514277041, 1.3275868095224723, 1.344539797748439, 1.3609012557426468, 1.3777829053578898]
30	images/0508.jpg	images/0131.jpg	right	1.453	[0.0, 0.0, 0.0, 0.0, 0.0, 0.0, 0.0, 0.0, 0.0, 0.0, 0.0, 0.0, 0.0, 0.0, 0.0, 0.0, 0.0, 0.0, 0.0, 0.0, 0.0, 0.0, 0.0, 0.0, 0.0, 0.0, 0.0, 0.0, 0.0, 0.0, 0.0, 0.0, 0.0, 0.0, 0.0, 0.0, 0.0, 0.0, 0.0, 0.0, 0.0, 0.0, 0.0, 0.0, 0.0, 0.0, 0.0, 0.0, 0.0, 0.0, 0.0, 0.0, 0.0, 0.0, 11.0, 51.0, 136.0, 247.0, 395.0, 548.0, 677.0, 787.0, 855.0, 886.0, 897.0, 903.0, 907.0, 909.0, 909.0, 909.0, 909.0, 909.0, 909.0, 909.0, 909.0, 909.0, 909.0, 909.0, 909.0, 909.0, 909.0, 909.0, 909.0, 909.0, 909.0, 909.0, 909.0]	[-490.0, -490.0, -490.0, -490.0, -490.0, -490.0, -490.0, -490.0, -490.0, -490.0, -490.0, -490.0, -490.0, -490.0, -490.0, -490.0, -490.0, -490.0, -490.0, -490.0, -490.0, -490.0, -490.0, -490.0, -490.0, -490.0, -490.0, -490.0, -490.0, -490.0, -490.0, -490.0, -490.0, -490.0, -490.0, -490.0, -490.0, -490.0, -490.0, -490.0, -490.0, -490.0, -490.0, -490.0, -490.0, -490.0, -490.0, -490.0, -490.0, -490.0, -490.0, -490.0, -490.0, -490.0, -484.0, -451.0, -382.0, -280.0, -152.0, -22.0, 88.0, 183.0, 247.0, 282.0, 302.0, 315.0, 327.0, 330.0, 330.0, 330.0, 330.0, 330.0, 330.0, 330.0, 332.0, 336.0, 339.0, 340.0, 341.0, 342.0, 343.0, 344.0, 344.0, 344.0, 344.0, 344.0, 344.0]	[0.00446183723397553, 0.009030238725244999, 0.02541490737348795, 0.04217367712408304, 0.05864367901813239, 0.07551338197663426, 0.09167618420906365, 0.10887254285626113, 0.12528588343411684, 0.14209141582250595, 0.1583798285573721, 0.17546661931555718, 0.19202297856099904, 0.20884967350866646, 0.2252623315434903, 0.24217026378028095, 0.2585440097609535, 0.2755389818921685, 0.2919219440082088, 0.30880871356930584, 0.32526881678495556, 0.3421443224651739, 0.35855288442689925, 0.37547822459600866, 0.3919161412632093, 0.4088254388188943, 0.425345616764389, 0.44213715440128, 0.4586525537306443, 0.4754669606918469, 0.49189941596705467, 0.5088244148064405, 0.5252804221818224, 0.5420951704727486, 0.5586006710072979, 0.5754608166171238, 0.5919059013249353, 0.6087465909076855, 0.624973222380504, 0.6420197358820587, 0.6586044257273898, 0.6754618406994268, 0.691886103944853, 0.7089012147625908, 0.7252602834487334, 0.7421402264153585, 0.7585924790473655, 0.7755198673112318, 0.791851629386656, 0.8088134921854362, 0.8252568701282144, 0.8421736770542338, 0.8584951991215348, 0.8754826619988307, 0.8918881519930437, 0.9088421642081812, 0.925345616764389, 0.9422095170011744, 0.958623199025169, 0.9754505766322836, 0.9918738160049543, 1.008778334944509, 1.0252578941872343, 1.0420630851294845, 1.0585795084480196, 1.075445115333423, 1.0918908827006817, 1.1087964255129918, 1.1252019155072048, 1.142059330479242, 1.1585897484328598, 1.1755649232072756, 1.1918823493178934, 1.2087476148735732, 1.2252309288596734, 1.2422276076395065, 1.258704436244443, 1.2755550246220082, 1.29187142662704, 1.3087428362341598, 1.3250558250583708, 1.3421665091300383, 1.3583040526136756, 1.375509968609549, 1.3919239919632673, 1.4088377268053591, 1.4253056808374822]
31	images/0496.jpg	images/0013.jpg	right	1.531	[0.0, 0.0, 0.0, 0.0, 0.0, 0.0, 0.0, 0.0, 0.0, 0.0, 0.0, 0.0, 0.0, 0.0, 0.0, 0.0, 0.0, 0.0, 0.0, 0.0, 0.0, 0.0, 0.0, 0.0, 0.0, 0.0, 0.0, 0.0, 0.0, 0.0, 0.0, 0.0, 0.0, 0.0, 0.0, 0.0, 0.0, 0.0, 0.0, 0.0, 0.0, 0.0, 0.0, 0.0, 0.0, 0.0, 0.0, 0.0, 0.0, 0.0, 0.0, 0.0, 0.0, 0.0, 0.0, 0.0, 0.0, 82.0, 213.0, 418.0, 605.0, 749.0, 835.0, 877.0, 883.0, 884.0, 884.0, 879.0, 869.0, 851.0, 847.0, 846.0, 844.0, 841.0, 837.0, 832.0, 827.0, 824.0, 817.0, 809.0, 799.0, 790.0, 782.0, 778.0, 777.0, 777.0, 777.0, 777.0, 777.0, 777.0, 777.0, 777.0]	[-490.0, -490.0, -490.0, -490.0, -490.0, -490.0, -490.0, -490.0, -490.0, -490.0, -490.0, -490.0, -490.0, -490.0, -490.0, -490.0, -490.0, -490.0, -490.0, -490.0, -490.0, -490.0, -490.0, -490.0, -490.0, -490.0, -490.0, -490.0, -490.0, -490.0, -490.0, -490.0, -490.0, -490.0, -490.0, -490.0, -490.0, -490.0, -490.0, -490.0, -490.0, -490.0, -490.0, -490.0, -490.0, -490.0, -490.0, -490.0, -490.0, -490.0, -490.0, -490.0, -490.0, -490.0, -490.0, -490.0, -490.0, -438.0, -368.0, -274.0, -173.0, -62.0, 42.0, 111.0, 130.0, 143.0, 158.0, 176.0, 200.0, 229.0, 236.0, 238.0, 242.0, 249.0, 256.0, 262.0, 266.0, 268.0, 274.0, 284.0, 296.0, 309.0, 321.0, 325.0, 327.0, 327.0, 327.0, 327.0, 327.0, 327.0, 327.0, 327.0]	[0.003993869526311755, 0.008794718771241605, 0.024079953785985708, 0.041093016625382006, 0.057327157352119684, 0.07431564421858639, 0.09066379023715854, 0.10775058099534363, 0.12383965530898422, 0.14091245143208653, 0.15731725876685232, 0.17437025753315538, 0.19065798760857433, 0.20769391977228224, 0.22401134588290006, 0.24099880864378065, 0.257308725384064, 0.2744368175044656, 0.2906794915907085, 0.30767207441385835, 0.3240495751379058, 0.3411080352962017, 0.3572899521095678, 0.3744856280973181, 0.39060439832974225, 0.4077444369904697, 0.42387686064466834, 0.440989934024401, 0.4572271468350664, 0.4742511323420331, 0.4905716304201633, 0.5077085971133783, 0.5240065671969205, 0.5410131446551532, 0.5572015468496829, 0.5742651269538328, 0.5906668623210862, 0.6077045011334121, 0.6239297672873363, 0.6411104245344177, 0.6574432105990127, 0.6743917615385726, 0.6907713102409616, 0.7078673169016838, 0.724165286985226, 0.7410281633492559, 0.7574363839812577, 0.7743852761341259, 0.7908559608040377, 0.807676853146404, 0.8242151216836646, 0.8410404513124377, 0.8574995305389166, 0.8744043908081949, 0.8907272781943902, 0.907807583687827, 0.9242478896630928, 0.9411100832512602, 0.95749065594282, 0.9745351213496178, 0.9905521743930876, 1.007707231794484, 1.02423799096141, 1.041030552587472, 1.0574609600007534, 1.0743746948428452, 1.0907849635696039, 1.1076969917630777, 1.124144465662539, 1.1410353312967345, 1.1574582293396816, 1.1743866414763033, 1.1905910864006728, 1.2076550078345463, 1.2242663216311485, 1.241011437959969, 1.2574483306379989, 1.274326225509867, 1.290750147541985, 1.3076659304788336, 1.3242287749890238, 1.3409947126638144, 1.3574582292931154, 1.374352508224547, 1.3908487927401438, 1.4077635516878217, 1.4241727963089943, 1.4410619552945718, 1.4572575254132971, 1.4744470574660227, 1.4908303607953712, 1.5077174716861919]
32	images/0044.jpg	images/0225.jpg	right	1.564	[0.0, 0.0, 0.0, 0.0, 0.0, 0.0, 0.0, 0.0, 0.0, 0.0, 0.0, 0.0, 0.0, 0.0, 0.0, 0.0, 0.0, 0.0, 0.0, 0.0, 0.0, 0.0, 0.0, 0.0, 0.0, 0.0, 0.0, 0.0, 0.0, 0.0, 0.0, 0.0, 0.0, 0.0, 0.0, 0.0, 0.0, 0.0, 0.0, 0.0, 0.0, 0.0, 0.0, 0.0, 0.0, 0.0, 0.0, 0.0, 0.0, 0.0, 0.0, 0.0, 0.0, 0.0, 0.0, 0.0, 0.0, 0.0, 0.0, 0.0, 0.0, 0.0, 0.0, 0.0, 9.0, 33.0, 77.0, 164.0, 269.0, 428.0, 524.0, 619.0, 709.0, 783.0, 828.0, 848.0, 859.0, 865.0, 871.0, 875.0, 875.0, 877.0, 877.0, 877.0, 877.0, 877.0, 876.0, 876.0, 876.0, 876.0, 876.0, 876.0, 876.0, 876.0]	[-490.0, -490.0, -490.0, -490.0, -490.0, -490.0, -490.0, -490.0, -490.0, -490.0, -490.0, -490.0, -490.0, -490.0, -490.0, -490.0, -490.0, -490.0, -490.0, -490.0, -490.0, -490.0, -490.0, -490.0, -490.0, -490.0, -490.0, -490.0, -490.0, -490.0, -490.0, -490.0, -490.0, -490.0, -490.0, -490.0, -490.0, -490.0, -490.0, -490.0, -490.0, -490.0, -490.0, -490.0, -490.0, -490.0, -490.0, -490.0, -490.0, -490.0, -490.0, -490.0, -490.0, -490.0, -490.0, -490.0, -490.0, -490.0, -490.0, -490.0, -490.0, -490.0, -490.0, -490.0, -480.0, -460.0, -418.0, -335.0, -238.0, -88.0, 13.0, 106.0, 170.0, 223.0, 260.0, 282.0, 303.0, 319.0, 334.0, 344.0, 350.0, 352.0, 352.0, 352.0, 354.0, 357.0, 360.0, 361.0, 363.0, 363.0, 363.0, 363.0, 363.0, 363.0]	[0.001886820769868791, 0.0074426986975595355, 0.02051268215291202, 0.03704856138210744, 0.05392440827563405, 0.07034286891575903, 0.08725626254454255, 0.10373104317113757, 0.12075434590224177, 0.1368488814914599, 0.15401861618738621, 0.17035583965480328, 0.18723851325921714, 0.20364161382894963, 0.22061610606033355, 0.2369891693815589, 0.25392440834548324, 0.27034935425035655, 0.28727571852505207, 0.3034463713411242, 0.32043656485620886, 0.33695025742053986, 0.3540192989166826, 0.3704107942758128, 0.3872050625504926, 0.4036453685257584, 0.42056593007873744, 0.43695571878924966, 0.4539141682907939, 0.47011451714206487, 0.4872675265651196, 0.5036917898105457, 0.5205495461123064, 0.5369714201660827, 0.5539172403514385, 0.5703247783239931, 0.5872084759175777, 0.6036320565035567, 0.6206324900267646, 0.6367314630188048, 0.6539950642036274, 0.6702984956791624, 0.6872374892700464, 0.7036320565966889, 0.7205980154685676, 0.7369980440707877, 0.7539213362615556, 0.770324778277427, 0.7872644545277581, 0.8036532192490995, 0.8205877754371613, 0.8369707374367863, 0.8539428402436897, 0.870329215656966, 0.8872118892613798, 0.9037433310877532, 0.9205580794950947, 0.9369983854703605, 0.9539042696123943, 0.9700718505773693, 0.987259334535338, 1.0034330594353378, 1.0205106341745704, 1.036983025376685, 1.053870819043368, 1.0703626662725583, 1.0872562625445426, 1.1037853150628507, 1.120574122061953, 1.13705334009137, 1.1539834588766098, 1.1703203410143033, 1.1871999425347894, 1.2037545951316133, 1.2205044901929796, 1.2369560601655394, 1.2538315657293424, 1.2702548049855977, 1.2871552279684693, 1.3036122592166066, 1.3205123408697546, 1.336950940079987, 1.3539390856167302, 1.370323754264973, 1.3871586412424222, 1.4034037047531456, 1.4204986875411123, 1.436947526759468, 1.4538684296421707, 1.4703735889634117, 1.4871825346490368, 1.5036306912079453, 1.5205379407852888, 1.5369478681823239]
