trialIndex	left_option	right_option	response	response_time	xTrajectory	yTrajectory	tTrajectory
0	images/0573.jpg	images/0363.jpg	left	1.219	[0.0, 0.0, 0.0, 0.0, 0.0, 0.0, 0.0, 0.0, 0.0, 0.0, 0.0, 0.0, 0.0, 0.0, 0.0, 0.0, 0.0, 0.0, 0.0, 0.0, -10.0, -26.0, -42.0, -57.0, -72.0, -85.0, -101.0, -119.0, -139.0, -146.0, -151.0, -155.0, -156.0, -158.0, -158.0, -160.0, -162.0, -174.0, -180.0, -224.0, -271.0, -338.0, -428.0, -521.0, -608.0, -668.0, -720.0, -757.0, -785.0, -805.0, -816.0, -824.0, -824.0, -825.0, -825.0, -825.0, -825.0, -825.0, -826.0, -826.0, -826.0, -826.0, -826.0, -825.0, -825.0, -822.0, -820.0, -817.0, -814.0, -814.0, -814.0, -814.0]	[-490.0, -490.0, -490.0, -490.0, -490.0, -490.0, -490.0, -490.0, -490.0, -490.0, -490.0, -490.0, -490.0, -490.0, -490.0, -490.0, -490.0, -490.0, -490.0, -487.0, -479.0, -470.0, -459.0, -446.0, -431.0, -419.0, -406.0, -392.0, -374.0, -367.0, -361.0, -357.0, -355.0, -353.0, -353.0, -352.0, -350.0, -339.0, -334.0, -301.0, -263.0, -207.0, -144.0, -75.0, -7.0, 47.0, 95.0, 141.0, 173.0, 198.0, 210.0, 222.0, 222.0, 224.0, 224.0, 224.0, 224.0, 224.0, 229.0, 233.0, 239.0, 246.0, 254.0, 267.0, 276.0, 284.0, 290.0, 294.0, 299.0, 300.0, 300.0, 300.0]	[0.014079441840294749, 0.018004771845880896, 0.03076448361389339, 0.04509944739402272, 0.06367615686031058, 0.07852482685120776, 0.09585430540028028, 0.11162764660548419, 0.12949301803018898, 0.14492639154195786, 0.1626900456903968, 0.17857841614750214, 0.19538906845264137, 0.21165802524774335, 0.22927968489238992, 0.2449707648192998, 0.2622517740819603, 0.27838863496435806, 0.2948183596308809, 0.31139280946808867, 0.3281990244577173, 0.3451588393363636, 0.361537364020478, 0.37800907262135297, 0.3948333782609552, 0.41138973747729324, 0.42806419791304506, 0.4447294423589483, 0.46154214267153293, 0.47819782979786396, 0.49836515125934966, 0.511510910699144, 0.5317427441186737, 0.544682679726975, 0.5616489799285773, 0.5782374244299717, 0.5959969826217275, 0.6115498226718046, 0.6288496052438859, 0.6449229781865142, 0.6617261211795267, 0.6782527844188735, 0.6950576340896077, 0.7114559561014175, 0.728570736158872, 0.7445645784900989, 0.7616861852293368, 0.7779660646629054, 0.7950139434542507, 0.8114064628025517, 0.8284331789473072, 0.8447553836740553, 0.8616749212378636, 0.8780797285726294, 0.8950750420626719, 0.911229993624147, 0.9285604961623903, 0.9445273732126225, 0.9617117852030788, 0.9780828005750664, 0.994997218134813, 1.0115354867011774, 1.0284253282879945, 1.0446635650878306, 1.0616943772183731, 1.0781442405132111, 1.0949924394662958, 1.1112641269282904, 1.1284864268964157, 1.1445539971755352, 1.1616558065870777, 1.177890630060574]
1	images/0553.jpg	images/0171.jpg	right	1.231	[0.0, 0.0, 0.0, 0.0, 0.0, 0.0, 0.0, 0.0, 0.0, 0.0, 0.0, 0.0, 0.0, 0.0, 0.0, 0.0, 0.0, 0.0, 0.0, 0.0, 0.0, 0.0, 0.0, -6.0, -12.0, -33.0, -54.0, -76.0, -98.0, -126.0, -153.0, -177.0, -196.0, -211.0, -220.0, -227.0, -231.0, -232.0, -234.0, -234.0, -234.0, -234.0, -233.0, -227.0, -209.0, -151.0, -52.0, 67.0, 190.0, 292.0, 384.0, 472.0, 516.0, 539.0, 557.0, 571.0, 587.0, 601.0, 610.0, 616.0, 617.0, 619.0, 623.0, 641.0, 655.0, 663.0, 669.0, 670.0, 670.0, 670.0, 670.0, 670.0, 670.0, 670.0]	[-490.0, -490.0, -490.0, -490.0, -490.0, -490.0, -490.0, -490.0, -490.0, -490.0, -490.0, -490.0, -490.0, -490.0, -490.0, -490.0, -490.0, -490.0, -490.0, -490.0, -490.0, -490.0, -490.0, -486.0, -482.0, -464.0, -447.0, -428.0, -403.0, -371.0, -339.0, -303.0, -269.0, -238.0, -216.0, -198.0, -182.0, -169.0, -159.0, -151.0, -147.0, -145.0, -142.0, -134.0, -121.0, -92.0, -52.0, 0.0, 52.0, 96.0, 139.0, 187.0, 209.0, 219.0, 226.0, 231.0, 235.0, 238.0, 239.0, 241.0, 242.0, 242.0, 244.0, 249.0, 255.0, 259.0, 263.0, 264.0, 264.0, 264.0, 264.0, 264.0, 264.0, 264.0]	[0.014593352883821353, 0.01951298603671603, 0.028695527522359043, 0.04578743828460574, 0.06191030450281687, 0.0792906416754704, 0.09522577474126592, 0.11235523212235421, 0.12861599691677839, 0.14569664368173108, 0.16188197387964465, 0.17909471652819775, 0.1952046121004969, 0.21234362680115737, 0.22859585826518014, 0.24563656907412224, 0.2619533124670852, 0.2791070045204833, 0.29519437209819444, 0.31231905083404854, 0.32892319667735137, 0.3457055183534976, 0.3643402544548735, 0.37915103646810167, 0.39761817804537714, 0.4123716161120683, 0.4310295628674794, 0.44565397704718634, 0.46424707051482983, 0.47925070571363904, 0.49737753823865205, 0.512360352120595, 0.5304066300741397, 0.5456908410124015, 0.5634374285582453, 0.5792257884168066, 0.5968972826667596, 0.61233270415687, 0.6299212544690818, 0.6456375930574723, 0.6632046394224744, 0.6789349726459477, 0.6959418914630078, 0.7122900375106838, 0.7289610846200958, 0.7454167505784426, 0.7620918937027454, 0.7789008393592667, 0.7954182865796611, 0.8120429124101065, 0.828857319400413, 0.8454385958903003, 0.8619301018188708, 0.8785438049817458, 0.896391085756477, 0.9121791042853147, 0.9299287637986708, 0.9455177851777989, 0.9621833709534258, 0.978755772812292, 0.9957671289448626, 1.0121555523073766, 1.02936488162959, 1.0453443879960105, 1.0622871361847501, 1.0788011701079085, 1.0956725797150284, 1.1121306349814404, 1.1290928391972557, 1.145451225223951, 1.1623868054302875, 1.1787994634360075, 1.1956691663654055, 1.212116981681902]
2	images/0077.jpg	images/0368.jpg	left	1.407	[0.0, 0.0, 0.0, 0.0, 0.0, 0.0, 0.0, 0.0, 0.0, 0.0, 0.0, 0.0, 0.0, 0.0, 0.0, 0.0, 0.0, 0.0, 0.0, 0.0, 0.0, 0.0, 0.0, 0.0, 0.0, 0.0, 0.0, -1.0, -1.0, -3.0, -5.0, -10.0, -24.0, -51.0, -103.0, -199.0, -230.0, -310.0, -363.0, -416.0, -471.0, -510.0, -540.0, -554.0, -564.0, -568.0, -568.0, -572.0, -574.0, -578.0, -582.0, -584.0, -584.0, -583.0, -558.0, -474.0, -344.0, -179.0, -14.0, 170.0, 222.0, 243.0, 255.0, 259.0, 259.0, 259.0, 259.0, 259.0, 238.0, 154.0, 8.0, -162.0, -400.0, -530.0, -627.0, -699.0, -748.0, -784.0, -812.0, -836.0, -852.0, -860.0, -865.0, -866.0, -866.0]	[-490.0, -490.0, -490.0, -490.0, -490.0, -490.0, -490.0, -490.0, -490.0, -490.0, -490.0, -490.0, -490.0, -490.0, -490.0, -490.0, -490.0, -490.0, -490.0, -490.0, -490.0, -490.0, -490.0, -490.0, -490.0, -490.0, -490.0, -490.0, -489.0, -485.0, -478.0, -468.0, -449.0, -422.0, -373.0, -286.0, -257.0, -167.0, -102.0, -41.0, 24.0, 69.0, 109.0, 133.0, 153.0, 171.0, 176.0, 187.0, 191.0, 196.0, 202.0, 206.0, 211.0, 216.0, 228.0, 250.0, 275.0, 301.0, 325.0, 357.0, 373.0, 378.0, 381.0, 382.0, 382.0, 382.0, 382.0, 382.0, 380.0, 380.0, 380.0, 380.0, 374.0, 359.0, 348.0, 343.0, 343.0, 343.0, 343.0, 343.0, 343.0, 343.0, 343.0, 343.0, 343.0]	[0.007810587470885366, 0.01138127243029885, 0.018378941109403968, 0.03279172882321291, 0.05104621988721192, 0.06603756709955633, 0.083022981940303, 0.09920558147132397, 0.11699688361841254, 0.13266782491700724, 0.1503106472082436, 0.1659317538724281, 0.18363669875543565, 0.1991711068258155, 0.21649512404110283, 0.23255143035203218, 0.2490357682981994, 0.2656358181266114, 0.28452484734589234, 0.2991137628850993, 0.3194503855193034, 0.3323749611736275, 0.3509759052831214, 0.3658552952692844, 0.38427772221621126, 0.39904822694370523, 0.41929883367265575, 0.4323817878321279, 0.4505683536408469, 0.4656982820597477, 0.48443712474545464, 0.4990717789332848, 0.5172119234339334, 0.5324159211304504, 0.5504639057326131, 0.5655255675374065, 0.5835523894929793, 0.5990946482343134, 0.6169702596380375, 0.6323387798620388, 0.6510096972633619, 0.6659699831798207, 0.6841824902803637, 0.6990345736267045, 0.7181458106497303, 0.732450737094041, 0.7514271475665737, 0.765750847349409, 0.7843965061183553, 0.7990670002473053, 0.8183652877924033, 0.8323845184931997, 0.8506687055632938, 0.8658631459111348, 0.884030938410433, 0.8990635869267862, 0.9171020142093766, 0.9323380971909501, 0.9524856213538442, 0.9657921486650594, 0.983011717966292, 0.999034573615063, 1.016558270668611, 1.0323797398305032, 1.0497996716294438, 1.0657088634034153, 1.0830482406017836, 1.0990007816581056, 1.1162142069661058, 1.1321889346581884, 1.1492726534197573, 1.165569258184405, 1.1825481876730919, 1.1990144349692855, 1.216120340366615, 1.2323548225103877, 1.2493549146747682, 1.2658092153142206, 1.2825256597134285, 1.2989635763515253, 1.316070164408302, 1.3323589185019955, 1.349308834731346, 1.3656661967688706, 1.3825673023238778]
3	images/0137.jpg	images/0117.jpg	right	1.021	[0.0, 0.0, 0.0, 0.0, 0.0, 0.0, 0.0, 0.0, 0.0, 0.0, 0.0, 0.0, 0.0, 0.0, 0.0, 0.0, -10.0, -33.0, -95.0, -117.0, -182.0, -226.0, -270.0, -311.0, -344.0, -373.0, -394.0, -406.0, -411.0, -413.0, -414.0, -414.0, -414.0, -414.0, -408.0, -385.0, -336.0, -267.0, -179.0, -96.0, -21.0, 47.0, 106.0, 157.0, 214.0, 243.0, 269.0, 302.0, 343.0, 382.0, 422.0, 460.0, 506.0, 519.0, 542.0, 560.0, 577.0, 586.0, 596.0, 604.0, 607.0, 607.0]	[-490.0, -490.0, -490.0, -490.0, -490.0, -490.0, -490.0, -490.0, -490.0, -490.0, -490.0, -490.0, -489.0, -485.0, -477.0, -463.0, -441.0, -405.0, -329.0, -303.0, -224.0, -169.0, -117.0, -74.0, -36.0, -1.0, 22.0, 40.0, 49.0, 56.0, 61.0, 61.0, 63.0, 66.0, 71.0, 79.0, 94.0, 115.0, 137.0, 167.0, 198.0, 229.0, 254.0, 275.0, 291.0, 301.0, 308.0, 314.0, 321.0, 326.0, 330.0, 339.0, 347.0, 349.0, 355.0, 360.0, 364.0, 365.0, 366.0, 367.0, 368.0, 368.0]	[0.01341950852656737, 0.021594434889266267, 0.026917182345641777, 0.04309158987598494, 0.06036986847175285, 0.07639545478741638, 0.09353685882524587, 0.10970785302924924, 0.12685369441169314, 0.1430530192446895, 0.16031832719454542, 0.17650638803024776, 0.19350101886084303, 0.20983551160315983, 0.22682297442224808, 0.24321276310365647, 0.26019032730255276, 0.2764678173989523, 0.2934586935734842, 0.3098396075947676, 0.32676836114842445, 0.34316019783727825, 0.3602077352697961, 0.3765848946350161, 0.39341500293812715, 0.40992562350584194, 0.4267526598414406, 0.4431144591944758, 0.46012991134193726, 0.47644733742345124, 0.4934126136067789, 0.5117350299842656, 0.52679430245189, 0.5438561759074219, 0.5601524393132422, 0.5785919329209719, 0.5934440162382089, 0.6119009178364649, 0.6268212677678093, 0.6451180841540918, 0.6600869033718482, 0.6781662906287238, 0.6934006669616792, 0.711469472880708, 0.7266833692265209, 0.7441442609997466, 0.7602254845842253, 0.7764292467618361, 0.7930603579152375, 0.8111032225133386, 0.826366612163838, 0.8455031078192405, 0.8599595861451235, 0.8767047025321517, 0.8930310032737907, 0.9111943584284745, 0.926577214646386, 0.9444067461008672, 0.9600370687549002, 0.9768879983748775, 0.9931415951868985, 1.0104191910941154]
4	images/0243.jpg	images/0211.jpg	right	3.804	[0.0, 0.0, 0.0, 0.0, 0.0, 0.0, 0.0, 0.0, 0.0, 0.0, 0.0, 0.0, 0.0, 0.0, 0.0, 0.0, -1.0, -1.0, -2.0, -2.0, -2.0, -3.0, -3.0, -3.0, -3.0, -3.0, -3.0, -5.0, -5.0, -5.0, -6.0, -7.0, -9.0, -13.0, -16.0, -18.0, -18.0, -18.0, -18.0, -17.0, -7.0, 18.0, 49.0, 82.0, 122.0, 158.0, 194.0, 218.0, 239.0, 255.0, 270.0, 282.0, 289.0, 290.0, 290.0, 290.0, 286.0, 250.0, 180.0, 83.0, -15.0, -109.0, -193.0, -280.0, -377.0, -443.0, -497.0, -542.0, -569.0, -595.0, -614.0, -632.0, -642.0, -647.0, -647.0, -647.0, -647.0, -647.0, -648.0, -648.0, -648.0, -648.0, -648.0, -648.0, -648.0, -648.0, -648.0, -648.0, -648.0, -648.0, -648.0, -648.0, -648.0, -648.0, -648.0, -648.0, -648.0, -648.0, -648.0, -648.0, -648.0, -648.0, -648.0, -648.0, -648.0, -648.0, -648.0, -648.0, -648.0, -648.0, -648.0, -648.0, -648.0, -648.0, -648.0, -648.0, -648.0, -648.0, -648.0, -648.0, -646.0, -638.0, -599.0, -566.0, -428.0, -312.0, -210.0, -117.0, -41.0, 26.0, 83.0, 135.0, 178.0, 216.0, 249.0, 278.0, 317.0, 338.0, 353.0, 362.0, 374.0, 385.0, 396.0, 402.0, 403.0, 404.0, 408.0, 422.0, 453.0, 473.0, 490.0, 512.0, 530.0, 545.0, 554.0, 559.0, 563.0, 568.0, 569.0, 571.0, 571.0, 571.0, 571.0, 572.0, 574.0, 576.0, 581.0, 584.0, 587.0, 589.0, 591.0, 591.0, 592.0, 592.0, 592.0, 592.0, 592.0, 592.0, 592.0, 592.0, 592.0, 592.0, 592.0, 592.0, 592.0, 592.0, 592.0, 592.0, 592.0, 592.0, 592.0, 592.0, 592.0, 592.0, 592.0, 592.0, 592.0, 592.0, 592.0, 592.0, 592.0, 592.0, 592.0, 592.0, 592.0, 592.0, 592.0, 592.0, 592.0, 592.0, 592.0, 592.0, 592.0, 592.0, 592.0, 592.0, 592.0, 592.0, 592.0, 592.0, 592.0, 592.0, 592.0, 592.0, 592.0, 592.0, 592.0, 592.0, 592.0]	[-490.0, -490.0, -490.0, -490.0, -490.0, -490.0, -490.0, -490.0, -490.0, -490.0, -490.0, -490.0, -490.0, -490.0, -490.0, -490.0, -490.0, -490.0, -490.0, -490.0, -490.0, -490.0, -490.0, -489.0, -489.0, -488.0, -486.0, -484.0, -481.0, -477.0, -471.0, -466.0, -459.0, -447.0, -434.0, -416.0, -399.0, -380.0, -361.0, -336.0, -302.0, -237.0, -189.0, -140.0, -92.0, -49.0, -8.0, 17.0, 38.0, 52.0, 62.0, 71.0, 77.0, 78.0, 78.0, 78.0, 82.0, 90.0, 105.0, 116.0, 132.0, 143.0, 152.0, 154.0, 161.0, 162.0, 162.0, 164.0, 164.0, 164.0, 164.0, 166.0, 166.0, 168.0, 168.0, 168.0, 168.0, 168.0, 168.0, 168.0, 168.0, 168.0, 168.0, 168.0, 168.0, 168.0, 168.0, 168.0, 168.0, 168.0, 168.0, 168.0, 168.0, 168.0, 168.0, 168.0, 168.0, 168.0, 168.0, 168.0, 168.0, 168.0, 168.0, 168.0, 168.0, 168.0, 168.0, 168.0, 168.0, 168.0, 168.0, 168.0, 168.0, 168.0, 168.0, 168.0, 168.0, 168.0, 168.0, 168.0, 169.0, 174.0, 190.0, 200.0, 240.0, 271.0, 296.0, 325.0, 347.0, 364.0, 372.0, 380.0, 383.0, 383.0, 383.0, 383.0, 383.0, 383.0, 383.0, 383.0, 383.0, 383.0, 383.0, 383.0, 383.0, 383.0, 383.0, 383.0, 383.0, 383.0, 383.0, 383.0, 383.0, 383.0, 383.0, 383.0, 383.0, 383.0, 383.0, 383.0, 383.0, 383.0, 383.0, 383.0, 383.0, 382.0, 382.0, 380.0, 380.0, 378.0, 378.0, 378.0, 378.0, 378.0, 378.0, 378.0, 378.0, 378.0, 378.0, 378.0, 378.0, 378.0, 378.0, 378.0, 378.0, 378.0, 378.0, 378.0, 378.0, 378.0, 377.0, 377.0, 377.0, 377.0, 377.0, 377.0, 377.0, 377.0, 377.0, 377.0, 377.0, 377.0, 377.0, 377.0, 377.0, 376.0, 375.0, 375.0, 375.0, 375.0, 375.0, 375.0, 375.0, 375.0, 375.0, 375.0, 375.0, 375.0, 375.0, 375.0, 375.0, 375.0, 375.0, 375.0, 375.0, 375.0, 375.0, 375.0, 375.0]	[0.00730739432037808, 0.011561769351828843, 0.015151910280110314, 0.03149493632372469, 0.04748673067661002, 0.06455474812537432, 0.08078581694280729, 0.09796579161775298, 0.11413644449203275, 0.13148947499576025, 0.14744542937842198, 0.16457693476695567, 0.18079503293847665, 0.19789172234595753, 0.2141924230963923, 0.2313242698146496, 0.24753144531860016, 0.2645093508181162, 0.28093327282113023, 0.2978814823436551, 0.31414873246103525, 0.33133655780693516, 0.3475287146575283, 0.3645421187975444, 0.38357962790178135, 0.39788762634270824, 0.4163994825503323, 0.43133621648303233, 0.448740788269788, 0.46456328144995496, 0.4821982530702371, 0.4978548583749216, 0.515636603202438, 0.5313341684814077, 0.5484875191759784, 0.5644806788477581, 0.5817722694191616, 0.5977763517876156, 0.6140671538596507, 0.6308044195757248, 0.6495627182594035, 0.664327078993665, 0.6822904129803646, 0.6976906771888025, 0.7153474941151217, 0.7310901153541636, 0.7477403411467094, 0.7643284443183802, 0.7811943925917149, 0.7976616638770793, 0.8145279534801375, 0.8309890807722695, 0.8478379623848014, 0.8642803163675126, 0.8813735924486537, 0.8976906771713402, 0.9146180654061027, 0.9310488140617963, 0.9479734716005623, 0.9642973830050323, 0.981318296486279, 0.9975111359963194, 1.0145996334031224, 1.0308829261921346, 1.0477324904641137, 1.0643509723013267, 1.0813394591386896, 1.097464373364346, 1.114552870800253, 1.1309501687937882, 1.1478871143481229, 1.1642212657316122, 1.1812548085290473, 1.197447306709364, 1.2145327321486548, 1.230777454271447, 1.2477239571453538, 1.2640652765403502, 1.2812541258754209, 1.297401909425389, 1.314600316080032, 1.3307685796171427, 1.347877898340812, 1.3640284125576727, 1.3812920138298068, 1.3974169280845672, 1.414573350775754, 1.4309160354896449, 1.447897013014881, 1.4641413938079495, 1.481336045806529, 1.4975005546875764, 1.5145323908072896, 1.5337033611140214, 1.547925002319971, 1.5665034184639808, 1.5813056671759114, 1.5994734596461058, 1.6145805187697988, 1.632719297951553, 1.6479123729804996, 1.6659924428968225, 1.681309080478968, 1.6990235827106517, 1.7145409241202287, 1.7321161624568049, 1.7478000744304154, 1.7641690417949576, 1.7808394062158186, 1.7996721154777333, 1.8141282524738926, 1.8323352982697543, 1.847469322703546, 1.8644475695618894, 1.880804931599414, 1.8988576948468108, 1.9141047004959546, 1.9322332396986894, 1.94761848525377, 1.96574941376457, 1.9812541258579586, 1.9989191347849555, 2.014303697680589, 2.031644781527575, 2.047599711921066, 2.064526076137554, 2.0809206434933003, 2.097894794336753, 2.1142562523891684, 2.131362840445945, 2.1473891094501596, 2.164558161457535, 2.181180056591984, 2.1978674877027515, 2.2143002843367867, 2.2312532725336496, 2.2476724158623256, 2.264569425431546, 2.281087896670215, 2.2977664531208575, 2.314117329835426, 2.3313437257893384, 2.3474307520664297, 2.364498769515194, 2.3807687502994668, 2.397834719711682, 2.414025852573104, 2.431215384567622, 2.4473676054622047, 2.4644878468534444, 2.480798446253175, 2.497811167733744, 2.5141224498220254, 2.53129047784023, 2.5475935679278336, 2.5645189081551507, 2.583258433500305, 2.5978142397361808, 2.6162626080040354, 2.631186029931996, 2.6488762974913698, 2.6645076441636775, 2.682022807886824, 2.697970570268808, 2.714697254676139, 2.7312283552309964, 2.7474150507478043, 2.764256764377933, 2.780824387562461, 2.797524789319141, 2.814281169703463, 2.8308388942386955, 2.8488889268191997, 2.8643253723275848, 2.8821972290752456, 2.89762957856874, 2.915427024709061, 2.9310856780211907, 2.9485062924795784, 2.9642755376989953, 2.9843892698700074, 2.997780447767582, 3.014918097149348, 3.031057006039191, 3.0482994446647353, 3.0640830258489586, 3.081589656241704, 3.0976442558749113, 3.114503036165843, 3.130946072808001, 3.147896671667695, 3.1641895217762794, 3.181472237687558, 3.1976647358678747, 3.214642300037667, 3.231070318026468, 3.247902815666748, 3.2643653082777746, 3.2814125044096727, 3.2976333332189824, 3.3145467267895583, 3.331059736694442, 3.347904522321187, 3.3643281029944774, 3.381398509751307, 3.3976340158842504, 3.4146593667101115, 3.430849816882983, 3.4478273810527753, 3.464029436581768, 3.4812653898552526, 3.4973793814424425, 3.514494161499897, 3.530743662297027, 3.54785980770248, 3.564046503219288, 3.581213165918598, 3.5973920107644517, 3.6145105455070734, 3.6307982755824924, 3.647864586353535, 3.664286801678827, 3.6813408244634047, 3.697899572987808, 3.7144770948507357, 3.7335941345372703, 3.747867658355972, 3.7657541924272664, 3.7813213684712537]
5	images/0134.jpg	images/0219.jpg	left	1.35	[0.0, 0.0, 0.0, 0.0, 0.0, 0.0, 0.0, 0.0, 0.0, 0.0, 0.0, 0.0, 0.0, 0.0, 0.0, 0.0, 0.0, 0.0, 0.0, 0.0, -1.0, -7.0, -16.0, -33.0, -63.0, -85.0, -107.0, -124.0, -139.0, -141.0, -148.0, -150.0, -150.0, -151.0, -151.0, -151.0, -151.0, -151.0, -151.0, -151.0, -132.0, -111.0, -76.0, -31.0, 18.0, 61.0, 96.0, 117.0, 132.0, 143.0, 148.0, 151.0, 150.0, 141.0, 72.0, -16.0, -116.0, -240.0, -356.0, -466.0, -570.0, -651.0, -706.0, -744.0, -763.0, -785.0, -790.0, -795.0, -803.0, -810.0, -813.0, -816.0, -817.0, -817.0, -818.0, -818.0, -811.0, -805.0, -793.0, -789.0, -789.0]	[-490.0, -490.0, -490.0, -490.0, -490.0, -490.0, -490.0, -490.0, -490.0, -490.0, -490.0, -490.0, -490.0, -490.0, -490.0, -490.0, -490.0, -490.0, -490.0, -490.0, -487.0, -477.0, -464.0, -445.0, -418.0, -399.0, -379.0, -361.0, -340.0, -334.0, -323.0, -319.0, -319.0, -318.0, -318.0, -318.0, -318.0, -318.0, -318.0, -315.0, -299.0, -283.0, -258.0, -225.0, -190.0, -155.0, -125.0, -100.0, -80.0, -65.0, -56.0, -50.0, -40.0, -36.0, -5.0, 27.0, 56.0, 92.0, 122.0, 152.0, 168.0, 180.0, 190.0, 199.0, 205.0, 212.0, 213.0, 213.0, 214.0, 216.0, 216.0, 216.0, 218.0, 219.0, 228.0, 241.0, 258.0, 272.0, 293.0, 299.0, 302.0]	[0.0002826237468980253, 0.00545518466969952, 0.01868149871006608, 0.033583075331989676, 0.05060125814634375, 0.06689376692520455, 0.08372728855465539, 0.1003027624101378, 0.11720659866114147, 0.13363154462422244, 0.1505445968650747, 0.16666575643466786, 0.18388430174672976, 0.20012697589118034, 0.2171710999973584, 0.23345814744243398, 0.2505476688675117, 0.2666749724303372, 0.2838255924580153, 0.3000399359734729, 0.31708849742426537, 0.33345678210025653, 0.35049681024975143, 0.366752455040114, 0.3837945311679505, 0.40011161589063704, 0.4170912280678749, 0.4334793101006653, 0.450495444907574, 0.46989135368494317, 0.48375937386299483, 0.5026524990680628, 0.5171410627081059, 0.5356846628710628, 0.5504858875938226, 0.5686997600423638, 0.5838057951477822, 0.6022241261089221, 0.6171055640734266, 0.6348968662205152, 0.6505360635346733, 0.6679385873430874, 0.6836388832889497, 0.7016479559242725, 0.7171168280474376, 0.7346466690942179, 0.7505370875296649, 0.7679495100164786, 0.7837088565574959, 0.8013711348176003, 0.8171089773823041, 0.8345999064622447, 0.8503933863248676, 0.8668732869264204, 0.8835351180459838, 0.90003652262385, 0.9167157617339399, 0.9334871607425157, 0.9501824424951337, 0.9666022684832569, 0.9833245155459736, 1.000795988657046, 1.0168724335962906, 1.0342575494432822, 1.050087551935576, 1.0673760705103632, 1.0835276087163948, 1.1004573862592224, 1.1168478576291818, 1.1338561417651363, 1.1500418132927734, 1.1670954947476275, 1.1833112035819795, 1.2005184848967474, 1.216884721594397, 1.2337219978799112, 1.2504893009027, 1.2670859374047723, 1.2834989367402159, 1.3005352102045435, 1.3168785776069853]
6	images/0153.jpg	images/0214.jpg	left	1.102	[0.0, 0.0, 0.0, 0.0, 0.0, 0.0, 0.0, 0.0, 0.0, 0.0, 0.0, 0.0, 0.0, 0.0, 0.0, 0.0, 0.0, 0.0, 0.0, 0.0, 0.0, 0.0, 0.0, 0.0, 0.0, 0.0, 0.0, 0.0, 0.0, 0.0, 0.0, 0.0, 0.0, 0.0, 0.0, -1.0, -7.0, -23.0, -65.0, -131.0, -210.0, -295.0, -384.0, -478.0, -574.0, -673.0, -741.0, -804.0, -832.0, -851.0, -860.0, -865.0, -867.0, -868.0, -868.0, -868.0, -868.0, -868.0, -866.0, -860.0, -847.0, -834.0, -814.0, -796.0, -781.0, -770.0]	[-490.0, -490.0, -490.0, -490.0, -490.0, -490.0, -490.0, -490.0, -490.0, -490.0, -490.0, -490.0, -490.0, -490.0, -490.0, -490.0, -490.0, -490.0, -490.0, -490.0, -490.0, -490.0, -490.0, -490.0, -490.0, -490.0, -490.0, -490.0, -490.0, -490.0, -490.0, -490.0, -490.0, -490.0, -490.0, -491.0, -483.0, -466.0, -432.0, -385.0, -325.0, -257.0, -185.0, -106.0, -26.0, 50.0, 119.0, 202.0, 248.0, 282.0, 303.0, 323.0, 334.0, 341.0, 345.0, 346.0, 349.0, 353.0, 356.0, 362.0, 374.0, 386.0, 400.0, 413.0, 424.0, 431.0]	[0.002152787463273853, 0.006809252838138491, 0.02096604075632058, 0.03791390894912183, 0.054141564440215006, 0.0712338165321853, 0.08745123201515526, 0.10452983077266254, 0.12083428620826453, 0.1379081062914338, 0.15410231114947237, 0.17121606721775606, 0.187367264094064, 0.2046288173587527, 0.22374551571556367, 0.23783745034597814, 0.2563643252069596, 0.2711720352526754, 0.2893626970471814, 0.3047397506015841, 0.3219818478974048, 0.3377418770978693, 0.35540620336541906, 0.37113244060310535, 0.3879973648872692, 0.40416016709059477, 0.4235693878727034, 0.43759203189983964, 0.45648413311573677, 0.4710454006853979, 0.48778437307919376, 0.5044127535365988, 0.5235475425433833, 0.537654495856259, 0.5572763670934364, 0.5711085473012645, 0.5901982803479768, 0.6043922735552769, 0.622583618038334, 0.6376333331863862, 0.6556813177885488, 0.6707579982758034, 0.6881509647646453, 0.7042926043213811, 0.7216050162096508, 0.7376261652098037, 0.7545743747323286, 0.7710249206866138, 0.7878751676471438, 0.8042799749819096, 0.8212196512031369, 0.8372612801904324, 0.8546470786677673, 0.8706866596476175, 0.887742389109917, 0.9042004444054328, 0.921159576595528, 0.937613535876153, 0.9545477507635951, 0.9709791820787359, 0.9877823250717483, 1.0043868122447748, 1.0211145206121728, 1.0374060054018628, 1.0546559533395339, 1.0707320569490548]
7	images/0322.jpg	images/0390.jpg	right	1.57	[0.0, 0.0, 0.0, 0.0, 0.0, 0.0, 0.0, 0.0, -4.0, -15.0, -31.0, -55.0, -85.0, -115.0, -139.0, -172.0, -208.0, -253.0, -302.0, -363.0, -404.0, -445.0, -488.0, -504.0, -516.0, -528.0, -539.0, -547.0, -554.0, -560.0, -567.0, -569.0, -572.0, -572.0, -573.0, -576.0, -577.0, -581.0, -584.0, -590.0, -601.0, -613.0, -628.0, -649.0, -658.0, -682.0, -697.0, -706.0, -716.0, -721.0, -728.0, -739.0, -747.0, -753.0, -758.0, -760.0, -761.0, -761.0, -761.0, -761.0, -761.0, -741.0, -653.0, -508.0, -284.0, 20.0, 352.0, 651.0, 888.0, 959.0, 959.0, 959.0, 959.0, 959.0, 959.0, 959.0, 959.0, 959.0, 959.0, 959.0, 959.0, 958.0, 958.0, 955.0, 945.0, 924.0, 893.0, 868.0, 849.0, 832.0, 825.0, 824.0, 824.0, 824.0]	[-490.0, -490.0, -490.0, -490.0, -490.0, -490.0, -490.0, -490.0, -489.0, -483.0, -474.0, -458.0, -433.0, -406.0, -377.0, -339.0, -296.0, -245.0, -197.0, -136.0, -88.0, -38.0, 25.0, 55.0, 78.0, 99.0, 116.0, 129.0, 141.0, 153.0, 162.0, 173.0, 177.0, 181.0, 186.0, 192.0, 195.0, 203.0, 209.0, 216.0, 224.0, 233.0, 242.0, 253.0, 257.0, 266.0, 274.0, 278.0, 284.0, 288.0, 293.0, 301.0, 305.0, 311.0, 316.0, 319.0, 321.0, 321.0, 321.0, 321.0, 321.0, 325.0, 328.0, 328.0, 328.0, 328.0, 328.0, 328.0, 333.0, 355.0, 361.0, 361.0, 361.0, 361.0, 361.0, 361.0, 361.0, 361.0, 361.0, 361.0, 361.0, 361.0, 361.0, 361.0, 363.0, 370.0, 379.0, 386.0, 391.0, 396.0, 397.0, 397.0, 397.0, 397.0]	[0.0014539422409143299, 0.006715591094689444, 0.019264017726527527, 0.03618321396061219, 0.05251634135493077, 0.06945840688422322, 0.08557000913424417, 0.10281074108206667, 0.11907252989476547, 0.13608047270099632, 0.15263307723216712, 0.169436561584007, 0.18557683579274453, 0.2047433687839657, 0.218903228698764, 0.2360528247372713, 0.2526081599353347, 0.2692177670833189, 0.2856870863761287, 0.302732575830305, 0.31889435404445976, 0.33607364603085443, 0.3522292802517768, 0.3693532762990799, 0.3856239397719037, 0.40280801043263637, 0.4188905993651133, 0.436092419346096, 0.45219412294682115, 0.46932358032790944, 0.4856334970681928, 0.5026417812332511, 0.5189687646343373, 0.5359988941054326, 0.5523576214909554, 0.5693563483073376, 0.5856915237091016, 0.6027622717956547, 0.6189912926056422, 0.6360227874247357, 0.6537584522739053, 0.6693652229732834, 0.6877688765816856, 0.7027035625069402, 0.7208573603711557, 0.7359992354467977, 0.7539226334774867, 0.7694089135911781, 0.7871630104491487, 0.80293362098746, 0.8201839102548547, 0.8358654328912962, 0.8527180691598915, 0.8689409460057504, 0.8855741051374935, 0.9022721175570041, 0.920935184287373, 0.935891374188941, 0.9546554755070247, 0.9691628124564886, 0.9871950957458466, 1.0027704637905117, 1.0203282941365615, 1.0358029689523391, 1.0532027620938607, 1.0689767859585118, 1.08647932036547, 1.102496373350732, 1.1194746202090755, 1.135840856906725, 1.152840607741382, 1.1689139806840103, 1.1861014646710828, 1.2022454935649876, 1.2194701828702819, 1.2358941048732959, 1.252847775729606, 1.268988391297171, 1.2861410593031906, 1.3025898986088578, 1.3193316016695462, 1.3356483450625092, 1.3527655144571327, 1.3689870259549934, 1.3860055500990711, 1.4022663148934953, 1.4193582256266382, 1.4355660838191397, 1.4527324051596224, 1.4688726793974638, 1.4860007714305539, 1.5022280855919234, 1.5193360389966983, 1.5355742757965345]
8	images/0051.jpg	images/0279.jpg	left	1.62	[0.0, 0.0, 0.0, 0.0, 0.0, 0.0, 0.0, 0.0, 0.0, 0.0, 0.0, 0.0, 0.0, 0.0, 0.0, 0.0, 0.0, 0.0, 0.0, 0.0, 0.0, 0.0, 0.0, 0.0, 0.0, 0.0, 0.0, 0.0, 0.0, 0.0, 0.0, 0.0, 0.0, 0.0, 0.0, 0.0, 0.0, 0.0, 0.0, 4.0, 19.0, 46.0, 103.0, 151.0, 198.0, 248.0, 303.0, 358.0, 403.0, 439.0, 470.0, 493.0, 520.0, 526.0, 541.0, 545.0, 546.0, 546.0, 546.0, 521.0, 443.0, 294.0, 78.0, -152.0, -347.0, -509.0, -687.0, -759.0, -790.0, -798.0, -798.0, -798.0, -798.0, -798.0, -798.0, -798.0, -798.0, -798.0, -798.0, -798.0, -798.0, -799.0, -795.0, -791.0, -791.0, -790.0, -790.0, -790.0, -790.0, -790.0, -784.0, -777.0, -769.0, -755.0, -743.0, -733.0, -724.0, -721.0]	[-490.0, -490.0, -490.0, -490.0, -490.0, -490.0, -490.0, -490.0, -490.0, -490.0, -490.0, -490.0, -490.0, -490.0, -490.0, -490.0, -490.0, -490.0, -490.0, -490.0, -490.0, -490.0, -490.0, -490.0, -490.0, -490.0, -490.0, -490.0, -490.0, -490.0, -490.0, -490.0, -490.0, -490.0, -490.0, -490.0, -490.0, -490.0, -490.0, -485.0, -468.0, -437.0, -369.0, -310.0, -244.0, -173.0, -102.0, -28.0, 35.0, 85.0, 131.0, 164.0, 200.0, 208.0, 227.0, 232.0, 234.0, 234.0, 237.0, 244.0, 262.0, 288.0, 299.0, 299.0, 287.0, 263.0, 237.0, 231.0, 231.0, 231.0, 231.0, 231.0, 231.0, 231.0, 231.0, 231.0, 231.0, 231.0, 231.0, 231.0, 231.0, 232.0, 234.0, 237.0, 237.0, 238.0, 238.0, 238.0, 238.0, 238.0, 242.0, 247.0, 254.0, 264.0, 275.0, 285.0, 293.0, 296.0]	[0.011640822078334168, 0.018252443085657433, 0.02386566495988518, 0.039462195651140064, 0.05662783433217555, 0.07280667920713313, 0.0899586645537056, 0.10607197348144837, 0.12338438536971807, 0.13947994497721083, 0.15666913564200513, 0.1729145404533483, 0.18993886726093479, 0.20619963205535896, 0.22335946807288565, 0.2395557209092658, 0.2566035997006111, 0.27287835913011804, 0.2899327232444193, 0.3062119200185407, 0.3232949561206624, 0.3396031662123278, 0.35661554636317305, 0.37529875175096095, 0.3899402325914707, 0.4081401103758253, 0.42326969746500254, 0.4414002846751828, 0.4566677703114692, 0.4738815369491931, 0.48992555527365766, 0.5081633210356813, 0.5235287692630664, 0.5413583007175475, 0.5566107677004766, 0.5745218777447008, 0.5900552618259098, 0.607807310676435, 0.6233915533812251, 0.6409545037313364, 0.6566390983352903, 0.6741409500536975, 0.689961395226419, 0.7070686659717467, 0.7233403534046374, 0.7400632831559051, 0.7565349917567801, 0.7731377722520847, 0.7894753369910177, 0.8061969013651833, 0.8228259645111393, 0.8411367755616084, 0.8563619359047152, 0.8741737180389464, 0.889623475522967, 0.9065252637665253, 0.9229874150478281, 0.9409442637406755, 0.9564172318496276, 0.974579221685417, 0.9895449689065572, 1.0076130921661388, 1.0228665831382386, 1.0407671118737198, 1.0563834398926701, 1.076213182968786, 1.089485235628672, 1.1072181698400527, 1.1230648976634257, 1.1401394004060421, 1.1563424799242057, 1.1734279053343926, 1.1895767129026353, 1.206639610347338, 1.2230478310084436, 1.2399683925614227, 1.2563612532394473, 1.2734477026679087, 1.289717342093354, 1.3066935409442522, 1.323067628312856, 1.339919581922004, 1.3563998238823842, 1.3735197239147965, 1.3897231447626837, 1.406616058346117, 1.423182998871198, 1.439781342050992, 1.4564465864968952, 1.4733074147661682, 1.4895787608984392, 1.5064907891210169, 1.5231987001898233, 1.5398666753026191, 1.5561714720679447, 1.5733732920489274, 1.5894295983598568, 1.6065972850483377]
9	images/0518.jpg	images/0453.jpg	left	0.989	[0.0, 0.0, 0.0, 0.0, 0.0, 0.0, 0.0, 0.0, 0.0, 0.0, 0.0, 0.0, 0.0, 0.0, 0.0, 0.0, 0.0, 0.0, 0.0, -2.0, -6.0, -14.0, -25.0, -42.0, -76.0, -116.0, -164.0, -211.0, -271.0, -349.0, -477.0, -542.0, -601.0, -649.0, -691.0, -726.0, -750.0, -765.0, -778.0, -787.0, -798.0, -807.0, -824.0, -839.0, -859.0, -875.0, -882.0, -885.0, -886.0, -886.0, -886.0, -886.0, -885.0, -835.0, -781.0, -740.0, -711.0, -688.0, -674.0, -671.0]	[-490.0, -490.0, -490.0, -490.0, -490.0, -490.0, -490.0, -490.0, -490.0, -490.0, -490.0, -490.0, -490.0, -490.0, -490.0, -490.0, -490.0, -490.0, -490.0, -490.0, -489.0, -483.0, -474.0, -459.0, -429.0, -393.0, -346.0, -298.0, -242.0, -176.0, -66.0, -5.0, 60.0, 117.0, 161.0, 206.0, 235.0, 256.0, 278.0, 294.0, 312.0, 327.0, 350.0, 367.0, 381.0, 392.0, 399.0, 402.0, 403.0, 403.0, 403.0, 403.0, 404.0, 404.0, 404.0, 404.0, 404.0, 400.0, 399.0, 397.0]	[0.011569005582714453, 0.015533930214587599, 0.022746297385310754, 0.04090350854676217, 0.056007154344115406, 0.07453232252737507, 0.08962572831660509, 0.10750372905749828, 0.12292959322803654, 0.14096187651739456, 0.15609009825857356, 0.17404694695142098, 0.18958510967786424, 0.20745867310324684, 0.22284050530288368, 0.24031027173623443, 0.25636691934778355, 0.2732400356326252, 0.2895745283458382, 0.30655721251969226, 0.32290877192281187, 0.3399409493722487, 0.3563187913969159, 0.37319327300065197, 0.38954346705577336, 0.40651352191343904, 0.4228869265934918, 0.43980407482013106, 0.45608566093142144, 0.47313319839304313, 0.4895700910128653, 0.5065510685381014, 0.522943929216126, 0.539703040238237, 0.5563402953848708, 0.5729297639045399, 0.5893192112271208, 0.6062749300908763, 0.6225865535088815, 0.6397050882515032, 0.6559194317378569, 0.6730072464852128, 0.6892516273073852, 0.7064558366255369, 0.7226015721680596, 0.7396989442349877, 0.7559344503970351, 0.773068345093634, 0.7893758725258522, 0.8064824605826288, 0.8226824681041762, 0.8397149869124405, 0.8561211595661007, 0.8730239717988297, 0.8893451525364071, 0.9065066952316556, 0.9228886332712136, 0.9397409282100853, 0.9587760479771532, 0.9731270543998107]
10	images/0148.jpg	images/0075.jpg	left	1.39	[0.0, 0.0, 0.0, 0.0, 0.0, 0.0, 0.0, 0.0, 0.0, 0.0, 0.0, 0.0, 0.0, 0.0, -9.0, -22.0, -42.0, -92.0, -183.0, -278.0, -367.0, -460.0, -536.0, -599.0, -673.0, -690.0, -727.0, -744.0, -751.0, -757.0, -760.0, -759.0, -747.0, -715.0, -633.0, -513.0, -233.0, -116.0, 216.0, 378.0, 473.0, 514.0, 538.0, 546.0, 546.0, 546.0, 546.0, 546.0, 546.0, 546.0, 546.0, 546.0, 546.0, 546.0, 546.0, 547.0, 547.0, 542.0, 519.0, 444.0, 328.0, 214.0, 96.0, -49.0, -110.0, -164.0, -204.0, -233.0, -256.0, -281.0, -308.0, -360.0, -387.0, -467.0, -491.0, -562.0, -633.0, -714.0, -783.0, -824.0, -846.0, -857.0, -860.0, -860.0]	[-490.0, -490.0, -490.0, -490.0, -490.0, -490.0, -490.0, -490.0, -490.0, -490.0, -490.0, -490.0, -490.0, -491.0, -491.0, -487.0, -478.0, -450.0, -397.0, -336.0, -273.0, -202.0, -136.0, -72.0, 19.0, 44.0, 122.0, 164.0, 195.0, 221.0, 242.0, 260.0, 277.0, 295.0, 321.0, 349.0, 387.0, 405.0, 442.0, 461.0, 474.0, 480.0, 481.0, 481.0, 481.0, 481.0, 481.0, 481.0, 481.0, 481.0, 481.0, 481.0, 481.0, 481.0, 481.0, 481.0, 480.0, 478.0, 473.0, 470.0, 470.0, 468.0, 458.0, 437.0, 427.0, 420.0, 417.0, 417.0, 417.0, 417.0, 417.0, 417.0, 417.0, 417.0, 417.0, 417.0, 417.0, 417.0, 413.0, 413.0, 410.0, 409.0, 409.0, 409.0]	[0.010817868111189455, 0.015931378409732133, 0.02153060561977327, 0.03998443522141315, 0.05515498228487559, 0.07319784688297659, 0.08840935389162041, 0.10570674712653272, 0.12172345881117508, 0.13901675603119656, 0.15522495555342175, 0.17326952680014074, 0.18839672458125278, 0.20613000009325333, 0.22180708538508043, 0.23944273966480978, 0.2550307370547671, 0.2723230102856178, 0.2883240206283517, 0.3053797500906512, 0.3216289095580578, 0.33796203695237637, 0.3546211374050472, 0.3737139424192719, 0.38810932214255445, 0.4058968696335796, 0.42153401896939613, 0.43827811133814976, 0.45456925476901233, 0.47254180477466434, 0.4881427727814298, 0.506173349393066, 0.5213869044091552, 0.538940638769418, 0.5548576811852399, 0.5751093119033612, 0.5879052050004248, 0.6081288463901728, 0.6216183282085694, 0.6385122658102773, 0.6545941720833071, 0.6718082800507545, 0.6879140796372667, 0.705181435594568, 0.7214855496713426, 0.7384436578722671, 0.7548658731975593, 0.7717625414370559, 0.7881601807603147, 0.805212838225998, 0.8213114698301069, 0.838504073821241, 0.854975782422116, 0.8718342213833239, 0.8879912209231406, 0.9052606248587836, 0.9213162484811619, 0.9384020152210724, 0.9545641347649507, 0.9717055388027802, 0.9879034983168822, 1.0050947369891219, 1.0211896139080636, 1.0383255566412117, 1.0545900760916993, 1.0717325041186996, 1.0880833808332682, 1.105116240971256, 1.1213950964156538, 1.1383702712482773, 1.1548085292452015, 1.1717079281515907, 1.187933194305515, 1.2051155583176296, 1.2214469790342264, 1.2383368206210434, 1.2572709058003966, 1.2717191921256017, 1.2899767552153207, 1.3051138516457286, 1.3231799268978648, 1.3384057699004188, 1.3568107888568193, 1.3718816666514613]
11	images/0404.jpg	images/0400.jpg	left	1.645	[0.0, 0.0, 0.0, 0.0, 0.0, -1.0, -1.0, -1.0, -1.0, -1.0, -1.0, -1.0, -1.0, -1.0, -1.0, -1.0, -1.0, -1.0, -1.0, -1.0, -1.0, -2.0, -2.0, -2.0, -2.0, -2.0, -2.0, -2.0, -2.0, -2.0, -2.0, -2.0, -2.0, -2.0, -2.0, -2.0, -2.0, -2.0, -2.0, -2.0, -2.0, -2.0, -2.0, -2.0, -2.0, -2.0, -2.0, -2.0, -2.0, -2.0, -2.0, -2.0, -2.0, -2.0, -2.0, -2.0, -2.0, -2.0, -3.0, -6.0, -21.0, -143.0, -206.0, -410.0, -515.0, -594.0, -659.0, -711.0, -752.0, -781.0, -796.0, -811.0, -823.0, -834.0, -842.0, -845.0, -847.0, -848.0, -848.0, -848.0, -846.0, -832.0, -811.0, -781.0, -761.0, -740.0, -734.0, -724.0, -720.0, -718.0, -717.0, -717.0, -717.0, -717.0, -717.0, -715.0, -715.0, -714.0, -714.0]	[-490.0, -490.0, -490.0, -490.0, -490.0, -491.0, -491.0, -491.0, -491.0, -491.0, -491.0, -491.0, -491.0, -491.0, -491.0, -491.0, -491.0, -491.0, -491.0, -491.0, -491.0, -490.0, -490.0, -490.0, -490.0, -490.0, -490.0, -490.0, -490.0, -490.0, -490.0, -490.0, -490.0, -490.0, -490.0, -490.0, -490.0, -490.0, -490.0, -490.0, -490.0, -490.0, -490.0, -490.0, -490.0, -490.0, -490.0, -490.0, -490.0, -490.0, -490.0, -490.0, -490.0, -490.0, -490.0, -490.0, -490.0, -490.0, -490.0, -486.0, -477.0, -421.0, -396.0, -297.0, -236.0, -180.0, -120.0, -70.0, -21.0, 17.0, 46.0, 72.0, 90.0, 104.0, 118.0, 125.0, 130.0, 136.0, 141.0, 152.0, 165.0, 181.0, 199.0, 222.0, 241.0, 267.0, 277.0, 295.0, 302.0, 306.0, 308.0, 308.0, 308.0, 308.0, 308.0, 309.0, 309.0, 310.0, 310.0]	[0.002986322797369212, 0.010210636624833569, 0.022332055610604584, 0.040648327994858846, 0.05547617666888982, 0.07381634233752266, 0.08876741226413287, 0.10648839978966862, 0.12216275441460311, 0.14032303760177456, 0.1555669712543022, 0.17372179310768843, 0.18884660152252764, 0.20699186602723785, 0.2222658370155841, 0.23959019556059502, 0.25531779814627953, 0.2726039273838978, 0.28864760434953496, 0.3083667555474676, 0.32227266367408447, 0.3389925213996321, 0.3554300967080053, 0.37243087153183296, 0.38877970023895614, 0.4057572644378524, 0.4219412292877678, 0.43907956132898107, 0.45550518998061307, 0.4724827541504055, 0.4887769695778843, 0.5057647737558, 0.5223057729599532, 0.5390266547037754, 0.5555202086397912, 0.5724714901589323, 0.5888370441971347, 0.6057002618035767, 0.6221607064362615, 0.6389157214725856, 0.6555495632637758, 0.6724523755256087, 0.6885660257539712, 0.7057046991249081, 0.7219910639105365, 0.7390123187215067, 0.7552150568808429, 0.7724407702044118, 0.7885503244469874, 0.8056732965051197, 0.8219070959894452, 0.8390498653461691, 0.8552870781568345, 0.8724062955589034, 0.8886967563303187, 0.9056637391622644, 0.9220350958639756, 0.9389846707344986, 0.9552570408559404, 0.9725537514314055, 0.9886298550409265, 1.0056538405187894, 1.0243701552099083, 1.0390266547037754, 1.0572606658097357, 1.0724380395258777, 1.0898521686613094, 1.1057053818076383, 1.1230430523282848, 1.1389160628023092, 1.155840037681628, 1.172312428971054, 1.189069150655996, 1.205610149889253, 1.222028610529378, 1.238624564372003, 1.2552672808524221, 1.271921602630755, 1.2903655335539952, 1.3054258300398942, 1.3232751588220708, 1.3386450443649665, 1.3555335206037853, 1.3719226266257465, 1.3906546426587738, 1.405580112565076, 1.4236560864956118, 1.4385781430755742, 1.4566602609993424, 1.472235970373731, 1.4894289156945888, 1.5054565500176977, 1.5225269567745272, 1.5385979404090904, 1.5556232912058476, 1.5721318637952209, 1.5890630066860467, 1.6052213715447579, 1.6225416341039818]
12	images/0028.jpg	images/0460.jpg	right	1.338	[0.0, 0.0, 0.0, 0.0, 0.0, 0.0, 0.0, 0.0, 0.0, 0.0, 0.0, 0.0, 0.0, 0.0, 0.0, 0.0, 0.0, 0.0, -7.0, -15.0, -17.0, -17.0, -18.0, -19.0, -21.0, -22.0, -22.0, -23.0, -23.0, -23.0, -24.0, -24.0, -25.0, -25.0, -25.0, -25.0, -25.0, -25.0, -25.0, -25.0, -22.0, -17.0, -13.0, -7.0, -2.0, 3.0, 9.0, 17.0, 23.0, 31.0, 38.0, 47.0, 61.0, 78.0, 101.0, 134.0, 177.0, 231.0, 285.0, 375.0, 428.0, 474.0, 516.0, 555.0, 583.0, 612.0, 632.0, 649.0, 662.0, 670.0, 680.0, 688.0, 697.0, 705.0, 712.0, 721.0, 727.0, 732.0, 733.0, 734.0, 734.0]	[-490.0, -490.0, -490.0, -490.0, -490.0, -490.0, -490.0, -490.0, -490.0, -490.0, -490.0, -490.0, -490.0, -490.0, -490.0, -490.0, -490.0, -490.0, -488.0, -486.0, -484.0, -484.0, -483.0, -482.0, -481.0, -480.0, -480.0, -479.0, -479.0, -478.0, -477.0, -477.0, -476.0, -476.0, -475.0, -471.0, -466.0, -461.0, -453.0, -443.0, -432.0, -420.0, -407.0, -394.0, -383.0, -371.0, -360.0, -347.0, -338.0, -324.0, -314.0, -302.0, -285.0, -264.0, -241.0, -210.0, -171.0, -126.0, -79.0, -2.0, 41.0, 80.0, 113.0, 141.0, 162.0, 186.0, 201.0, 214.0, 223.0, 231.0, 239.0, 247.0, 259.0, 277.0, 293.0, 306.0, 317.0, 325.0, 327.0, 330.0, 330.0]	[0.01573292736429721, 0.024804535612929612, 0.03152947922353633, 0.04830463288817555, 0.06457290702383034, 0.08192866819445044, 0.09793138521490619, 0.11499871997511946, 0.13153118587797508, 0.14833467020071112, 0.16452102438779548, 0.18176721766940318, 0.19778154001687653, 0.21495639468776062, 0.23118575682747178, 0.2482735716039315, 0.26439200050663203, 0.28175288168131374, 0.29773580137407407, 0.3148454614565708, 0.33107721293345094, 0.34827527825837024, 0.36456710434868, 0.3816187377960887, 0.39782181731425226, 0.41491168006905355, 0.4335034081886988, 0.4483766541816294, 0.466419860109454, 0.48163034312892705, 0.4997561516647693, 0.5149287467065733, 0.5326135529612657, 0.5482875662564766, 0.5656388901115861, 0.5817170417285524, 0.5987195232009981, 0.6148355627956335, 0.6313577886903659, 0.6478776252770331, 0.664983189344639, 0.681607473816257, 0.697885305271484, 0.7145440643653274, 0.7316305137937889, 0.748021326464368, 0.7644834777456708, 0.7812296181509737, 0.7979928251588717, 0.8145894616609439, 0.8314670152612962, 0.847838713292731, 0.864668821595842, 0.8813006154086906, 0.8977460413880181, 0.9144525871088263, 0.9326456382696051, 0.9477250493946485, 0.965966911171563, 0.9814303219609428, 0.9995179011893924, 1.0146580696164165, 1.032539825013373, 1.047972515836591, 1.0653214503836352, 1.08150097791804, 1.1012784970225766, 1.1144447364495136, 1.1316093511413783, 1.1479714918532409, 1.1647787308320403, 1.181353180698352, 1.198240632948, 1.214471701765433, 1.2317114097240847, 1.2479653478658292, 1.2649319893680513, 1.281352839374449, 1.2999612928251736, 1.3146068696514703, 1.3316578204394318]
13	images/0151.jpg	images/0165.jpg	left	1.331	[0.0, 0.0, 0.0, 0.0, 0.0, 0.0, 0.0, 0.0, 0.0, 0.0, 0.0, 0.0, 0.0, 0.0, 0.0, 0.0, 0.0, 0.0, 0.0, 0.0, 0.0, 0.0, 0.0, 0.0, 0.0, 0.0, 0.0, 0.0, 0.0, 0.0, 0.0, 0.0, 0.0, 0.0, 0.0, 0.0, 0.0, 0.0, 0.0, 0.0, 0.0, 0.0, 0.0, 0.0, 0.0, 0.0, 0.0, 0.0, 0.0, -6.0, -14.0, -61.0, -122.0, -205.0, -280.0, -352.0, -408.0, -452.0, -487.0, -513.0, -529.0, -540.0, -547.0, -553.0, -560.0, -565.0, -567.0, -568.0, -571.0, -574.0, -584.0, -595.0, -606.0, -613.0, -629.0, -644.0, -658.0, -668.0, -674.0, -674.0]	[-490.0, -490.0, -490.0, -490.0, -490.0, -490.0, -490.0, -490.0, -490.0, -490.0, -490.0, -490.0, -490.0, -490.0, -490.0, -490.0, -490.0, -490.0, -490.0, -490.0, -490.0, -490.0, -490.0, -490.0, -490.0, -490.0, -490.0, -490.0, -490.0, -490.0, -490.0, -490.0, -490.0, -490.0, -490.0, -490.0, -490.0, -490.0, -490.0, -490.0, -490.0, -490.0, -490.0, -490.0, -490.0, -490.0, -490.0, -490.0, -488.0, -465.0, -454.0, -389.0, -328.0, -263.0, -200.0, -143.0, -95.0, -55.0, -17.0, 15.0, 37.0, 54.0, 67.0, 79.0, 97.0, 108.0, 118.0, 129.0, 141.0, 156.0, 175.0, 195.0, 214.0, 228.0, 249.0, 262.0, 273.0, 279.0, 283.0, 284.0]	[0.012154869618825614, 0.01658810317167081, 0.02579522063024342, 0.04092275974107906, 0.05873146987869404, 0.07429932858212851, 0.09140489264973439, 0.10769398807315156, 0.1250862719025463, 0.14090569308609702, 0.15850584872532636, 0.17412968605640344, 0.19151616722228937, 0.2074499349691905, 0.22423328063450754, 0.24059746935381554, 0.2568299034901429, 0.2740815581055358, 0.29234151053242385, 0.30729155644075945, 0.3257941966294311, 0.3405981520190835, 0.35728728977846913, 0.37406483278027736, 0.3923353665159084, 0.4072850710945204, 0.42555458084098063, 0.44068894660449587, 0.45842665946111083, 0.4741016967454925, 0.49141649797093123, 0.5072161218267865, 0.5246336642885581, 0.5406462799583096, 0.5580358331208117, 0.5743925124988891, 0.5909031330957077, 0.6073471937270369, 0.6243220272299368, 0.6406752932816744, 0.6575217855570372, 0.6737535370630212, 0.6909495543804951, 0.7073465110443067, 0.7242233819852117, 0.7404940454289317, 0.757630670821527, 0.7741668913513422, 0.7942342022433877, 0.807311353739351, 0.8243278299050871, 0.8404087121598423, 0.857549092208501, 0.8739733555412386, 0.890888797090156, 0.9073205697350204, 0.9242783366062213, 0.9404162215068936, 0.9574183616496157, 0.9737170144217089, 0.9907959545089398, 1.0071072365972213, 1.024189590010792, 1.0403708241938148, 1.0574944789113943, 1.073715990409255, 1.0908396451268345, 1.1070174660126213, 1.1242749232624192, 1.1403650215361267, 1.157492089580046, 1.1737252064049244, 1.1908526157785673, 1.2070905112777837, 1.224219968658872, 1.24047117610462, 1.257470926939277, 1.2738306783139706, 1.2908034638385288, 1.3073297857190482]
14	images/0486.jpg	images/0521.jpg	left	1.242	[0.0, 0.0, 0.0, 0.0, 0.0, 0.0, 0.0, 0.0, 0.0, 0.0, 0.0, 0.0, 0.0, 0.0, 0.0, 0.0, -5.0, -8.0, -30.0, -47.0, -65.0, -80.0, -104.0, -138.0, -176.0, -208.0, -232.0, -245.0, -256.0, -264.0, -268.0, -268.0, -268.0, -268.0, -267.0, -254.0, -236.0, -196.0, -135.0, -38.0, 67.0, 191.0, 372.0, 483.0, 571.0, 635.0, 681.0, 716.0, 733.0, 743.0, 748.0, 748.0, 748.0, 748.0, 746.0, 667.0, 535.0, 362.0, 190.0, 25.0, -137.0, -294.0, -426.0, -529.0, -597.0, -636.0, -660.0, -662.0, -662.0, -662.0, -662.0, -662.0, -662.0, -662.0, -662.0]	[-490.0, -490.0, -490.0, -490.0, -490.0, -490.0, -490.0, -490.0, -490.0, -490.0, -490.0, -490.0, -490.0, -490.0, -490.0, -490.0, -488.0, -484.0, -461.0, -440.0, -415.0, -389.0, -351.0, -311.0, -268.0, -230.0, -199.0, -177.0, -162.0, -150.0, -143.0, -142.0, -142.0, -141.0, -139.0, -133.0, -125.0, -109.0, -85.0, -46.0, 1.0, 53.0, 132.0, 186.0, 235.0, 272.0, 302.0, 321.0, 331.0, 337.0, 338.0, 338.0, 338.0, 338.0, 343.0, 364.0, 382.0, 406.0, 426.0, 426.0, 426.0, 426.0, 426.0, 426.0, 426.0, 426.0, 427.0, 427.0, 427.0, 427.0, 427.0, 427.0, 427.0, 427.0, 427.0]	[0.007036239287117496, 0.01226443750783801, 0.016589468490565196, 0.03082885898766108, 0.047677057940745726, 0.06389788677915931, 0.0809908215305768, 0.09711880775284953, 0.11414927855366841, 0.1304001446987968, 0.14754257272579707, 0.16393782274099067, 0.18086657629464753, 0.1971703490416985, 0.214228467841167, 0.2307674190378748, 0.24757261003833264, 0.2660424822825007, 0.2809140215977095, 0.29922414995962754, 0.31421891049831174, 0.3327546600194182, 0.3476330259873066, 0.36598377299378626, 0.38100549884256907, 0.398544555879198, 0.4141448412265163, 0.4312323146441486, 0.44754871673649177, 0.46386955614434555, 0.48045936596463434, 0.4973382849129848, 0.5138352521753404, 0.5309240909118671, 0.5474091115174815, 0.5639777587202843, 0.5805358245852403, 0.5972082370135467, 0.6139117107668426, 0.6307179257564712, 0.6471947543614078, 0.6643088517594151, 0.6807607630616985, 0.697707607265329, 0.714128457242623, 0.7310217121557798, 0.7475818260281812, 0.7643153370881919, 0.7807020537729841, 0.7976430953131057, 0.8137703988759313, 0.8309862135211006, 0.8474586048105266, 0.8642986117629334, 0.8807402830570936, 0.8976291006547399, 0.9140629213070497, 0.9308855202689301, 0.9471555010532029, 0.964105758612277, 0.9805006672686432, 0.9975813140335958, 1.0137755188916344, 1.0309333069017157, 1.0470834797888529, 1.0642160091665573, 1.080449808650883, 1.0976639166183304, 1.1137744948791806, 1.1308500216400716, 1.1470988397777546, 1.164243657141924, 1.180544016562635, 1.1976574313011952, 1.2138533428078517]
15	images/0434.jpg	images/0422.jpg	right	0.858	[0.0, 0.0, 0.0, 0.0, 0.0, 0.0, 0.0, 0.0, -2.0, -7.0, -15.0, -26.0, -38.0, -50.0, -67.0, -90.0, -126.0, -185.0, -253.0, -314.0, -364.0, -442.0, -500.0, -544.0, -585.0, -613.0, -626.0, -628.0, -628.0, -610.0, -552.0, -442.0, -163.0, 77.0, 308.0, 497.0, 622.0, 675.0, 694.0, 695.0, 695.0, 695.0, 695.0, 695.0, 695.0, 695.0, 695.0, 695.0, 695.0, 695.0, 695.0, 695.0]	[-490.0, -490.0, -490.0, -490.0, -490.0, -490.0, -490.0, -490.0, -490.0, -488.0, -482.0, -472.0, -458.0, -443.0, -423.0, -397.0, -356.0, -302.0, -238.0, -175.0, -116.0, -26.0, 32.0, 77.0, 123.0, 160.0, 179.0, 196.0, 208.0, 221.0, 242.0, 268.0, 308.0, 333.0, 363.0, 385.0, 405.0, 416.0, 419.0, 419.0, 419.0, 419.0, 419.0, 419.0, 419.0, 419.0, 419.0, 419.0, 419.0, 419.0, 419.0, 419.0]	[0.014346227777423337, 0.018530288187321275, 0.028668220882536843, 0.04537271862500347, 0.06186456588329747, 0.07983438522205688, 0.09516092148260213, 0.1129167249891907, 0.12831801318679936, 0.14655953360488638, 0.16199256578693166, 0.17939474826562218, 0.1953152040077839, 0.21277302378439344, 0.22850847701192833, 0.24537783861160278, 0.2618601285503246, 0.27871515418519266, 0.294989572284976, 0.3121855896024499, 0.3283913997875061, 0.34543961990857497, 0.3619068911939394, 0.3787684021226596, 0.3951793534506578, 0.4122490775480401, 0.4285047223675065, 0.4454054865927901, 0.4617464646580629, 0.4787346101657022, 0.49500493227969855, 0.5121289283270016, 0.5283617038221564, 0.5453167399973609, 0.561602422123542, 0.5787154955032747, 0.5949155030248221, 0.6121043523598928, 0.6282524772395846, 0.6454170919314492, 0.6615891101246234, 0.6787779594596941, 0.6949216470238753, 0.7121913922892418, 0.7282480399007909, 0.7453624786285218, 0.761751584650483, 0.778776252787793, 0.7949339350161608, 0.8121101550059393, 0.8283855971239973, 0.8454228945774958]
16	images/0483.jpg	images/0200.jpg	left	1.493	[0.0, -1.0, -1.0, -1.0, -1.0, -1.0, -1.0, -1.0, -1.0, -1.0, -1.0, -4.0, -21.0, -51.0, -112.0, -199.0, -297.0, -399.0, -490.0, -581.0, -696.0, -723.0, -767.0, -777.0, -783.0, -785.0, -785.0, -785.0, -785.0, -785.0, -785.0, -785.0, -755.0, -711.0, -459.0, -194.0, 121.0, 429.0, 648.0, 761.0, 808.0, 822.0, 823.0, 823.0, 823.0, 823.0, 823.0, 823.0, 823.0, 823.0, 823.0, 823.0, 823.0, 823.0, 823.0, 823.0, 823.0, 823.0, 823.0, 824.0, 824.0, 824.0, 824.0, 824.0, 824.0, 824.0, 824.0, 824.0, 824.0, 822.0, 773.0, 675.0, 530.0, 319.0, 66.0, -182.0, -390.0, -541.0, -645.0, -704.0, -736.0, -749.0, -750.0, -750.0, -750.0, -750.0, -750.0, -750.0, -750.0, -750.0]	[-490.0, -491.0, -491.0, -491.0, -491.0, -491.0, -491.0, -491.0, -491.0, -491.0, -491.0, -490.0, -479.0, -457.0, -410.0, -349.0, -275.0, -197.0, -120.0, -41.0, 62.0, 93.0, 152.0, 175.0, 186.0, 191.0, 191.0, 191.0, 191.0, 191.0, 191.0, 191.0, 201.0, 207.0, 233.0, 247.0, 247.0, 268.0, 298.0, 326.0, 341.0, 344.0, 344.0, 344.0, 344.0, 344.0, 344.0, 344.0, 344.0, 344.0, 344.0, 344.0, 344.0, 344.0, 344.0, 344.0, 344.0, 344.0, 344.0, 344.0, 344.0, 344.0, 344.0, 344.0, 344.0, 344.0, 344.0, 344.0, 344.0, 343.0, 338.0, 338.0, 338.0, 338.0, 338.0, 336.0, 336.0, 336.0, 332.0, 332.0, 332.0, 332.0, 332.0, 332.0, 332.0, 332.0, 332.0, 332.0, 332.0, 332.0]	[0.01527943229302764, 0.02188661598484032, 0.03060118987923488, 0.04702511188224889, 0.06397775874938816, 0.08028665150050074, 0.09734750093775801, 0.1136284043896012, 0.13062883788370527, 0.14696367192664184, 0.1639671774173621, 0.1803610620845575, 0.19731302629224956, 0.2163604340457823, 0.23078721639467403, 0.24887684363056906, 0.26400404138257727, 0.28249507627333514, 0.29730551698594354, 0.3150019285385497, 0.330679696489824, 0.34773986326763406, 0.3638791134872008, 0.3807071738119703, 0.39712017311831005, 0.4137564042757731, 0.4302919421461411, 0.4485320972453337, 0.46364564169198275, 0.48180285285343416, 0.4968460827076342, 0.5150647338305134, 0.5304670460172929, 0.5483914680371527, 0.5637896842381451, 0.5814785864786245, 0.5972065303940326, 0.6144182490243111, 0.6306145018897951, 0.6474469995300751, 0.6637101536325645, 0.6807307257840876, 0.6971147118019871, 0.713955401442945, 0.7304830886714626, 0.7473708822508343, 0.7637944628950208, 0.7808071843755897, 0.7971645464131143, 0.8140011400682852, 0.8305090299691074, 0.8473149036290124, 0.8639350921148434, 0.8806419791944791, 0.8970457625400741, 0.9139888520585373, 0.9305114193120971, 0.9473848768975586, 0.9637040096567944, 0.9807341390987858, 0.9970816024870146, 1.0139745160704479, 1.0303929767396767, 1.047494103491772, 1.063483849837212, 1.080766907078214, 1.097081943822559, 1.1140195720363408, 1.1305148326209746, 1.1473435756051913, 1.1638739935006015, 1.1807378937664907, 1.1971133464830928, 1.214021620049607, 1.2306308858678676, 1.2474070635507815, 1.2636688523343764, 1.280689765815623, 1.297066925180843, 1.3138321801961865, 1.3304452006996144, 1.3473196823033504, 1.3637767135805916, 1.3807153657835443, 1.3971703490824439, 1.413989876076812, 1.430289552838076, 1.4473309462773614, 1.4635036471590865, 1.4807481337629724]
17	images/0173.jpg	images/0440.jpg	left	1.179	[0.0, 0.0, 0.0, 0.0, 0.0, 0.0, 0.0, 0.0, 0.0, 0.0, 0.0, 0.0, 0.0, 0.0, 0.0, 0.0, 0.0, 0.0, 0.0, 0.0, -2.0, -8.0, -14.0, -28.0, -34.0, -53.0, -60.0, -69.0, -73.0, -78.0, -81.0, -84.0, -86.0, -87.0, -87.0, -88.0, -88.0, -91.0, -91.0, -103.0, -127.0, -174.0, -259.0, -368.0, -474.0, -570.0, -646.0, -706.0, -753.0, -804.0, -819.0, -834.0, -840.0, -844.0, -849.0, -852.0, -853.0, -853.0, -853.0, -853.0, -853.0, -853.0, -853.0, -853.0, -853.0, -853.0, -853.0, -853.0, -853.0, -853.0, -853.0]	[-490.0, -490.0, -490.0, -490.0, -490.0, -490.0, -490.0, -490.0, -490.0, -490.0, -490.0, -490.0, -490.0, -490.0, -490.0, -490.0, -490.0, -490.0, -490.0, -490.0, -488.0, -481.0, -474.0, -458.0, -451.0, -432.0, -425.0, -411.0, -404.0, -397.0, -395.0, -390.0, -389.0, -387.0, -387.0, -386.0, -386.0, -384.0, -382.0, -373.0, -356.0, -322.0, -270.0, -197.0, -120.0, -42.0, 26.0, 93.0, 156.0, 233.0, 257.0, 299.0, 320.0, 336.0, 352.0, 363.0, 369.0, 373.0, 375.0, 378.0, 379.0, 381.0, 382.0, 383.0, 383.0, 383.0, 383.0, 383.0, 383.0, 383.0, 383.0]	[0.001130017131799832, 0.005992647667881101, 0.018537660944275558, 0.03549030781141482, 0.051672566012712196, 0.06887984732748009, 0.08500100689707324, 0.10212466164375655, 0.11832330381730571, 0.1354384252044838, 0.15155787812545896, 0.16879246608004905, 0.1849364949739538, 0.2021093016373925, 0.21828814651235007, 0.23541555588599294, 0.2516087367257569, 0.2688201140554156, 0.2849368363094982, 0.30208370165200904, 0.31833388513769023, 0.3353780092438683, 0.3515984967525583, 0.36875662609236315, 0.38492864431464113, 0.40208028833149, 0.418357437098166, 0.43536811060039327, 0.45177052859799005, 0.46880373006570153, 0.4850327508756891, 0.502186784229707, 0.5183779170911293, 0.5354104358993936, 0.5516715420235414, 0.5687897354073357, 0.5870056558633223, 0.6021065709646791, 0.620461072656326, 0.6353933692444116, 0.653238943341421, 0.6687648181105033, 0.6864472349989228, 0.7021861015819013, 0.7198343851778191, 0.7353609426063485, 0.7530221968772821, 0.7689999965659808, 0.7860864459944423, 0.8019498991197906, 0.8186799968243577, 0.8350417962064967, 0.8517742832482327, 0.8683958370820619, 0.8851795240771025, 0.9019813017512206, 0.9185724769195076, 0.935342510609189, 0.9517363953054883, 0.9684576183499303, 0.9851566547877155, 1.0017676272545941, 1.0185028449923266, 1.0350216575607192, 1.0519128644664306, 1.0683896930713672, 1.0849863295734394, 1.1016703473578673, 1.1188066313916352, 1.1349537322821561, 1.1523221227980684]
18	images/0317.jpg	images/0072.jpg	left	1.03	[0.0, 0.0, 0.0, 0.0, 0.0, 0.0, 0.0, 0.0, 0.0, 0.0, 0.0, 0.0, 0.0, 0.0, 0.0, 0.0, 0.0, 0.0, 0.0, 0.0, 0.0, 0.0, 0.0, 0.0, 0.0, 0.0, 0.0, 0.0, 0.0, 0.0, 0.0, 0.0, 0.0, 0.0, 0.0, 0.0, 0.0, 0.0, 0.0, -39.0, -97.0, -305.0, -447.0, -562.0, -638.0, -693.0, -727.0, -752.0, -769.0, -779.0, -783.0, -784.0, -786.0, -787.0, -787.0, -788.0, -788.0, -788.0, -790.0, -791.0, -791.0, -791.0]	[-490.0, -490.0, -490.0, -490.0, -490.0, -490.0, -490.0, -490.0, -490.0, -490.0, -490.0, -490.0, -490.0, -490.0, -490.0, -490.0, -490.0, -490.0, -490.0, -490.0, -490.0, -490.0, -490.0, -490.0, -490.0, -490.0, -490.0, -490.0, -490.0, -490.0, -490.0, -490.0, -490.0, -490.0, -490.0, -490.0, -490.0, -490.0, -490.0, -476.0, -447.0, -341.0, -253.0, -168.0, -96.0, -22.0, 41.0, 101.0, 146.0, 179.0, 199.0, 214.0, 224.0, 230.0, 230.0, 232.0, 232.0, 236.0, 245.0, 257.0, 268.0, 276.0]	[0.014877683279337361, 0.01937235679361038, 0.02921264705946669, 0.046111704636132345, 0.06259501856402494, 0.07950772947515361, 0.09579341157223098, 0.11262181322672404, 0.12913721246877685, 0.1460485580319073, 0.16250046930508688, 0.17942103088716976, 0.19586918750428595, 0.21276005310937762, 0.22923073772108182, 0.24609429665724747, 0.26234379745437764, 0.2792486576945521, 0.2956664356752299, 0.3128293437184766, 0.3288774579996243, 0.3460110113956034, 0.36220828822115436, 0.37932033764082007, 0.3954814331664238, 0.41272284780279733, 0.4288498100358993, 0.44602159271016717, 0.46222467222833075, 0.4793643695884384, 0.4955377531296108, 0.5127477651112713, 0.5290341298677959, 0.5460096460592467, 0.5622018029098399, 0.5793114629632328, 0.5955094224773347, 0.6127231891150586, 0.6289713245932944, 0.6459714167576749, 0.6623376534553245, 0.6793585669365712, 0.6955636944330763, 0.712710559804691, 0.7291914843954146, 0.7459468407905661, 0.7646136621769983, 0.7794800814881455, 0.7974761834775563, 0.8127450344327372, 0.8303673767368309, 0.8460144247219432, 0.863673972315155, 0.8793022469908465, 0.8970433731738012, 0.9127033918048255, 0.9303707900689915, 0.946016131376382, 0.9631288634554949, 0.979371878929669, 0.9958937634946778, 1.0125320426304825]
19	images/0494.jpg	images/0190.jpg	right	3.032	[0.0, 0.0, 0.0, 0.0, 0.0, 0.0, 0.0, 0.0, 0.0, 0.0, 0.0, -6.0, -17.0, -28.0, -44.0, -59.0, -76.0, -96.0, -122.0, -168.0, -210.0, -249.0, -280.0, -284.0, -293.0, -296.0, -299.0, -300.0, -300.0, -300.0, -300.0, -300.0, -300.0, -300.0, -300.0, -300.0, -300.0, -300.0, -300.0, -300.0, -300.0, -300.0, -300.0, -300.0, -300.0, -300.0, -300.0, -300.0, -300.0, -300.0, -300.0, -300.0, -300.0, -300.0, -300.0, -300.0, -300.0, -300.0, -300.0, -300.0, -300.0, -300.0, -300.0, -300.0, -300.0, -300.0, -300.0, -300.0, -300.0, -300.0, -300.0, -300.0, -300.0, -300.0, -300.0, -300.0, -300.0, -300.0, -300.0, -300.0, -300.0, -300.0, -300.0, -300.0, -300.0, -300.0, -300.0, -300.0, -300.0, -300.0, -300.0, -300.0, -300.0, -300.0, -300.0, -300.0, -300.0, -300.0, -300.0, -300.0, -300.0, -300.0, -300.0, -300.0, -300.0, -300.0, -300.0, -300.0, -300.0, -300.0, -300.0, -300.0, -300.0, -300.0, -300.0, -300.0, -300.0, -272.0, -191.0, 5.0, 153.0, 322.0, 473.0, 599.0, 692.0, 732.0, 738.0, 738.0, 738.0, 738.0, 738.0, 738.0, 738.0, 735.0, 732.0, 729.0, 725.0, 722.0, 721.0, 718.0, 717.0, 714.0, 712.0, 711.0, 708.0, 708.0, 708.0, 708.0, 708.0, 708.0, 708.0, 708.0, 708.0, 708.0, 708.0, 708.0, 708.0, 708.0, 708.0, 707.0, 707.0, 705.0, 705.0, 704.0, 703.0, 701.0, 696.0, 695.0, 690.0, 688.0, 687.0, 687.0, 686.0, 686.0, 686.0, 686.0, 686.0, 686.0, 686.0, 686.0, 686.0, 686.0]	[-490.0, -490.0, -490.0, -490.0, -490.0, -490.0, -490.0, -490.0, -490.0, -490.0, -490.0, -489.0, -485.0, -479.0, -473.0, -464.0, -453.0, -438.0, -416.0, -376.0, -335.0, -289.0, -240.0, -232.0, -208.0, -200.0, -195.0, -193.0, -193.0, -193.0, -193.0, -193.0, -193.0, -193.0, -193.0, -193.0, -193.0, -193.0, -193.0, -193.0, -193.0, -193.0, -193.0, -193.0, -193.0, -193.0, -193.0, -193.0, -193.0, -193.0, -193.0, -193.0, -193.0, -193.0, -193.0, -193.0, -193.0, -193.0, -193.0, -193.0, -193.0, -193.0, -193.0, -193.0, -193.0, -193.0, -193.0, -193.0, -193.0, -193.0, -193.0, -193.0, -193.0, -193.0, -193.0, -193.0, -193.0, -193.0, -193.0, -193.0, -193.0, -193.0, -193.0, -193.0, -193.0, -193.0, -193.0, -193.0, -193.0, -193.0, -193.0, -193.0, -193.0, -193.0, -193.0, -193.0, -193.0, -193.0, -193.0, -193.0, -193.0, -193.0, -193.0, -193.0, -193.0, -193.0, -193.0, -193.0, -193.0, -193.0, -193.0, -193.0, -193.0, -193.0, -193.0, -193.0, -192.0, -182.0, -144.0, -14.0, 107.0, 248.0, 383.0, 497.0, 540.0, 540.0, 540.0, 540.0, 540.0, 540.0, 540.0, 540.0, 540.0, 540.0, 539.0, 537.0, 535.0, 529.0, 522.0, 511.0, 500.0, 487.0, 466.0, 460.0, 444.0, 435.0, 430.0, 427.0, 426.0, 425.0, 425.0, 425.0, 425.0, 425.0, 425.0, 425.0, 425.0, 425.0, 424.0, 423.0, 422.0, 420.0, 418.0, 415.0, 408.0, 402.0, 389.0, 381.0, 372.0, 368.0, 364.0, 362.0, 361.0, 361.0, 361.0, 361.0, 361.0, 361.0, 361.0, 361.0, 361.0, 361.0]	[0.00235096545657143, 0.008734234666917473, 0.019009041890967637, 0.036890797317028046, 0.05245319468667731, 0.07008850763668306, 0.08578573158592917, 0.10207653368706815, 0.11870320749585517, 0.1374563861754723, 0.15206885369843803, 0.17089098162250593, 0.1854833105171565, 0.20236734944046475, 0.21893258331692778, 0.2380421136622317, 0.252325536130229, 0.27115176006918773, 0.2857150756462943, 0.30367465497693047, 0.3189018633274827, 0.33936853386694565, 0.35222962155239657, 0.3694840068346821, 0.3853853479376994, 0.4026742078422103, 0.41887387400493026, 0.4361446432885714, 0.45224156821495853, 0.4690962524909992, 0.48556147576891817, 0.5024874986556824, 0.5189103966404218, 0.5358681635116227, 0.5522456642065663, 0.5691600817663129, 0.5855802490841597, 0.6024984213290736, 0.6188366687274538, 0.6358766968478449, 0.6520098030741792, 0.6691409671329893, 0.6856116517446935, 0.7024967146571726, 0.7189233672979753, 0.7358531448699068, 0.752294816164067, 0.7690126259112731, 0.785409241245361, 0.8025066133122891, 0.8186677088669967, 0.8357937529217452, 0.8519981977588031, 0.869090791180497, 0.8852829480310902, 0.9025127573113423, 0.91861719157896, 0.9357920462498441, 0.9519760110997595, 0.9691047858214006, 0.9852785106922965, 1.0024738453503232, 1.018643815536052, 1.0357777102617547, 1.0521234669722617, 1.0690853298292495, 1.085324931977084, 1.1024799893493764, 1.1187670367653482, 1.1357736142526846, 1.1521395096206106, 1.169093521835748, 1.185384323936887, 1.2024209387309384, 1.2213154292549007, 1.2358097955584526, 1.2549316139193252, 1.2691389191313647, 1.2861325259727892, 1.302479306672467, 1.3207358457730152, 1.3358394915412646, 1.3535277111222968, 1.369081916520372, 1.386397400405258, 1.4024243520689197, 1.4193739269394428, 1.4355517477961257, 1.4520763630280271, 1.469018087227596, 1.4855256357986946, 1.50234243212617, 1.5188779700256418, 1.5354080465622246, 1.5522316695423797, 1.5686753888439853, 1.585521881148452, 1.6022110189078376, 1.6189131273131352, 1.6356309370603412, 1.652261024195468, 1.6686757301795296, 1.68560482506291, 1.702226720226463, 1.7188766046892852, 1.7354206758900546, 1.7522821868478786, 1.7687323914724402, 1.7855587451194879, 1.8022468588605989, 1.8187673781067133, 1.8354356945492327, 1.852783946407726, 1.8689324126462452, 1.8856744570075534, 1.9020045124052558, 1.9189561352832243, 1.9352851666917559, 1.9524429547018372, 1.9686098529200535, 1.9857976782368496, 2.0019659417739604, 2.019038737867959, 2.035259908036096, 2.0524269120651297, 2.068769255449297, 2.0857707129325718, 2.1020642457006034, 2.119053756527137, 2.1353353426384274, 2.1524634347006213, 2.171660346299177, 2.1857983609079383, 2.203991753398441, 2.219100519170752, 2.237722284597112, 2.2525146346597467, 2.269982353085652, 2.2857874382461887, 2.3036340363614727, 2.319155132456217, 2.336667565512471, 2.352431690727826, 2.370226064871531, 2.3858389795350377, 2.403057866176823, 2.4189851486007683, 2.4361446432885714, 2.452376736095175, 2.4686412555456627, 2.4853590652928688, 2.50420269719325, 2.518782738101436, 2.5376980499422643, 2.552199925587047, 2.5690027272503357, 2.585443374555325, 2.6041398919187486, 2.6186287968885154, 2.6379810150538106, 2.652030965720769, 2.670080998330377, 2.685525635810336, 2.703179380740039, 2.71872573546716, 2.736659714835696, 2.752110837667715, 2.7694942468369845, 2.7855249531567097, 2.802768074441701, 2.818619922240032, 2.835902296821587, 2.851995125762187, 2.869047100539319, 2.885572398430668, 2.9025158293079585, 2.9189028873224743, 2.935813891555881, 2.9522053869150113, 2.969209233735455, 2.985573763755383, 3.002508661331376]
20	images/0398.jpg	images/0581.jpg	right	0.989	[0.0, 0.0, 0.0, 0.0, 0.0, 0.0, 0.0, 0.0, 0.0, 0.0, 0.0, 0.0, 0.0, 0.0, 0.0, 0.0, 0.0, 0.0, 0.0, 0.0, 0.0, 0.0, 0.0, -1.0, -1.0, -2.0, -4.0, -5.0, -6.0, -6.0, -7.0, -8.0, -8.0, -8.0, -8.0, -8.0, -5.0, 25.0, 61.0, 111.0, 169.0, 247.0, 322.0, 399.0, 473.0, 533.0, 575.0, 612.0, 617.0, 624.0, 626.0, 626.0, 628.0, 631.0, 633.0, 638.0, 642.0, 645.0, 648.0, 648.0]	[-490.0, -490.0, -490.0, -490.0, -490.0, -490.0, -490.0, -490.0, -490.0, -490.0, -490.0, -490.0, -490.0, -490.0, -490.0, -490.0, -490.0, -490.0, -490.0, -490.0, -490.0, -490.0, -490.0, -490.0, -489.0, -487.0, -485.0, -481.0, -479.0, -477.0, -476.0, -474.0, -474.0, -474.0, -472.0, -465.0, -457.0, -419.0, -376.0, -320.0, -248.0, -154.0, -63.0, 28.0, 114.0, 182.0, 233.0, 278.0, 285.0, 295.0, 297.0, 298.0, 301.0, 305.0, 309.0, 314.0, 321.0, 325.0, 328.0, 329.0]	[0.005220552324317396, 0.009016517084091902, 0.01689414237625897, 0.027291488164337352, 0.04352767698583193, 0.0605857957561966, 0.07684690188034438, 0.09395348993712105, 0.11020572140114382, 0.12734849078697152, 0.1436863968265243, 0.16068512367201038, 0.17693906178465113, 0.19402619387255982, 0.21039652658510022, 0.22735224544885568, 0.24374783679377288, 0.2606445050332695, 0.2769376964715775, 0.2940159538993612, 0.31040164656587876, 0.3273727254127152, 0.346431397163542, 0.3606861476728227, 0.37902802001917735, 0.39394836995052174, 0.41259198071202263, 0.4273699947516434, 0.4459566028963309, 0.46080834488384426, 0.478536500420887, 0.4939480286266189, 0.5116772081528325, 0.5273222081304993, 0.5449274837737903, 0.5605403984664008, 0.5778135570581071, 0.5939299379533622, 0.6103934545826633, 0.6269276271341369, 0.6436235915462021, 0.6602413907239679, 0.6793492144206539, 0.69390160733019, 0.7122823916433845, 0.727227658877382, 0.7451217022899073, 0.7605038758192677, 0.7777691837691236, 0.7937599541037343, 0.8110829473298509, 0.8271078509860672, 0.8441413937835023, 0.8604943185055163, 0.8774189760442823, 0.8938804446661379, 0.910670958342962, 0.9270139843865763, 0.9440362632158212, 0.9604714491870254]
21	images/0009.jpg	images/0374.jpg	right	1.43	[0.0, 0.0, 0.0, 0.0, 0.0, 0.0, 0.0, 0.0, 0.0, 0.0, 0.0, 0.0, 0.0, 0.0, 0.0, 0.0, 0.0, 0.0, -2.0, -2.0, -3.0, -4.0, -4.0, -4.0, -4.0, -5.0, -5.0, -5.0, -5.0, -5.0, -5.0, -5.0, -5.0, -5.0, -9.0, -19.0, -34.0, -62.0, -102.0, -155.0, -226.0, -309.0, -380.0, -438.0, -510.0, -530.0, -580.0, -600.0, -613.0, -616.0, -617.0, -617.0, -614.0, -555.0, -396.0, 59.0, 265.0, 839.0, 959.0, 959.0, 959.0, 959.0, 959.0, 959.0, 959.0, 959.0, 959.0, 959.0, 959.0, 954.0, 944.0, 924.0, 891.0, 844.0, 802.0, 771.0, 755.0, 750.0, 748.0, 747.0, 747.0, 747.0, 747.0, 747.0, 747.0, 747.0]	[-490.0, -490.0, -490.0, -490.0, -490.0, -490.0, -490.0, -490.0, -490.0, -490.0, -490.0, -490.0, -490.0, -490.0, -490.0, -490.0, -490.0, -490.0, -490.0, -490.0, -487.0, -485.0, -483.0, -482.0, -482.0, -482.0, -482.0, -482.0, -482.0, -482.0, -482.0, -482.0, -481.0, -479.0, -470.0, -454.0, -430.0, -391.0, -333.0, -269.0, -188.0, -104.0, -33.0, 25.0, 82.0, 97.0, 125.0, 137.0, 145.0, 148.0, 151.0, 152.0, 159.0, 184.0, 223.0, 299.0, 328.0, 404.0, 450.0, 487.0, 495.0, 496.0, 496.0, 496.0, 496.0, 496.0, 494.0, 494.0, 494.0, 492.0, 489.0, 484.0, 479.0, 471.0, 463.0, 451.0, 443.0, 439.0, 437.0, 436.0, 436.0, 436.0, 436.0, 436.0, 436.0, 436.0]	[0.016139591549290344, 0.02072335299453698, 0.029539644136093557, 0.04751492477953434, 0.06306059684720822, 0.0807686137559358, 0.09617536325822584, 0.11326898066909052, 0.1296079107269179, 0.1466813895094674, 0.16280596240540035, 0.1795759960950818, 0.1959104888373986, 0.2126108905649744, 0.22921640172717161, 0.24750980478711426, 0.26284692238550633, 0.28104509352124296, 0.2959285794640891, 0.3127600531151984, 0.3294833241670858, 0.34693670662818477, 0.36265304521657526, 0.37982789988745935, 0.39615488328854553, 0.4132048100582324, 0.42942939355270937, 0.44637009376310743, 0.46276193045196123, 0.4796527960279491, 0.4960985633370001, 0.5128897596732713, 0.5292566790303681, 0.5463209417939652, 0.562472138699377, 0.5797145773249213, 0.5958347128762398, 0.6130433595390059, 0.6292208390659653, 0.6462905631633475, 0.6624721387051977, 0.6796343640598934, 0.6958401742158458, 0.7129894289246295, 0.7291819271049462, 0.7462724725191947, 0.7625100266595837, 0.7797115053108428, 0.7959773901093286, 0.8129757755959872, 0.829307196312584, 0.8462960245087743, 0.8626175465760753, 0.8796415320539381, 0.8959009315003641, 0.9130228795693256, 0.9292273244063836, 0.9462844191584736, 0.9625967252650298, 0.9796940973319579, 0.9959702221094631, 1.0130017168994527, 1.0292925190005917, 1.046274179185275, 1.0626127679133788, 1.0796323160466272, 1.0959244834666606, 1.1130204902146943, 1.1292713563598227, 1.1462721311836503, 1.164722206100123, 1.1798695425095502, 1.197438636852894, 1.2130751035001595, 1.2305346299544908, 1.2461499339551665, 1.2637166389613412, 1.2794889561773743, 1.296694872144144, 1.312901706318371, 1.3291669084574096, 1.345978926110547, 1.3649212032614741, 1.379395430907607, 1.3973205356160179, 1.412785311753396]
22	images/0572.jpg	images/0017.jpg	right	1.05	[0.0, 0.0, 0.0, 0.0, 0.0, 0.0, 0.0, 0.0, 0.0, 0.0, 0.0, 0.0, 0.0, 0.0, 0.0, 0.0, 0.0, 0.0, 0.0, 0.0, 0.0, 0.0, 0.0, 0.0, 0.0, 0.0, 0.0, 0.0, 0.0, 0.0, 0.0, 0.0, 0.0, 0.0, -2.0, 0.0, 15.0, 40.0, 94.0, 154.0, 223.0, 290.0, 370.0, 408.0, 426.0, 433.0, 436.0, 436.0, 436.0, 436.0, 437.0, 441.0, 451.0, 473.0, 515.0, 609.0, 654.0, 687.0, 707.0, 717.0, 724.0, 725.0, 725.0]	[-490.0, -490.0, -490.0, -490.0, -490.0, -490.0, -490.0, -490.0, -490.0, -490.0, -490.0, -490.0, -490.0, -490.0, -490.0, -490.0, -490.0, -490.0, -490.0, -490.0, -490.0, -490.0, -490.0, -490.0, -490.0, -490.0, -490.0, -490.0, -490.0, -490.0, -490.0, -490.0, -490.0, -490.0, -490.0, -478.0, -452.0, -414.0, -348.0, -268.0, -173.0, -88.0, 24.0, 81.0, 115.0, 132.0, 138.0, 139.0, 139.0, 139.0, 139.0, 141.0, 144.0, 149.0, 162.0, 194.0, 220.0, 244.0, 261.0, 271.0, 278.0, 280.0, 280.0]	[0.004721864766906947, 0.009210052929120138, 0.025716236181324348, 0.04265386439510621, 0.0589013172138948, 0.07607309988816269, 0.09236219531157985, 0.1092704688780941, 0.1257104335236363, 0.14280780559056439, 0.15911533302278258, 0.175946806644788, 0.19497407574090175, 0.2094022234377917, 0.22747649069060571, 0.24267775772023015, 0.26157190691446885, 0.2760437452525366, 0.29439005491440184, 0.30932474083965644, 0.3277929064061027, 0.3427146216854453, 0.36035641995840706, 0.37608538786298595, 0.39386883936822414, 0.4093974447750952, 0.4265303154825233, 0.44256477648741566, 0.4593276421655901, 0.4758246094279457, 0.49253695784136653, 0.5090823943901341, 0.5256827855482697, 0.5424282432650216, 0.5592300209100358, 0.5758925346890464, 0.5925898644491099, 0.6093049435294233, 0.6257885987870395, 0.6422657687216997, 0.6591412743437104, 0.6758986786880996, 0.6924444565665908, 0.7089810184552334, 0.7257285241794307, 0.7422381207579747, 0.7591190876846667, 0.7756092282652389, 0.7924407019163482, 0.8089366451604292, 0.8258254627580754, 0.8424306325905491, 0.8591375196701847, 0.8758505507430527, 0.8922710593906231, 0.9090083251066972, 0.9258292174199596, 0.9422818113816902, 0.9593706501473207, 0.9755406203330494, 0.9922399980714545, 1.009010714449687, 1.0257838201359846]
23	images/0555.jpg	images/0160.jpg	left	1.445	[0.0, 0.0, 0.0, 0.0, 0.0, 0.0, 0.0, 0.0, 0.0, 0.0, 0.0, 0.0, 0.0, 0.0, 0.0, 0.0, -4.0, -12.0, -30.0, -38.0, -47.0, -48.0, -49.0, -49.0, -49.0, -49.0, -49.0, -49.0, -49.0, -49.0, -49.0, -49.0, -49.0, -49.0, -49.0, -49.0, -49.0, -49.0, -49.0, -49.0, -49.0, -49.0, -49.0, -33.0, 43.0, 156.0, 362.0, 498.0, 622.0, 723.0, 782.0, 810.0, 815.0, 815.0, 815.0, 815.0, 809.0, 794.0, 716.0, 597.0, 420.0, 195.0, -31.0, -244.0, -396.0, -491.0, -533.0, -548.0, -552.0, -552.0, -552.0, -552.0, -552.0, -552.0, -552.0, -552.0, -552.0, -552.0, -552.0, -552.0, -552.0, -557.0, -579.0, -609.0, -633.0, -639.0, -639.0]	[-490.0, -491.0, -491.0, -491.0, -491.0, -491.0, -491.0, -491.0, -491.0, -491.0, -491.0, -491.0, -491.0, -491.0, -491.0, -491.0, -491.0, -491.0, -489.0, -486.0, -481.0, -481.0, -480.0, -480.0, -480.0, -480.0, -480.0, -480.0, -480.0, -480.0, -480.0, -480.0, -480.0, -480.0, -480.0, -480.0, -480.0, -480.0, -480.0, -480.0, -480.0, -480.0, -479.0, -459.0, -412.0, -341.0, -197.0, -87.0, 24.0, 127.0, 197.0, 240.0, 254.0, 257.0, 257.0, 259.0, 259.0, 259.0, 268.0, 282.0, 304.0, 308.0, 308.0, 311.0, 315.0, 315.0, 318.0, 321.0, 321.0, 321.0, 321.0, 321.0, 321.0, 321.0, 321.0, 321.0, 321.0, 321.0, 321.0, 321.0, 321.0, 321.0, 321.0, 321.0, 321.0, 321.0, 321.0]	[0.014401660271687433, 0.01893592838314362, 0.028757786669302732, 0.04626646506949328, 0.06197631833492778, 0.07982871908461675, 0.09543002845020965, 0.11336571446736343, 0.1288035252946429, 0.14693445383454673, 0.16203468627645634, 0.1796996952034533, 0.1952351272921078, 0.21219187014503404, 0.22861408547032624, 0.24512538869748823, 0.26163873996119946, 0.28171492548426613, 0.2950047274644021, 0.3144992815214209, 0.3284871095675044, 0.3478659517131746, 0.36181384380324744, 0.3803134120244067, 0.3951648126821965, 0.4123297687037848, 0.42846731224562973, 0.44580395880620927, 0.4618718704150524, 0.4789658291556407, 0.49512658338062465, 0.5123342060251161, 0.5284871095791459, 0.5454663804266602, 0.5615861746482551, 0.578878106578486, 0.5952283006336074, 0.6121423768636305, 0.6286277387989685, 0.6454581884318031, 0.6618377371050883, 0.6786825227318332, 0.6951590100070462, 0.7120092569675762, 0.7285314828623086, 0.7454230311268475, 0.7618315931176767, 0.7786531680903863, 0.7949316822050605, 0.8120645529124886, 0.8286000908119604, 0.845461260410957, 0.861562281352235, 0.8787490826798603, 0.8951200980518479, 0.9119973103224766, 0.9282956217357423, 0.9453397458710242, 0.9615656946843956, 0.9786391734378412, 0.9948685356066562, 1.011982291645836, 1.028231109783519, 1.0454459004395176, 1.0615312200388871, 1.0786436107591726, 1.0948842369252816, 1.1119553263415582, 1.1282157498062588, 1.145648993580835, 1.1616503452823963, 1.1787217760283966, 1.1950286208011676, 1.2119805849797558, 1.228650608099997, 1.2453762684890535, 1.2640512819052674, 1.2787603466713335, 1.297011083108373, 1.3120218862895854, 1.3298162604332902, 1.3453219965449534, 1.3630873573711142, 1.378805061307503, 1.3962007584632374, 1.41196556633804, 1.429350340826204]
24	images/0479.jpg	images/0457.jpg	left	1.871	[0.0, 0.0, 0.0, 0.0, 0.0, 0.0, 0.0, 1.0, 1.0, 1.0, 1.0, 1.0, 1.0, 1.0, 1.0, 1.0, 1.0, 1.0, 1.0, 1.0, 1.0, 1.0, 1.0, 1.0, 1.0, 1.0, 1.0, 1.0, 1.0, -1.0, -9.0, -31.0, -89.0, -199.0, -341.0, -506.0, -768.0, -905.0, -960.0, -960.0, -960.0, -953.0, -924.0, -853.0, -728.0, -504.0, -176.0, 222.0, 680.0, 842.0, 925.0, 959.0, 959.0, 959.0, 959.0, 959.0, 959.0, 959.0, 959.0, 959.0, 959.0, 959.0, 959.0, 954.0, 939.0, 913.0, 872.0, 802.0, 708.0, 536.0, 467.0, 266.0, 152.0, 75.0, 26.0, 6.0, -10.0, -33.0, -86.0, -157.0, -216.0, -289.0, -306.0, -329.0, -344.0, -354.0, -365.0, -380.0, -406.0, -455.0, -530.0, -596.0, -638.0, -676.0, -706.0, -726.0, -741.0, -742.0, -742.0, -742.0, -742.0, -743.0, -743.0, -743.0, -743.0, -743.0, -743.0, -743.0, -743.0, -743.0, -743.0, -743.0]	[-490.0, -490.0, -490.0, -490.0, -491.0, -491.0, -491.0, -491.0, -491.0, -491.0, -491.0, -491.0, -491.0, -491.0, -491.0, -491.0, -491.0, -491.0, -491.0, -491.0, -491.0, -491.0, -491.0, -491.0, -491.0, -491.0, -491.0, -491.0, -491.0, -491.0, -485.0, -467.0, -425.0, -361.0, -273.0, -160.0, 29.0, 139.0, 233.0, 300.0, 342.0, 379.0, 411.0, 448.0, 489.0, 526.0, 540.0, 540.0, 540.0, 540.0, 540.0, 540.0, 540.0, 540.0, 540.0, 540.0, 540.0, 540.0, 540.0, 540.0, 540.0, 540.0, 540.0, 537.0, 531.0, 519.0, 500.0, 469.0, 416.0, 309.0, 267.0, 155.0, 97.0, 66.0, 54.0, 52.0, 52.0, 62.0, 92.0, 132.0, 165.0, 224.0, 242.0, 275.0, 293.0, 304.0, 314.0, 320.0, 326.0, 330.0, 330.0, 330.0, 330.0, 324.0, 321.0, 319.0, 317.0, 317.0, 317.0, 317.0, 317.0, 317.0, 317.0, 317.0, 317.0, 317.0, 317.0, 317.0, 317.0, 317.0, 317.0, 317.0]	[0.0017126727034337819, 0.009590297966497019, 0.020408166077686474, 0.036620802915422246, 0.05366560971015133, 0.07241264436743222, 0.08701453058165498, 0.1044252463907469, 0.12020063560339622, 0.13832746812840924, 0.15371885764761828, 0.17167980232625268, 0.18705549053265713, 0.20488126733107492, 0.2203999740886502, 0.23816738292225637, 0.25376323095406406, 0.2707462564576417, 0.2869554799690377, 0.30331147665856406, 0.3199883264314849, 0.33705736786942, 0.3535905164317228, 0.370133904973045, 0.386807341419626, 0.40337906061904505, 0.41991459848941304, 0.4367979547532741, 0.45343179657356814, 0.47018203293555416, 0.4867182534944732, 0.5033408313174732, 0.519926545151975, 0.5367815707868431, 0.5533369059849065, 0.5701816916116513, 0.5869384132965934, 0.6034360632183962, 0.6199238144909032, 0.6365897415962536, 0.6533836685994174, 0.6701973929302767, 0.6867066481790971, 0.7035944417584687, 0.7202371582388878, 0.7366136349155568, 0.7533491939830128, 0.7701158143172506, 0.7867448774632066, 0.8033971512631979, 0.8201112063252367, 0.8367815707752015, 0.8537168096518144, 0.8701011369994376, 0.8870199919037987, 0.9033937379426789, 0.9200886783655733, 0.9370570265455171, 0.9533631886297371, 0.9702857981901616, 0.9865772829507478, 1.0037302923155949, 1.0198968491749838, 1.0369966105790809, 1.053175796783762, 1.070432230073493, 1.086534274974838, 1.1036227724107448, 1.1198466732166708, 1.1370020719186869, 1.1533925432595424, 1.1702946728328243, 1.1866626162081957, 1.2036801163631026, 1.2200057344161905, 1.2370013892650604, 1.253701108333189, 1.2704073127533775, 1.2870483225560747, 1.3037514549505431, 1.3222199618758168, 1.337064535880927, 1.3550886271405034, 1.3702796541911084, 1.3887082251312677, 1.4037094709929079, 1.4220564633433241, 1.4370334745617583, 1.45458959825919, 1.4703984380757902, 1.4873978475807235, 1.503584884427255, 1.520260710211005, 1.5369109360035509, 1.553310623334255, 1.569939686480211, 1.5886764811584726, 1.6035312951426022, 1.6213188426336274, 1.6367034055001568, 1.6547486594354268, 1.6699154518428259, 1.6869227119896095, 1.7034971618559211, 1.7206075045687612, 1.736809560097754, 1.7537297803210095, 1.7700506197288632, 1.7869725466007367, 1.8034763405157719, 1.8204252327268478, 1.8365822322666645]
25	images/0088.jpg	images/0272.jpg	left	1.585	[0.0, -3.0, -3.0, -3.0, -3.0, -3.0, -3.0, -3.0, -3.0, -3.0, -3.0, -3.0, -3.0, -3.0, -3.0, -3.0, -13.0, -41.0, -123.0, -241.0, -379.0, -515.0, -643.0, -802.0, -876.0, -925.0, -955.0, -960.0, -960.0, -960.0, -945.0, -896.0, -792.0, -610.0, -346.0, 161.0, 459.0, 646.0, 724.0, 750.0, 752.0, 752.0, 752.0, 752.0, 752.0, 752.0, 752.0, 752.0, 752.0, 752.0, 752.0, 749.0, 710.0, 578.0, 343.0, 33.0, -284.0, -554.0, -741.0, -885.0, -915.0, -925.0, -925.0, -925.0, -925.0, -925.0, -925.0, -925.0, -925.0, -925.0, -925.0, -925.0, -925.0, -925.0, -925.0, -925.0, -925.0, -925.0, -925.0, -925.0, -925.0, -920.0, -917.0, -910.0, -907.0, -905.0, -904.0, -904.0, -904.0, -901.0, -896.0, -886.0, -868.0, -849.0, -847.0]	[-490.0, -489.0, -489.0, -489.0, -489.0, -489.0, -489.0, -489.0, -489.0, -489.0, -489.0, -489.0, -489.0, -489.0, -489.0, -489.0, -485.0, -477.0, -451.0, -401.0, -336.0, -256.0, -163.0, -10.0, 91.0, 188.0, 276.0, 342.0, 379.0, 403.0, 417.0, 432.0, 455.0, 462.0, 462.0, 441.0, 415.0, 412.0, 412.0, 412.0, 412.0, 412.0, 412.0, 412.0, 412.0, 412.0, 412.0, 412.0, 412.0, 412.0, 412.0, 410.0, 410.0, 410.0, 410.0, 410.0, 410.0, 410.0, 402.0, 396.0, 396.0, 396.0, 396.0, 396.0, 396.0, 396.0, 396.0, 396.0, 396.0, 396.0, 396.0, 396.0, 396.0, 396.0, 396.0, 396.0, 396.0, 396.0, 396.0, 396.0, 396.0, 396.0, 396.0, 396.0, 397.0, 397.0, 397.0, 397.0, 397.0, 397.0, 397.0, 397.0, 395.0, 392.0, 392.0]	[0.0024067392805591226, 0.008289614255772904, 0.021087896660901606, 0.0389771613990888, 0.05410094582475722, 0.07235475425841287, 0.0876652478473261, 0.10602862419909798, 0.12095853145001456, 0.13880717754364014, 0.15434192697284743, 0.17215063708135858, 0.18770518380915746, 0.20574395242147148, 0.2207489529682789, 0.23900310270255432, 0.25441428954945877, 0.27222846102085896, 0.2873658987809904, 0.3046421293693129, 0.3209776461008005, 0.33801255421712995, 0.35436479627969675, 0.371218115236843, 0.38741470940294676, 0.4047619372722693, 0.42093293147627264, 0.4379186876467429, 0.4543252016301267, 0.47116111259674653, 0.48761916789226234, 0.5045878574019298, 0.5207168676424772, 0.5379094716336112, 0.5541371271247044, 0.5712327925430145, 0.5876495465345215, 0.6045881987374742, 0.6209639927837998, 0.6379261969705112, 0.6544313562044408, 0.6711696459387895, 0.6877178131544497, 0.7045574787771329, 0.7209964194044005, 0.7379565756127704, 0.7544470575230662, 0.771181251242524, 0.7873925227613654, 0.8043956869223621, 0.8210018807440065, 0.8378995730017778, 0.8542948229878675, 0.8711191286565736, 0.8874222187441774, 0.9045496281178202, 0.9206950223306194, 0.9378398396947887, 0.954043943202123, 0.9711399499501567, 0.9873594134405721, 1.0044646361784544, 1.0208298488869332, 1.0378371090337168, 1.054177745769266, 1.0711542859498877, 1.0874188054003753, 1.1045288068125956, 1.1209691127587575, 1.1378398397064302, 1.1542562523682136, 1.1711720352759585, 1.1873764801130164, 1.2044994521711487, 1.220901528839022, 1.2378149224095978, 1.2541951537423301, 1.271115715324413, 1.287456693360582, 1.3044916015060153, 1.320730179635575, 1.3378326717065647, 1.354184572439408, 1.3711297099653166, 1.387490485329181, 1.404582054761704, 1.420724376977887, 1.4378586130333133, 1.454234407050535, 1.4711532619548962, 1.4876099519024137, 1.5044386948866304, 1.5235175052657723, 1.5379657915909775, 1.5561718133976683]
26	images/0086.jpg	images/0446.jpg	left	1.144	[0.0, 0.0, 0.0, 0.0, 0.0, 0.0, 0.0, 0.0, 0.0, 0.0, 0.0, 1.0, 1.0, 1.0, 1.0, 1.0, 1.0, 1.0, -19.0, -83.0, -182.0, -280.0, -375.0, -455.0, -537.0, -657.0, -720.0, -765.0, -786.0, -787.0, -771.0, -702.0, -539.0, -281.0, 86.0, 485.0, 835.0, 959.0, 959.0, 959.0, 959.0, 959.0, 957.0, 947.0, 928.0, 833.0, 770.0, 509.0, 396.0, 48.0, -167.0, -323.0, -437.0, -481.0, -505.0, -514.0, -519.0, -525.0, -532.0, -542.0, -547.0, -549.0, -550.0, -550.0, -552.0, -578.0, -622.0, -649.0, -654.0]	[-490.0, -490.0, -490.0, -490.0, -490.0, -490.0, -490.0, -490.0, -491.0, -492.0, -495.0, -496.0, -499.0, -501.0, -501.0, -501.0, -501.0, -501.0, -490.0, -452.0, -391.0, -322.0, -255.0, -189.0, -128.0, -20.0, 50.0, 116.0, 161.0, 192.0, 226.0, 278.0, 337.0, 405.0, 461.0, 527.0, 540.0, 540.0, 540.0, 540.0, 540.0, 540.0, 540.0, 537.0, 531.0, 516.0, 510.0, 497.0, 497.0, 485.0, 467.0, 450.0, 434.0, 433.0, 433.0, 433.0, 433.0, 434.0, 436.0, 438.0, 438.0, 439.0, 439.0, 439.0, 439.0, 439.0, 439.0, 439.0, 439.0]	[0.00033109303331002593, 0.006076752120861784, 0.017013404140016064, 0.03384965643635951, 0.050247978448169306, 0.0668678255751729, 0.08337776351254433, 0.10132368950871751, 0.1168403482879512, 0.13380255247466266, 0.15027221309719607, 0.16966266054078005, 0.18332315020961687, 0.20052326354198158, 0.21686219359980896, 0.23379640848725103, 0.250044543936383, 0.2672214466147125, 0.28331973688909784, 0.3005249701964203, 0.3168543429346755, 0.33361993927974254, 0.35021828245953657, 0.36713713736389764, 0.383506787387887, 0.4004642129293643, 0.4169328495336231, 0.4337339445191901, 0.4500459092669189, 0.4671774146554526, 0.48333987552905455, 0.5002942290739156, 0.516648519114824, 0.5337151712155901, 0.5499175680452026, 0.5670692120911554, 0.5832934542268049, 0.6005072208936326, 0.6166386204422452, 0.6337455498578493, 0.6499349760415498, 0.6671576173393987, 0.6832501049502753, 0.7004522662609816, 0.7167164443817455, 0.7336895712360274, 0.7500472746032756, 0.7670644334284589, 0.7833934648078866, 0.8004590929194819, 0.8166976710781455, 0.8337332618539222, 0.8525052138429601, 0.8671729773341212, 0.8853499858232681, 0.9004375889489893, 0.9186746720515657, 0.9337158538692165, 0.9516593905573245, 0.9670241561252624, 0.9846379650989547, 1.0002925223961938, 1.0178343100997154, 1.0336711392446887, 1.0502408104366623, 1.0666845297382679, 1.0834248674509581, 1.0999723520071711, 1.1166625137557276]
27	images/0542.jpg	images/0286.jpg	right	1.323	[0.0, 0.0, 0.0, 0.0, 0.0, 0.0, 0.0, -2.0, -12.0, -40.0, -123.0, -238.0, -361.0, -486.0, -609.0, -712.0, -806.0, -823.0, -852.0, -855.0, -859.0, -859.0, -855.0, -842.0, -793.0, -660.0, -422.0, -83.0, 456.0, 585.0, 815.0, 837.0, 869.0, 871.0, 871.0, 871.0, 871.0, 840.0, 729.0, 565.0, 358.0, 158.0, 4.0, -101.0, -143.0, -144.0, -144.0, -144.0, -144.0, -144.0, -144.0, -144.0, -144.0, -103.0, 43.0, 297.0, 769.0, 959.0, 959.0, 959.0, 959.0, 959.0, 959.0, 959.0, 959.0, 959.0, 955.0, 931.0, 896.0, 858.0, 829.0, 813.0, 799.0, 787.0, 775.0, 771.0, 771.0, 771.0, 771.0, 770.0]	[-490.0, -490.0, -490.0, -490.0, -490.0, -490.0, -489.0, -487.0, -477.0, -459.0, -413.0, -346.0, -276.0, -206.0, -134.0, -59.0, 33.0, 60.0, 129.0, 142.0, 176.0, 191.0, 201.0, 210.0, 227.0, 247.0, 254.0, 254.0, 254.0, 254.0, 256.0, 257.0, 257.0, 257.0, 257.0, 257.0, 257.0, 260.0, 276.0, 295.0, 313.0, 318.0, 318.0, 318.0, 318.0, 318.0, 318.0, 318.0, 318.0, 318.0, 318.0, 318.0, 318.0, 318.0, 318.0, 307.0, 302.0, 302.0, 315.0, 321.0, 322.0, 322.0, 322.0, 322.0, 322.0, 322.0, 322.0, 322.0, 327.0, 332.0, 336.0, 339.0, 340.0, 343.0, 345.0, 345.0, 345.0, 345.0, 345.0, 346.0]	[0.012394963297992945, 0.015758459107019007, 0.024674760818015784, 0.04216227657161653, 0.05793220445048064, 0.07539821619866416, 0.0914405278454069, 0.10860480120754801, 0.1243399131053593, 0.14333543824614026, 0.157932545786025, 0.1751381204230711, 0.19129375464399345, 0.21121292698080651, 0.2244344623759389, 0.24442121863830835, 0.25774105795426294, 0.2774926357669756, 0.2910995361453388, 0.3098694401269313, 0.32447644634521566, 0.3436668726208154, 0.3579458577733021, 0.37682635366218165, 0.39120500805438496, 0.40984725349699147, 0.4243603931099642, 0.44360372601659037, 0.45770999664091505, 0.4767768603633158, 0.49131935462355614, 0.5095130884437822, 0.5246942168159876, 0.5419274394516833, 0.5580482576915529, 0.5748698326642625, 0.5912855626665987, 0.6082812174863648, 0.624672030156944, 0.6413557065825444, 0.6579540497623384, 0.674778014072217, 0.6913053599710111, 0.7081330789369531, 0.7243378651037347, 0.7415847410738934, 0.7579677030735184, 0.7758361464948393, 0.7913688479166012, 0.8081310309353285, 0.8243552731000818, 0.8415854237391613, 0.8577277459553443, 0.874761630082503, 0.8909920162404887, 0.9081054309790488, 0.9243276251363568, 0.9414693705039099, 0.957634903374128, 0.9748046380409505, 0.9909889442496933, 1.008109185640933, 1.0243361584434751, 1.041488485148875, 1.0576611860014964, 1.0748237527150195, 1.0911169441242237, 1.1080801723292097, 1.12439418505528, 1.1414297758601606, 1.1576792766572908, 1.17479166740668, 1.1910974881611764, 1.208154241583543, 1.2244494810292963, 1.2414908744685818, 1.257649922015844, 1.2748032727104146, 1.2910957814892754, 1.3081480975961313]
28	images/0212.jpg	images/0050.jpg	right	1.993	[0.0, 0.0, 0.0, 0.0, 0.0, 0.0, 0.0, 0.0, 0.0, 0.0, 0.0, 0.0, 0.0, 0.0, 0.0, 0.0, 0.0, 0.0, 0.0, 0.0, 0.0, 0.0, 0.0, 0.0, 0.0, 0.0, 0.0, 0.0, 0.0, 0.0, 0.0, -14.0, -57.0, -177.0, -286.0, -378.0, -446.0, -480.0, -492.0, -492.0, -492.0, -481.0, -425.0, -374.0, -136.0, 134.0, 454.0, 775.0, 959.0, 959.0, 959.0, 959.0, 959.0, 959.0, 959.0, 959.0, 959.0, 959.0, 959.0, 959.0, 959.0, 945.0, 893.0, 811.0, 719.0, 597.0, 441.0, 192.0, 79.0, 57.0, 57.0, 57.0, 58.0, 76.0, 122.0, 219.0, 357.0, 511.0, 662.0, 757.0, 807.0, 812.0, 812.0, 812.0, 812.0, 812.0, 812.0, 812.0, 812.0, 812.0, 812.0, 812.0, 812.0, 812.0, 812.0, 812.0, 812.0, 812.0, 812.0, 812.0, 812.0, 812.0, 812.0, 812.0, 812.0, 812.0, 812.0, 812.0, 812.0, 812.0, 812.0, 812.0, 812.0, 812.0, 812.0, 812.0, 812.0, 812.0, 812.0, 812.0]	[-490.0, -490.0, -490.0, -490.0, -490.0, -490.0, -490.0, -490.0, -490.0, -490.0, -490.0, -490.0, -490.0, -490.0, -490.0, -490.0, -490.0, -490.0, -490.0, -490.0, -490.0, -490.0, -490.0, -490.0, -490.0, -490.0, -490.0, -490.0, -490.0, -490.0, -490.0, -484.0, -447.0, -337.0, -235.0, -132.0, -40.0, 44.0, 104.0, 151.0, 183.0, 207.0, 239.0, 255.0, 298.0, 303.0, 303.0, 303.0, 303.0, 308.0, 310.0, 310.0, 310.0, 310.0, 310.0, 310.0, 310.0, 310.0, 310.0, 310.0, 310.0, 310.0, 310.0, 310.0, 312.0, 312.0, 312.0, 312.0, 312.0, 312.0, 312.0, 312.0, 312.0, 315.0, 322.0, 332.0, 338.0, 338.0, 338.0, 338.0, 340.0, 340.0, 340.0, 340.0, 340.0, 340.0, 340.0, 340.0, 340.0, 340.0, 340.0, 340.0, 340.0, 340.0, 340.0, 340.0, 340.0, 340.0, 340.0, 340.0, 340.0, 340.0, 340.0, 340.0, 340.0, 340.0, 340.0, 340.0, 340.0, 340.0, 340.0, 340.0, 340.0, 340.0, 340.0, 340.0, 340.0, 340.0, 340.0, 340.0]	[0.0020585795864462852, 0.006754980917321518, 0.01945325272390619, 0.036026678601047024, 0.05222395542659797, 0.06894210650352761, 0.08734405346331187, 0.1023995713039767, 0.12039260126766749, 0.13572152686538175, 0.15372445550747216, 0.16902436775853857, 0.18586915338528343, 0.20238352863816544, 0.2193167195073329, 0.2357191375340335, 0.25263321376405656, 0.26899433045764454, 0.2859923746145796, 0.3024473579134792, 0.31926074091461487, 0.33587444404838607, 0.35268748571979813, 0.3690001331269741, 0.3861394891573582, 0.40232584334444255, 0.419305796851404, 0.435797644109698, 0.4526564244006295, 0.4690359731030185, 0.4859367373283021, 0.5024091286177281, 0.519223194278311, 0.5356918308825698, 0.5525465151586104, 0.5688035252969712, 0.5858650573936757, 0.6021203608543146, 0.6192208049469627, 0.6354003324522637, 0.6525553898245562, 0.6688598452310544, 0.6859125026967376, 0.7021927234600298, 0.7192201222642325, 0.7355873829801567, 0.7525960084458347, 0.7689349385036621, 0.785952438658569, 0.8022132034529932, 0.819221146259224, 0.8356675962277222, 0.8525605098111555, 0.8688373172772117, 0.8859415159968194, 0.9022248087858316, 0.9192477702454198, 0.9377043304848485, 0.9526072724547703, 0.9707344463095069, 0.9859493666735943, 1.0043287856387906, 1.0192726875538938, 1.0370800323726144, 1.0525349098315928, 1.070265113376081, 1.0859032867010683, 1.1031699599698186, 1.1191153330146335, 1.135494540387299, 1.15216797683388, 1.1714765043579973, 1.1856445562443696, 1.2046701186918654, 1.2187412320054136, 1.2369957230985165, 1.2521014168742113, 1.2694756100536324, 1.2857920121168718, 1.3033092238474637, 1.3190429704263806, 1.3364755315415096, 1.3523577580053825, 1.3696541272220202, 1.385683468222851, 1.4029928081145044, 1.4189938184572384, 1.4364195529196877, 1.452323283359874, 1.4693086982006207, 1.4857257935218513, 1.5026719550660346, 1.5187757066451013, 1.536033163924003, 1.5523929152986966, 1.5693110875145067, 1.58574524949654, 1.6026374804205261, 1.6189965491357725, 1.635870006721234, 1.6523164566897321, 1.6692110769508872, 1.6858025934488978, 1.702474323217757, 1.718820762616815, 1.7358478200912941, 1.752188798127463, 1.7691516850027256, 1.7854892497125547, 1.8025733098038472, 1.8187774133111816, 1.836011659936048, 1.8520887875638437, 1.8692243889381643, 1.8854551164258737, 1.9025193791894708, 1.9189064372039866, 1.935954998654779, 1.952192552795168, 1.9691707996535115]
29	images/0193.jpg	images/0554.jpg	right	1.571	[0.0, 0.0, 0.0, 0.0, 0.0, 0.0, 0.0, 0.0, 0.0, 0.0, 0.0, 0.0, 0.0, 0.0, 0.0, 0.0, 0.0, 0.0, 0.0, 0.0, 0.0, 0.0, 0.0, 0.0, 0.0, 0.0, 0.0, 0.0, 0.0, 0.0, 0.0, 0.0, 0.0, 0.0, 0.0, 0.0, 0.0, 0.0, 0.0, 0.0, 21.0, 89.0, 185.0, 340.0, 391.0, 548.0, 629.0, 679.0, 700.0, 706.0, 706.0, 706.0, 706.0, 706.0, 706.0, 706.0, 706.0, 706.0, 706.0, 706.0, 706.0, 706.0, 706.0, 706.0, 706.0, 706.0, 706.0, 710.0, 716.0, 720.0, 724.0, 725.0, 725.0, 726.0, 728.0, 728.0, 728.0, 728.0, 728.0, 728.0, 728.0, 728.0, 728.0, 728.0, 728.0, 728.0, 728.0, 728.0, 728.0, 729.0, 729.0, 729.0, 730.0, 730.0, 730.0]	[-490.0, -490.0, -490.0, -490.0, -490.0, -490.0, -490.0, -490.0, -490.0, -490.0, -490.0, -490.0, -490.0, -490.0, -490.0, -490.0, -490.0, -490.0, -490.0, -490.0, -490.0, -490.0, -490.0, -490.0, -490.0, -490.0, -490.0, -490.0, -490.0, -490.0, -490.0, -490.0, -490.0, -490.0, -490.0, -490.0, -490.0, -490.0, -490.0, -487.0, -466.0, -418.0, -343.0, -166.0, -93.0, 128.0, 270.0, 388.0, 477.0, 523.0, 540.0, 540.0, 540.0, 540.0, 540.0, 540.0, 540.0, 540.0, 540.0, 540.0, 540.0, 540.0, 540.0, 540.0, 540.0, 540.0, 538.0, 534.0, 519.0, 508.0, 492.0, 477.0, 465.0, 455.0, 449.0, 447.0, 446.0, 446.0, 446.0, 446.0, 446.0, 446.0, 446.0, 446.0, 445.0, 443.0, 441.0, 436.0, 431.0, 422.0, 416.0, 412.0, 409.0, 408.0, 408.0]	[0.010337134648580104, 0.014468288456555456, 0.020602384582161903, 0.035387907963013276, 0.05243681074352935, 0.06851291435305029, 0.0850948735314887, 0.1015508808195591, 0.11827107990393415, 0.13483153510605916, 0.15355365246068686, 0.16835931446985342, 0.18697049861657433, 0.20163109409622848, 0.21972276931046508, 0.23518174278433435, 0.2518599579052534, 0.2683111865189858, 0.2863967177690938, 0.30168502472224645, 0.31961012943065725, 0.3350124416174367, 0.3530146875709761, 0.36828592789242975, 0.3865469043084886, 0.401617440773407, 0.41913670048234053, 0.43492506034090184, 0.45230915216961876, 0.4683316665177699, 0.48819042288232595, 0.5015689714928158, 0.5185448289848864, 0.534988548286492, 0.5519695258117281, 0.5680824933806434, 0.5853474600007758, 0.6016993607045151, 0.6186185569385998, 0.6350083456200082, 0.6519671364803798, 0.6683927651320118, 0.6853235666640103, 0.7017249606724363, 0.7186291382531635, 0.7347728258173447, 0.7519391471578274, 0.7684309944161214, 0.7851788414700422, 0.8017502193106338, 0.8183970317768399, 0.8347864791285247, 0.8518838511954527, 0.8681350586703047, 0.8852081960940268, 0.901416395616252, 0.9185550689871889, 0.9347137752047274, 0.9518865818681661, 0.9680917093646713, 0.9851331028330605, 1.0014617929118685, 1.0185455116443336, 1.0348567937326152, 1.051869515213184, 1.068175677297404, 1.0851870334590785, 1.1044201263866853, 1.1184990903711878, 1.1366341148968786, 1.15197840044857, 1.1697570732794702, 1.1852023934479803, 1.2029530769505072, 1.2185362956661265, 1.236313261819305, 1.251886240526801, 1.269644774729386, 1.285262126737507, 1.3028216637321748, 1.3184151224268135, 1.3362371445691679, 1.3518657605454791, 1.3695642201346345, 1.385169966815738, 1.4024468800635077, 1.4184431117319036, 1.435415897256462, 1.4516995313751977, 1.4684634210716467, 1.4849993002717383, 1.501496267534094, 1.5183338851784356, 1.5350004949432332, 1.5516244380851276]
30	images/0296.jpg	images/0334.jpg	right	1.303	[0.0, 0.0, 0.0, 0.0, 0.0, 0.0, 0.0, 0.0, 0.0, 0.0, 0.0, 0.0, 0.0, 0.0, 0.0, 0.0, 0.0, 0.0, 0.0, 0.0, 0.0, 0.0, 0.0, 0.0, 0.0, 0.0, 0.0, 0.0, -4.0, -149.0, -342.0, -544.0, -711.0, -820.0, -878.0, -914.0, -924.0, -923.0, -906.0, -864.0, -779.0, -632.0, -381.0, 96.0, 417.0, 700.0, 907.0, 959.0, 959.0, 959.0, 959.0, 959.0, 959.0, 958.0, 948.0, 939.0, 926.0, 903.0, 863.0, 812.0, 765.0, 737.0, 725.0, 717.0, 717.0, 717.0, 717.0, 717.0, 717.0, 717.0, 717.0, 717.0, 717.0, 717.0, 717.0, 717.0, 717.0, 717.0]	[-490.0, -490.0, -490.0, -490.0, -490.0, -490.0, -490.0, -490.0, -490.0, -490.0, -490.0, -490.0, -490.0, -490.0, -490.0, -490.0, -490.0, -490.0, -490.0, -490.0, -490.0, -490.0, -490.0, -490.0, -490.0, -490.0, -490.0, -490.0, -490.0, -413.0, -305.0, -171.0, -32.0, 97.0, 214.0, 310.0, 378.0, 420.0, 450.0, 474.0, 492.0, 498.0, 490.0, 452.0, 440.0, 440.0, 440.0, 440.0, 440.0, 440.0, 440.0, 440.0, 440.0, 440.0, 440.0, 441.0, 441.0, 441.0, 441.0, 441.0, 441.0, 441.0, 440.0, 437.0, 437.0, 437.0, 437.0, 437.0, 437.0, 437.0, 437.0, 437.0, 437.0, 437.0, 437.0, 437.0, 437.0, 437.0]	[0.002746365644270554, 0.007664633449167013, 0.02211701576015912, 0.03898740137810819, 0.05542156336014159, 0.07222573034232482, 0.08863360967370681, 0.10555041657062247, 0.12185521333594806, 0.13888500147731975, 0.1551218729291577, 0.17220320235355757, 0.18841481520212255, 0.20554461391293444, 0.2217790960567072, 0.2388658868148923, 0.2551798995700665, 0.27224313834449276, 0.2885445217543747, 0.305548027245095, 0.3219562479062006, 0.33883858018089086, 0.3579460625187494, 0.3721803330408875, 0.39041263749822974, 0.40556372856372036, 0.42353388923220336, 0.4388078601914458, 0.4567230662505608, 0.47226976230740547, 0.4902689362934325, 0.5055930832168087, 0.5234116920037195, 0.5388256095175166, 0.5563885598676279, 0.5722864876152016, 0.5895330222556368, 0.6053749714046717, 0.6221675330598373, 0.6387296949396841, 0.6553003901208285, 0.6717359174217563, 0.6884267618588638, 0.7050312490318902, 0.723315777402604, 0.7385853110463358, 0.7565882396884263, 0.7721025091304909, 0.7892923824547324, 0.8052927101380192, 0.8221774317207746, 0.838648798991926, 0.8558028323459439, 0.8719820185506251, 0.8888237321807537, 0.9053326460998505, 0.922270615643356, 0.938660745654488, 0.9555434192589018, 0.9720393625029828, 0.9888114442001097, 1.005282811471261, 1.0221084824588615, 1.038599305698881, 1.0554062033770606, 1.0719540292338934, 1.0888210015255027, 1.1054179793572985, 1.1221801623760257, 1.138568244408816, 1.1555116752861068, 1.171939693245804, 1.188905310787959, 1.2053278674429748, 1.2221880130528007, 1.2386645003280137, 1.255572773894528, 1.2719973785278853]
