trialIndex	stimulus	isAnimate	left_option	right_option	response	response_time	xTrajectory	yTrajectory	tTrajectory
0	汽车	False	inanimate	animate	left	1.563	[0.0, 0.0, 0.0, 0.0, 0.0, 0.0, 0.0, 0.0, 0.0, 0.0, 0.0, 0.0, 0.0, 0.0, 0.0, 0.0, 0.0, 0.0, 0.0, 0.0, 0.0, 0.0, 0.0, 0.0, -4.0, -9.0, -13.0, -14.0, -14.0, -14.0, -14.0, -14.0, -14.0, -14.0, -14.0, -14.0, -14.0, -14.0, -14.0, -14.0, -14.0, -14.0, -14.0, -14.0, -14.0, -14.0, -14.0, -14.0, -14.0, -14.0, -14.0, -14.0, -14.0, -16.0, -21.0, -26.0, -27.0, -27.0, -25.0, -48.0, -92.0, -155.0, -248.0, -356.0, -496.0, -644.0, -786.0, -932.0, -960.0, -960.0, -960.0, -960.0, -960.0, -960.0, -960.0, -960.0, -960.0, -959.0, -951.0, -939.0, -915.0, -907.0, -888.0, -881.0, -875.0, -868.0, -859.0, -849.0, -839.0, -830.0, -824.0, -823.0, -823.0, -823.0]	[-490.0, -490.0, -490.0, -490.0, -490.0, -490.0, -490.0, -490.0, -490.0, -490.0, -490.0, -490.0, -490.0, -490.0, -490.0, -490.0, -490.0, -490.0, -490.0, -490.0, -490.0, -490.0, -490.0, -490.0, -490.0, -490.0, -490.0, -490.0, -490.0, -490.0, -490.0, -490.0, -490.0, -490.0, -490.0, -490.0, -490.0, -490.0, -490.0, -490.0, -490.0, -490.0, -490.0, -490.0, -490.0, -490.0, -490.0, -490.0, -490.0, -490.0, -490.0, -490.0, -490.0, -490.0, -485.0, -477.0, -465.0, -437.0, -339.0, -247.0, -143.0, -43.0, 46.0, 118.0, 183.0, 244.0, 298.0, 341.0, 401.0, 420.0, 454.0, 465.0, 470.0, 471.0, 475.0, 480.0, 485.0, 490.0, 500.0, 513.0, 527.0, 528.0, 528.0, 527.0, 523.0, 518.0, 511.0, 503.0, 494.0, 486.0, 481.0, 481.0, 481.0, 481.0]	[0.006078731908928603, 0.011031815665774047, 0.016006744757760316, 0.029033037659246475, 0.04557983949780464, 0.060922759759705514, 0.0788676617667079, 0.10176906088599935, 0.11073212523479015, 0.12895111768739298, 0.14557267155032605, 0.16088418912841007, 0.17890725639881566, 0.19569162611151114, 0.21070789062650874, 0.22895965102361515, 0.24558154615806416, 0.2609312930726446, 0.2787232779082842, 0.2957622820395045, 0.3107843492180109, 0.32900368300033733, 0.34601674583973363, 0.3609149091062136, 0.3788891657604836, 0.39575579669326544, 0.41082974651362747, 0.4290006110095419, 0.4455603835522197, 0.4609166157897562, 0.47886766178999096, 0.4958083619712852, 0.5107809358742088, 0.528983544325456, 0.5455853008315898, 0.5609213944408111, 0.5788686857558787, 0.5956015141564421, 0.610679559991695, 0.628952483064495, 0.6456324048340321, 0.6609818103606813, 0.6788813151069917, 0.6957489700289443, 0.7112086261622608, 0.7290262109600008, 0.7455286395852454, 0.7609603063901886, 0.7788850697688758, 0.7957547727273777, 0.8107392932288349, 0.8289900296949781, 0.8456040741875768, 0.8608848717994988, 0.8789072564104572, 0.8957008420838974, 0.9106949199340306, 0.9289821790298447, 0.9455453648697585, 0.9609940983937122, 0.9788878004183061, 0.9957045967457816, 1.010746119893156, 1.0291296349023469, 1.0454443303169683, 1.060851421148982, 1.07876253122231, 1.0956257487996481, 1.111260850157123, 1.1288893364253454, 1.145466175628826, 1.1608852131175809, 1.178801784524694, 1.195595028810203, 1.210794247861486, 1.2289808136993088, 1.2454545702785254, 1.2608975011389703, 1.2787707232055254, 1.2956353061599657, 1.3107433892437257, 1.328887629788369, 1.345456276962068, 1.360851762467064, 1.37878540053498, 1.3956472527934238, 1.4107481678947806, 1.4289210804272443, 1.4454549116198905, 1.4608719011303037, 1.478772429865785, 1.4956366714905016, 1.5110120183671825, 1.5289777416619472]
1	鳄鱼	True	inanimate	animate	right	1.143	[0.0, 0.0, 0.0, 0.0, 0.0, 0.0, 0.0, 0.0, 1.0, 1.0, 1.0, 1.0, 2.0, 2.0, 2.0, 2.0, 2.0, 2.0, 2.0, 2.0, 2.0, 2.0, 2.0, 2.0, 3.0, 3.0, 3.0, 3.0, -12.0, -32.0, -60.0, -95.0, -138.0, -178.0, -228.0, -275.0, -327.0, -388.0, -478.0, -505.0, -572.0, -602.0, -626.0, -648.0, -675.0, -699.0, -718.0, -737.0, -747.0, -749.0, -749.0, -735.0, -529.0, -300.0, -60.0, 180.0, 414.0, 619.0, 789.0, 914.0, 959.0, 959.0, 959.0, 959.0, 959.0, 959.0, 959.0, 959.0, 959.0]	[-490.0, -490.0, -490.0, -490.0, -490.0, -490.0, -490.0, -487.0, -486.0, -486.0, -486.0, -486.0, -486.0, -486.0, -485.0, -485.0, -485.0, -485.0, -485.0, -485.0, -485.0, -485.0, -484.0, -479.0, -473.0, -442.0, -393.0, -363.0, -255.0, -182.0, -103.0, -24.0, 50.0, 110.0, 160.0, 194.0, 231.0, 274.0, 337.0, 358.0, 407.0, 434.0, 455.0, 473.0, 492.0, 504.0, 512.0, 516.0, 518.0, 518.0, 518.0, 518.0, 518.0, 518.0, 518.0, 518.0, 518.0, 518.0, 517.0, 501.0, 501.0, 501.0, 501.0, 501.0, 501.0, 501.0, 501.0, 501.0, 501.0]	[0.006769248633645475, 0.01264051825273782, 0.029018701636232436, 0.04695472901221365, 0.06373090669512749, 0.07874478184385225, 0.0969927876139991, 0.11354948818916455, 0.1289258590550162, 0.14691411034436896, 0.16368209605570883, 0.1787062112125568, 0.19693339569494128, 0.21358874149154872, 0.22890264837769791, 0.24694483034545556, 0.2636916533811018, 0.2787137205596082, 0.29704023292288184, 0.31356996815884486, 0.3289777416503057, 0.3469601903343573, 0.36369643203215674, 0.37875263253226876, 0.3969944943091832, 0.4135552908410318, 0.42891869106097147, 0.44671408919384703, 0.4636776586994529, 0.4787751605035737, 0.49694124632515013, 0.5135266188299283, 0.5289746696944349, 0.5467775771394372, 0.5635558028006926, 0.5787608245154843, 0.5969480730127543, 0.6134249016176909, 0.6288722697645426, 0.646797715802677, 0.6636029068031348, 0.67870177392615, 0.6968258757842705, 0.7134750775876455, 0.7288715870818123, 0.7467847451334819, 0.7636790240649134, 0.7786830005934462, 0.797013608913403, 0.8134214882738888, 0.8289302963530645, 0.8466601585969329, 0.8636213387944736, 0.8786884619039483, 0.896835774416104, 0.9131931364536285, 0.9289241523947567, 0.9467727984883823, 0.9636418187292293, 0.9784341687918641, 0.9969869849737734, 1.013336155039724, 1.0289033310837112, 1.0468632517149672, 1.0636882400722243, 1.0786754912696779, 1.102667108119931, 1.1135324215283617, 1.1290934535791166]
2	歌手	True	animate	inanimate	left	1.101	[0.0, 0.0, 0.0, 0.0, 0.0, 0.0, 0.0, 0.0, 0.0, 0.0, 0.0, 0.0, 0.0, 0.0, 0.0, 0.0, 0.0, 0.0, 0.0, 0.0, 0.0, 0.0, 0.0, 0.0, 0.0, 0.0, 1.0, -7.0, -48.0, -98.0, -129.0, -247.0, -339.0, -432.0, -551.0, -584.0, -625.0, -651.0, -668.0, -681.0, -691.0, -707.0, -714.0, -749.0, -779.0, -805.0, -815.0, -815.0, -807.0, -777.0, -724.0, -660.0, -622.0, -604.0, -601.0, -599.0, -601.0, -613.0, -633.0, -648.0, -657.0, -664.0, -670.0, -675.0, -676.0, -676.0, -676.0]	[-490.0, -490.0, -490.0, -490.0, -490.0, -490.0, -490.0, -490.0, -490.0, -490.0, -490.0, -490.0, -490.0, -490.0, -490.0, -490.0, -490.0, -490.0, -490.0, -490.0, -490.0, -490.0, -490.0, -490.0, -490.0, -490.0, -482.0, -432.0, -326.0, -246.0, -202.0, -66.0, 20.0, 88.0, 167.0, 191.0, 218.0, 238.0, 255.0, 270.0, 283.0, 304.0, 312.0, 340.0, 360.0, 376.0, 384.0, 389.0, 399.0, 414.0, 442.0, 468.0, 485.0, 493.0, 495.0, 496.0, 497.0, 497.0, 497.0, 497.0, 497.0, 497.0, 497.0, 497.0, 497.0, 497.0, 497.0]	[0.008501855132635683, 0.012733019539155066, 0.0175294314394705, 0.03411821724148467, 0.05025746749015525, 0.06584819551790133, 0.08373268158175051, 0.10050373926060274, 0.11549474514322355, 0.13385914551327005, 0.15046056063147262, 0.1657536462880671, 0.18371698027476668, 0.20050476328469813, 0.21548518782947212, 0.23378985485760495, 0.250330854090862, 0.2657498915796168, 0.28373234026366845, 0.30048633128171787, 0.31551454245345667, 0.33379019622225314, 0.35031515278387815, 0.3657092729699798, 0.3836749963229522, 0.40048769663553685, 0.41552307578967884, 0.4338946441421285, 0.4503117394633591, 0.46574272360885516, 0.48362140700919554, 0.5004562939866446, 0.5155360464705154, 0.5357811918365769, 0.550289211445488, 0.5658222542260773, 0.5836630496778525, 0.6005180752836168, 0.615526489156764, 0.633773812209256, 0.6502963794628158, 0.6656904996489175, 0.6835855670506135, 0.7003883687430061, 0.7152595666702837, 0.7337140789604746, 0.7500209236750379, 0.7657505742972717, 0.7835507511044852, 0.8003692540805787, 0.8155339984805323, 0.8336963296169415, 0.8499990783748217, 0.8656864036456682, 0.8835746443946846, 0.9005573285976425, 0.9155176144558936, 0.9338833801448345, 0.9502646354958415, 0.965806552907452, 0.983680798963178, 1.0003907580394298, 1.0155213691177778, 1.0338574388297275, 1.0501025022822432, 1.0657304355991073, 1.0836654389859177]
3	窗户	False	animate	inanimate	right	1.128	[0.0, 0.0, 0.0, 0.0, 0.0, 0.0, 0.0, 0.0, 0.0, 0.0, 0.0, 0.0, 0.0, 0.0, 0.0, 0.0, 0.0, 0.0, 0.0, 0.0, 0.0, 0.0, 0.0, 0.0, 0.0, 0.0, 0.0, 0.0, 0.0, 0.0, 0.0, 0.0, 0.0, -20.0, -78.0, -137.0, -219.0, -305.0, -462.0, -514.0, -649.0, -717.0, -752.0, -767.0, -778.0, -783.0, -784.0, -784.0, -784.0, -784.0, -784.0, -781.0, -733.0, -624.0, -459.0, -267.0, -41.0, 176.0, 394.0, 583.0, 729.0, 835.0, 881.0, 898.0, 902.0, 903.0, 903.0, 903.0]	[-490.0, -490.0, -490.0, -490.0, -490.0, -490.0, -490.0, -490.0, -490.0, -490.0, -490.0, -490.0, -490.0, -490.0, -490.0, -490.0, -490.0, -490.0, -490.0, -490.0, -490.0, -490.0, -490.0, -490.0, -490.0, -490.0, -490.0, -490.0, -490.0, -490.0, -490.0, -490.0, -485.0, -451.0, -374.0, -285.0, -196.0, -113.0, 35.0, 83.0, 226.0, 292.0, 335.0, 357.0, 373.0, 385.0, 390.0, 393.0, 397.0, 400.0, 402.0, 408.0, 426.0, 447.0, 469.0, 469.0, 469.0, 452.0, 429.0, 400.0, 379.0, 365.0, 359.0, 359.0, 360.0, 361.0, 361.0, 361.0]	[0.01480183913372457, 0.02130662288982421, 0.02830838761292398, 0.046829459781292826, 0.06326191511470824, 0.07861644064541906, 0.09650195075664669, 0.11323819245444611, 0.1283111182274297, 0.14658779598539695, 0.1631397178862244, 0.17864204064244404, 0.1964917107252404, 0.21332147769862786, 0.22817083034897223, 0.24659052665811032, 0.26322300313040614, 0.278609614004381, 0.2964930760790594, 0.3133552696672268, 0.32832647825125605, 0.3466724465833977, 0.3632032058085315, 0.3785198433906771, 0.39636336953844875, 0.4133204537210986, 0.4281145104323514, 0.4465328413643874, 0.4632404111325741, 0.4784706914797425, 0.4964780574082397, 0.5133088483707979, 0.5284947554464452, 0.5467308145598508, 0.5631779471877962, 0.5784990221145563, 0.5963473268784583, 0.6132419471396133, 0.6283472995855846, 0.6465522973448969, 0.6631520058726892, 0.6785068727331236, 0.6963923828443512, 0.7132504804176278, 0.7283623181865551, 0.7466140786418691, 0.7628287634579465, 0.778499704785645, 0.7965473480289802, 0.8132398991147056, 0.8283315982553177, 0.8465181640349329, 0.8630571152898483, 0.8784805901232176, 0.8963599561830051, 0.9132784697576426, 0.9283281849347986, 0.9465717533603311, 0.9628424167749472, 0.9784891234594397, 0.9961746123735793, 1.0131733391899616, 1.02832955023041, 1.0466236359789036, 1.063246896432247, 1.0786256566643715, 1.0964876147336327, 1.1133136270800605]
4	沙发	False	animate	inanimate	right	1.253	[0.0, 0.0, 0.0, 0.0, 0.0, 0.0, 0.0, 0.0, 0.0, 0.0, 0.0, 0.0, 0.0, 0.0, 0.0, 0.0, 0.0, 0.0, 0.0, 1.0, 2.0, 6.0, 13.0, 13.0, 4.0, -34.0, -74.0, -126.0, -181.0, -244.0, -301.0, -359.0, -412.0, -458.0, -511.0, -532.0, -547.0, -553.0, -557.0, -560.0, -567.0, -582.0, -600.0, -625.0, -654.0, -689.0, -724.0, -747.0, -756.0, -774.0, -779.0, -781.0, -781.0, -781.0, -772.0, -701.0, -547.0, -340.0, -129.0, 197.0, 286.0, 505.0, 584.0, 629.0, 650.0, 663.0, 670.0, 677.0, 682.0, 689.0, 696.0, 700.0, 704.0, 716.0, 721.0, 726.0]	[-490.0, -490.0, -490.0, -490.0, -490.0, -490.0, -490.0, -490.0, -490.0, -490.0, -490.0, -490.0, -490.0, -490.0, -490.0, -490.0, -490.0, -490.0, -490.0, -481.0, -463.0, -441.0, -390.0, -349.0, -319.0, -211.0, -145.0, -76.0, -11.0, 61.0, 126.0, 180.0, 225.0, 264.0, 311.0, 330.0, 340.0, 345.0, 348.0, 350.0, 353.0, 358.0, 365.0, 372.0, 381.0, 388.0, 394.0, 398.0, 399.0, 403.0, 403.0, 403.0, 403.0, 403.0, 403.0, 403.0, 403.0, 403.0, 403.0, 403.0, 403.0, 403.0, 405.0, 415.0, 423.0, 428.0, 433.0, 437.0, 440.0, 443.0, 445.0, 445.0, 447.0, 447.0, 447.0, 448.0]	[0.0165081630111672, 0.02120661229128018, 0.03137287561548874, 0.049447825527749956, 0.06639193906448781, 0.08140786224976182, 0.0997432493022643, 0.11626137921120971, 0.13173571263905615, 0.14961883338401094, 0.16640047240071, 0.1814399475697428, 0.19967839599121362, 0.21623236587038264, 0.2316548167145811, 0.2495870894053951, 0.26638408843427896, 0.28149114752886817, 0.2996958040166646, 0.31629346450790763, 0.3316428700927645, 0.3496188333956525, 0.3664789790054783, 0.38147988356649876, 0.39968249201774597, 0.4162371445563622, 0.4316800753585994, 0.449544764123857, 0.46641105372691527, 0.48153040080796927, 0.49956473213387653, 0.5159453048254363, 0.5316408220678568, 0.5495024388073944, 0.5663038751808926, 0.5812706464203075, 0.5996777133550495, 0.6160292727290653, 0.6316875846823677, 0.6493461083155125, 0.6664219764061272, 0.6812744010821916, 0.6995162628008984, 0.7159999181167223, 0.7316739313537255, 0.7492170844343491, 0.7663769204518758, 0.7812464117305353, 0.7996360707329586, 0.8161347446148284, 0.8315486621577293, 0.8495188227971084, 0.8663516617962159, 0.8815256221569143, 0.8997562199365348, 0.916207448579371, 0.9316896327072755, 0.9494771801983006, 0.9666008349158801, 0.9815699954633601, 0.9996302680810913, 1.0159050275105983, 1.0316329714260064, 1.0492645297199488, 1.0664851230103523, 1.0814815902267583, 1.0996487000375055, 1.116226563230157, 1.1316452593891881, 1.1495451054652222, 1.166334253794048, 1.1815638514817692, 1.1995719001279213, 1.2161808246164583, 1.2315411528106779, 1.2495068761636503]
5	歌手	True	inanimate	animate	right	1.171	[0.0, 0.0, 0.0, 0.0, 0.0, 0.0, 0.0, 0.0, 0.0, 0.0, 0.0, 0.0, 0.0, 0.0, 0.0, 0.0, 0.0, 0.0, 0.0, 0.0, 0.0, 0.0, 0.0, 0.0, 0.0, 2.0, 10.0, 25.0, 35.0, 35.0, 26.0, -33.0, -104.0, -192.0, -284.0, -384.0, -481.0, -561.0, -626.0, -660.0, -681.0, -690.0, -693.0, -701.0, -709.0, -718.0, -730.0, -748.0, -770.0, -791.0, -809.0, -819.0, -823.0, -823.0, -823.0, -817.0, -779.0, -668.0, -466.0, -207.0, 73.0, 340.0, 585.0, 752.0, 868.0, 922.0, 927.0, 927.0, 927.0, 927.0]	[-490.0, -490.0, -490.0, -490.0, -490.0, -490.0, -490.0, -490.0, -490.0, -490.0, -490.0, -490.0, -490.0, -490.0, -490.0, -490.0, -490.0, -490.0, -490.0, -490.0, -490.0, -490.0, -490.0, -490.0, -490.0, -490.0, -458.0, -365.0, -228.0, -39.0, 14.0, 158.0, 243.0, 313.0, 371.0, 419.0, 461.0, 490.0, 520.0, 532.0, 539.0, 540.0, 540.0, 540.0, 540.0, 540.0, 540.0, 534.0, 525.0, 514.0, 502.0, 493.0, 488.0, 487.0, 487.0, 481.0, 469.0, 453.0, 451.0, 451.0, 451.0, 451.0, 451.0, 451.0, 451.0, 451.0, 452.0, 452.0, 452.0, 452.0]	[0.01595124398590997, 0.021306418057065457, 0.030006314686033875, 0.04918786627240479, 0.06498100480530411, 0.08038570632925257, 0.0983807843294926, 0.115160716639366, 0.1299151787534356, 0.14849461888661608, 0.16482740495121107, 0.1803314343560487, 0.19837361632380635, 0.21521362330531701, 0.23004625062458217, 0.24841474695131183, 0.2650318634114228, 0.2803945809719153, 0.2983647416695021, 0.31519109528744593, 0.33024627179838717, 0.3484915468725376, 0.3650373247801326, 0.38043861294863746, 0.39841218694346026, 0.4151357993250713, 0.4301489918725565, 0.4484072376508266, 0.46494721283670515, 0.4803406503633596, 0.498225819086656, 0.5150699220830575, 0.5301517225452699, 0.5484290829626843, 0.5649366315337829, 0.5804235942778178, 0.5983500643633306, 0.6150709460489452, 0.6301203198963776, 0.6484065549448133, 0.6649342422024347, 0.68031402642373, 0.6982841870631091, 0.715058658097405, 0.7302271571243182, 0.7483512589824386, 0.7649253675481305, 0.7804270076449029, 0.797977328649722, 0.8150770900538191, 0.8301250985823572, 0.8483321443782188, 0.8648915755329654, 0.8803717116825283, 0.8982121658045799, 0.9152631165925413, 0.9301319252117537, 0.9483277070103213, 0.9647676716558635, 0.9804734289064072, 0.9980742672341876, 1.015025207423605, 1.030170154524967, 1.0483072270289995, 1.06498749012826, 1.080304469098337, 1.0983135416754521, 1.1151521833380684, 1.1302083838381805, 1.1485000802204013]
6	蜘蛛	True	inanimate	animate	left	0.914	[0.0, 0.0, 0.0, 0.0, 0.0, 0.0, 0.0, 0.0, 0.0, 0.0, 0.0, 0.0, 0.0, 0.0, 0.0, 0.0, 0.0, 0.0, 0.0, 0.0, 0.0, 0.0, 0.0, 0.0, 0.0, 0.0, 0.0, 0.0, 21.0, 47.0, 71.0, 90.0, 98.0, 99.0, 76.0, 20.0, -68.0, -178.0, -368.0, -427.0, -594.0, -681.0, -729.0, -743.0, -744.0, -745.0, -745.0, -745.0, -745.0, -748.0, -760.0, -761.0, -763.0, -763.0, -763.0]	[-490.0, -490.0, -490.0, -490.0, -490.0, -490.0, -490.0, -490.0, -490.0, -490.0, -490.0, -490.0, -490.0, -490.0, -490.0, -490.0, -490.0, -490.0, -490.0, -490.0, -490.0, -490.0, -490.0, -490.0, -490.0, -490.0, -490.0, -490.0, -489.0, -481.0, -470.0, -458.0, -432.0, -377.0, -291.0, -182.0, -75.0, 18.0, 149.0, 190.0, 301.0, 355.0, 386.0, 398.0, 399.0, 400.0, 401.0, 401.0, 401.0, 405.0, 409.0, 410.0, 411.0, 411.0, 411.0]	[0.01637436042074114, 0.021781758521683514, 0.0310793292010203, 0.049360102973878384, 0.06623082992155105, 0.08109861455159262, 0.09950056148227304, 0.11595417949138209, 0.1313698036246933, 0.14933450298849493, 0.16613764595240355, 0.18114128115121275, 0.19946403888752684, 0.2158241315628402, 0.2313756063231267, 0.2493300656788051, 0.26614856865489855, 0.28111875319154933, 0.2994555055629462, 0.31583334755850956, 0.3314561609295197, 0.34931197500554845, 0.3661547126248479, 0.3810416119522415, 0.3994138629059307, 0.41599104343913496, 0.4314100809278898, 0.44931914302287623, 0.46610419533681124, 0.48116688115987927, 0.49935344693949446, 0.5159852407523431, 0.5313865289790556, 0.5491136605269276, 0.5660297847352922, 0.5811235318542458, 0.5993384282919578, 0.615873624861706, 0.6313155316747725, 0.6491948977927677, 0.6661140939686447, 0.6811825824552216, 0.6992885936633684, 0.715867139515467, 0.7314725448959507, 0.7492751110112295, 0.7660222754348069, 0.7811313825077377, 0.7992606043699197, 0.8158575822017156, 0.8314032542984933, 0.8493102683569305, 0.8730646587209776, 0.8811085132183507, 0.8993083910318092]
7	毛巾	False	inanimate	animate	left	0.829	[0.0, 0.0, 0.0, 0.0, 0.0, 0.0, 0.0, 0.0, 0.0, 0.0, 0.0, 0.0, 0.0, 0.0, 0.0, -1.0, -2.0, -3.0, -6.0, -11.0, -20.0, -37.0, -69.0, -147.0, -178.0, -286.0, -367.0, -446.0, -509.0, -558.0, -592.0, -612.0, -621.0, -628.0, -631.0, -634.0, -636.0, -643.0, -653.0, -667.0, -682.0, -700.0, -717.0, -731.0, -737.0, -739.0, -740.0, -742.0, -742.0, -742.0, -742.0]	[-490.0, -490.0, -490.0, -490.0, -490.0, -490.0, -490.0, -490.0, -490.0, -490.0, -490.0, -490.0, -490.0, -488.0, -488.0, -487.0, -486.0, -482.0, -471.0, -454.0, -432.0, -393.0, -322.0, -176.0, -123.0, 34.0, 141.0, 227.0, 293.0, 335.0, 362.0, 376.0, 385.0, 392.0, 397.0, 402.0, 404.0, 408.0, 414.0, 418.0, 424.0, 429.0, 434.0, 438.0, 438.0, 438.0, 438.0, 438.0, 438.0, 438.0, 438.0]	[0.015579395811073482, 0.023284306575078517, 0.029702391766477376, 0.04801422677701339, 0.06455351936165243, 0.07993159687612206, 0.09789936820743605, 0.11473288986599073, 0.12972935708239675, 0.14814290934009477, 0.16462076193420216, 0.18000669014872983, 0.19797343749087304, 0.21474961517378688, 0.2298785196035169, 0.24801456811837852, 0.26460915664210916, 0.28007837012410164, 0.29805160278920084, 0.31481446843827143, 0.3295194372185506, 0.3479623441817239, 0.3645753646851517, 0.37993705819826573, 0.39781369362026453, 0.41462059126934037, 0.4297262850450352, 0.4479698535287753, 0.46424393029883504, 0.4800039594992995, 0.4976041151676327, 0.5145741699961945, 0.5296935170772485, 0.5479807761730626, 0.564466820738744, 0.5799039489356801, 0.5977706856792793, 0.6146455085836351, 0.6297129730810411, 0.6478828135877848, 0.6645050500519574, 0.6800025941920467, 0.6979140455368906, 0.7146212739753537, 0.7296924930997193, 0.7479176295455545, 0.7644255194463767, 0.7799271595431492, 0.7978249576408416, 0.814630489971023, 0.8296873731305823]
8	女王	True	inanimate	animate	right	1.332	[0.0, 0.0, 0.0, 0.0, 0.0, 0.0, 0.0, 0.0, 0.0, 0.0, 0.0, 0.0, 0.0, 0.0, 0.0, 0.0, 0.0, 0.0, 0.0, 0.0, 0.0, 0.0, 0.0, 0.0, 0.0, 0.0, 0.0, -12.0, -24.0, -32.0, -36.0, -36.0, -37.0, -37.0, -45.0, -47.0, -55.0, -78.0, -110.0, -145.0, -188.0, -247.0, -303.0, -418.0, -504.0, -543.0, -620.0, -652.0, -682.0, -705.0, -722.0, -737.0, -744.0, -746.0, -747.0, -747.0, -690.0, -640.0, -420.0, -224.0, -6.0, 186.0, 356.0, 504.0, 659.0, 683.0, 717.0, 732.0, 735.0, 735.0, 735.0, 735.0, 735.0, 735.0, 735.0, 735.0, 735.0, 735.0, 735.0, 735.0, 735.0]	[-490.0, -490.0, -490.0, -490.0, -490.0, -490.0, -490.0, -490.0, -490.0, -490.0, -490.0, -490.0, -490.0, -490.0, -490.0, -490.0, -490.0, -490.0, -490.0, -490.0, -490.0, -490.0, -490.0, -490.0, -490.0, -490.0, -490.0, -490.0, -490.0, -491.0, -491.0, -491.0, -491.0, -491.0, -489.0, -487.0, -483.0, -469.0, -443.0, -398.0, -333.0, -234.0, -117.0, 68.0, 177.0, 222.0, 309.0, 339.0, 365.0, 383.0, 395.0, 405.0, 410.0, 411.0, 413.0, 416.0, 433.0, 439.0, 466.0, 482.0, 486.0, 486.0, 486.0, 486.0, 486.0, 486.0, 484.0, 482.0, 482.0, 482.0, 482.0, 482.0, 482.0, 482.0, 482.0, 482.0, 482.0, 482.0, 482.0, 482.0, 482.0]	[0.013978885137476027, 0.01986073615262285, 0.026481231790967286, 0.0449408640852198, 0.061337138060480356, 0.07677051157224923, 0.09472189890220761, 0.11155473790131509, 0.12655052240006626, 0.14483982947422192, 0.16146479663439095, 0.17676368489628658, 0.19467854959657416, 0.21149398060515523, 0.22653584508225322, 0.24474254954839125, 0.26117568754125386, 0.27669268765021116, 0.29468537628417835, 0.311491591273807, 0.32653413846855983, 0.3448005761601962, 0.36142417800147086, 0.3768121541943401, 0.3947997228242457, 0.41163563379086554, 0.42663005302893, 0.444773952185642, 0.4613272394053638, 0.47667835163883865, 0.49465636297827587, 0.5114543859963305, 0.5265634930692613, 0.544830272148829, 0.5613436233834364, 0.576742522243876, 0.5946399790118448, 0.6115458632120863, 0.6266542876837775, 0.6447039789636619, 0.6612849141238257, 0.6766984902787954, 0.694584000390023, 0.7113274100702256, 0.7266010396997444, 0.7446677976404317, 0.7612623861641623, 0.7766551410313696, 0.7943467738805339, 0.8114967112778686, 0.8265211677644402, 0.844659264315851, 0.8612774047651328, 0.8767353542498313, 0.8945662510232069, 0.9114038686966524, 0.9265006877831183, 0.9446715522790328, 0.9612606794689782, 0.9767418396077119, 0.9945942403865047, 1.0114840819733217, 1.0262385440291837, 1.0446746242814697, 1.0612166475038975, 1.0766800583223812, 1.0945962883415632, 1.111415815365035, 1.1262668746639974, 1.1447131949244067, 1.1612122101942077, 1.1767059996491298, 1.194622912327759, 1.2114745246362872, 1.226583631709218, 1.2447760002105497, 1.2612965194275603, 1.2766995143028907, 1.2946375896572135, 1.311491591273807, 1.326268581324257]
9	葡萄	False	inanimate	animate	right	1.314	[0.0, 0.0, 0.0, 0.0, 0.0, 0.0, 0.0, 0.0, 0.0, 0.0, 0.0, 0.0, 0.0, 0.0, 0.0, 0.0, 0.0, 0.0, 0.0, 0.0, 0.0, 0.0, 0.0, 0.0, 0.0, 0.0, 0.0, 0.0, 0.0, 0.0, 0.0, 0.0, 3.0, 8.0, 19.0, 25.0, 28.0, 28.0, 24.0, -6.0, -49.0, -98.0, -141.0, -181.0, -247.0, -272.0, -344.0, -392.0, -430.0, -465.0, -486.0, -505.0, -516.0, -519.0, -519.0, -519.0, -488.0, -377.0, -141.0, 31.0, 201.0, 341.0, 460.0, 566.0, 637.0, 671.0, 689.0, 700.0, 709.0, 716.0, 731.0, 745.0, 761.0, 775.0, 788.0, 794.0, 795.0, 795.0, 795.0, 795.0]	[-490.0, -490.0, -490.0, -490.0, -490.0, -490.0, -490.0, -490.0, -490.0, -490.0, -490.0, -490.0, -490.0, -490.0, -490.0, -490.0, -490.0, -490.0, -490.0, -490.0, -490.0, -490.0, -490.0, -490.0, -490.0, -490.0, -490.0, -490.0, -490.0, -490.0, -490.0, -490.0, -475.0, -463.0, -413.0, -382.0, -331.0, -253.0, -178.0, -78.0, 19.0, 90.0, 143.0, 185.0, 245.0, 262.0, 303.0, 323.0, 339.0, 355.0, 364.0, 373.0, 378.0, 381.0, 381.0, 381.0, 391.0, 407.0, 437.0, 450.0, 450.0, 450.0, 450.0, 450.0, 450.0, 452.0, 454.0, 458.0, 462.0, 466.0, 475.0, 482.0, 489.0, 496.0, 499.0, 501.0, 501.0, 501.0, 501.0, 501.0]	[0.015230894729029387, 0.022390355239622295, 0.02897671761456877, 0.04741552856285125, 0.06391181313665584, 0.07921070145675912, 0.09720202477183193, 0.11399253841955215, 0.12902552826562896, 0.14730630198027939, 0.16384047456085682, 0.17928374669281766, 0.19714263279456645, 0.21396420779637992, 0.2287586058373563, 0.24710252619115636, 0.26383467187406495, 0.2793110533384606, 0.2971327341510914, 0.3141082503134385, 0.3290900402353145, 0.34731517668114975, 0.36393161048181355, 0.3793018373544328, 0.3972552727209404, 0.41398366377688944, 0.4290937948971987, 0.4473165419767611, 0.4638049759087153, 0.47921479743672535, 0.49715253146132454, 0.5140222344198264, 0.5289876402821392, 0.547303571307566, 0.5638517385232262, 0.5792721413890831, 0.5972607340663671, 0.6140700210235082, 0.6290487389196642, 0.6474380565341562, 0.6638776798499748, 0.6791895388159901, 0.6968944836989976, 0.7138327945722267, 0.7288739763898775, 0.747175571450498, 0.7635312268394046, 0.7792127494467422, 0.7970757315051742, 0.8139024265110493, 0.8290466908947565, 0.8473076673108153, 0.8635503414552659, 0.879236301407218, 0.8970641262130812, 0.913935535820201, 0.9289982216432691, 0.9471448514959775, 0.9637947359587997, 0.979202168120537, 0.9970716355601326, 1.0138631731970236, 1.0290473735658452, 1.0473650112980977, 1.063474906841293, 1.0791980721405707, 1.097060030209832, 1.113877167867031, 1.1290951602277346, 1.1472120941034518, 1.1638592478702776, 1.1792253787862137, 1.197171987441834, 1.213973082427401, 1.2291296348557808, 1.2473233686760068, 1.2636718560243025, 1.2792287921183743, 1.2970825582160614, 1.3139508957974613]
10	蝙蝠	True	inanimate	animate	right	1.261	[0.0, 0.0, 0.0, 0.0, 0.0, 0.0, 0.0, 0.0, 0.0, 0.0, 0.0, 0.0, 0.0, 0.0, 0.0, 0.0, 0.0, 0.0, 0.0, 0.0, 0.0, -2.0, -3.0, -9.0, -13.0, -24.0, -33.0, -51.0, -78.0, -110.0, -140.0, -170.0, -199.0, -239.0, -290.0, -377.0, -407.0, -484.0, -534.0, -578.0, -615.0, -655.0, -681.0, -707.0, -724.0, -734.0, -746.0, -754.0, -759.0, -773.0, -777.0, -777.0, -770.0, -753.0, -698.0, -587.0, -433.0, -218.0, 19.0, 365.0, 472.0, 707.0, 802.0, 854.0, 871.0, 872.0, 872.0, 872.0, 872.0, 872.0, 872.0, 870.0, 870.0, 870.0, 870.0, 870.0]	[-490.0, -490.0, -490.0, -490.0, -490.0, -490.0, -490.0, -490.0, -490.0, -490.0, -490.0, -490.0, -490.0, -490.0, -490.0, -490.0, -490.0, -490.0, -490.0, -488.0, -474.0, -457.0, -435.0, -392.0, -371.0, -291.0, -218.0, -135.0, -45.0, 23.0, 78.0, 129.0, 179.0, 230.0, 282.0, 344.0, 361.0, 407.0, 435.0, 462.0, 478.0, 495.0, 506.0, 517.0, 523.0, 524.0, 524.0, 519.0, 513.0, 489.0, 470.0, 455.0, 440.0, 432.0, 427.0, 427.0, 427.0, 451.0, 485.0, 520.0, 520.0, 520.0, 520.0, 520.0, 520.0, 520.0, 520.0, 520.0, 520.0, 521.0, 521.0, 521.0, 521.0, 521.0, 521.0, 521.0]	[0.014517167350277305, 0.020870399253908545, 0.027461540303193033, 0.04581774864345789, 0.062315057206433266, 0.07771429739659652, 0.09544654894853011, 0.11256440100260079, 0.1275427775690332, 0.14574914070544764, 0.16238639579387382, 0.17775559867732227, 0.19564930076012388, 0.21244049712549895, 0.22748475091066211, 0.24575084733078256, 0.26231198519235477, 0.27762077213265, 0.295478634245228, 0.3124227477819659, 0.3274943082360551, 0.34580034064128995, 0.3622747799381614, 0.3777231720741838, 0.3956540794461034, 0.4124036331195384, 0.42749055358581245, 0.4457648419775069, 0.4623375851660967, 0.47771907603600994, 0.49570152472006157, 0.5123759851558134, 0.5274755349382758, 0.5456317221396603, 0.5622126572998241, 0.5776026814710349, 0.5956066341605037, 0.6124087531352416, 0.6274465216556564, 0.64571978605818, 0.6622123159468174, 0.6777211240842007, 0.6952823677565902, 0.7123671104782261, 0.7274724629241973, 0.7522730391356163, 0.7622297239722684, 0.7776136041502468, 0.795553044823464, 0.8123374145361595, 0.8274383296375163, 0.8457242233562283, 0.8622263105935417, 0.8777337534120306, 0.8953533649910241, 0.912331270519644, 0.9274898709263653, 0.9456535674398765, 0.9621764760231599, 0.9776293054455891, 0.9955721594742499, 1.0123404865153134, 1.027493966917973, 1.045850857917685, 1.0622785345767625, 1.077667193429079, 1.0956045861239545, 1.1124739477527328, 1.1272383084869944, 1.1457849806756712, 1.162348166515585, 1.177746041386854, 1.1957421433762647, 1.2125818089698441, 1.2274878229363821, 1.2458655352238566]
11	鸭子	True	inanimate	animate	right	1.217	[0.0, 0.0, 0.0, 0.0, 0.0, 0.0, 0.0, 0.0, 0.0, 0.0, 0.0, 0.0, 0.0, 0.0, 0.0, 0.0, 0.0, 0.0, 0.0, 2.0, 15.0, 33.0, 73.0, 88.0, 89.0, 91.0, 78.0, 49.0, 14.0, -43.0, -113.0, -204.0, -284.0, -360.0, -458.0, -521.0, -549.0, -635.0, -696.0, -749.0, -803.0, -850.0, -894.0, -919.0, -945.0, -959.0, -960.0, -960.0, -960.0, -960.0, -960.0, -942.0, -898.0, -814.0, -704.0, -512.0, -276.0, -1.0, 244.0, 536.0, 621.0, 803.0, 868.0, 893.0, 900.0, 900.0, 900.0, 900.0, 900.0, 900.0, 900.0, 900.0, 900.0, 900.0]	[-490.0, -490.0, -490.0, -490.0, -490.0, -490.0, -490.0, -490.0, -490.0, -490.0, -490.0, -490.0, -490.0, -490.0, -490.0, -490.0, -490.0, -490.0, -486.0, -478.0, -457.0, -415.0, -323.0, -263.0, -236.0, -169.0, -118.0, -51.0, 23.0, 90.0, 144.0, 204.0, 262.0, 317.0, 384.0, 416.0, 426.0, 457.0, 481.0, 511.0, 540.0, 540.0, 540.0, 540.0, 540.0, 540.0, 540.0, 540.0, 540.0, 540.0, 540.0, 527.0, 506.0, 482.0, 472.0, 472.0, 492.0, 530.0, 540.0, 540.0, 540.0, 540.0, 540.0, 540.0, 540.0, 540.0, 540.0, 540.0, 540.0, 540.0, 540.0, 540.0, 540.0, 540.0]	[0.014892292383592576, 0.02157286263536662, 0.028063993144314736, 0.04669668123824522, 0.0630301499622874, 0.07867412595078349, 0.09646747610531747, 0.11325594177469611, 0.1282609422923997, 0.14653966802870855, 0.16298680065665394, 0.1785246220533736, 0.19647088943747804, 0.21322078444063663, 0.22846437676344067, 0.2525853588595055, 0.26311992056434974, 0.2785317900707014, 0.2965156040736474, 0.31336516834562644, 0.3280482917907648, 0.34651748137548566, 0.36312128585996106, 0.3784177848137915, 0.3964517747517675, 0.41318630980094895, 0.4282848355942406, 0.4464075721334666, 0.46282398479525, 0.4784993634093553, 0.49609235109528527, 0.5131473978399299, 0.5280465851537883, 0.5464615027303807, 0.5630025019636378, 0.5784747874131426, 0.5964429001323879, 0.6131938191247173, 0.6282790329423733, 0.6464249801356345, 0.6630212753079832, 0.6784328034846112, 0.6964913693955168, 0.7131433018366806, 0.7282708409475163, 0.7464942707447335, 0.7630335632711649, 0.7784293901640922, 0.7964657694101334, 0.813271984399762, 0.8282428516540676, 0.8464410227607004, 0.8630492645897903, 0.8786058593541384, 0.8960582177969627, 0.9131869924603961, 0.9282390969456173, 0.9465103133697994, 0.9630025019869208, 0.9784768354147673, 0.9963387935422361, 1.01328939240193, 1.0282800569548272, 1.0465546866762452, 1.0631107045337558, 1.0784386061131954, 1.0964203721377999, 1.1132521870895289, 1.1283005369477905, 1.1465246493462473, 1.1631083152024075, 1.1784587447764352, 1.196425833448302, 1.2133105550310574]
12	绳子	False	inanimate	animate	left	1.367	[0.0, 0.0, 0.0, 0.0, 0.0, 0.0, 0.0, 0.0, 0.0, 0.0, 0.0, 0.0, 1.0, 12.0, 20.0, 20.0, 20.0, 20.0, 20.0, 20.0, 20.0, 37.0, 142.0, 195.0, 317.0, 404.0, 414.0, 414.0, 414.0, 414.0, 414.0, 397.0, 357.0, 283.0, 192.0, 35.0, -16.0, -173.0, -282.0, -373.0, -455.0, -503.0, -556.0, -602.0, -651.0, -685.0, -708.0, -720.0, -727.0, -732.0, -734.0, -738.0, -742.0, -747.0, -754.0, -758.0, -760.0, -760.0, -760.0, -760.0, -760.0, -760.0, -760.0, -760.0, -760.0, -760.0, -760.0, -760.0, -760.0, -760.0, -760.0, -760.0, -760.0, -758.0, -757.0, -757.0, -757.0, -757.0, -757.0, -757.0, -757.0, -757.0, -757.0]	[-490.0, -490.0, -490.0, -490.0, -490.0, -490.0, -490.0, -490.0, -490.0, -490.0, -486.0, -486.0, -486.0, -483.0, -482.0, -482.0, -482.0, -482.0, -482.0, -482.0, -482.0, -476.0, -451.0, -443.0, -425.0, -407.0, -396.0, -385.0, -362.0, -331.0, -282.0, -215.0, -140.0, -73.0, -4.0, 105.0, 142.0, 245.0, 305.0, 340.0, 368.0, 380.0, 398.0, 411.0, 425.0, 432.0, 432.0, 432.0, 432.0, 432.0, 432.0, 433.0, 434.0, 435.0, 435.0, 435.0, 435.0, 435.0, 435.0, 435.0, 435.0, 435.0, 435.0, 435.0, 435.0, 435.0, 435.0, 435.0, 435.0, 435.0, 435.0, 435.0, 435.0, 435.0, 436.0, 436.0, 436.0, 436.0, 436.0, 436.0, 436.0, 436.0, 436.0]	[0.014231812965590507, 0.020269653119612485, 0.026915066118817776, 0.045560383528936654, 0.06191330828005448, 0.07727158849593252, 0.09522638918133453, 0.11211179342353716, 0.12702463404275477, 0.1452572798007168, 0.1618300229893066, 0.17723574850242585, 0.19530660239979625, 0.2122080493136309, 0.2269703620695509, 0.24525079445447773, 0.26182695099851117, 0.2771664579049684, 0.2950502613093704, 0.3121008707676083, 0.32699766871519387, 0.3452900477568619, 0.3618385563022457, 0.3771913752425462, 0.39520556782372296, 0.4119800388580188, 0.42698845273116603, 0.44528629310661927, 0.4618699589627795, 0.47722141252597794, 0.4949103147373535, 0.5118936815997586, 0.5270393113605678, 0.5451855998835526, 0.5617477617342956, 0.5772104898933321, 0.5951373012503609, 0.6119182576076128, 0.6270417007035576, 0.6451992531656288, 0.661755271081347, 0.677249401807785, 0.6948007468599826, 0.7118967535789125, 0.7269932313938625, 0.7451671678572893, 0.7616979270824231, 0.7772186818765476, 0.7951246718876064, 0.8118510149652138, 0.8270021060598083, 0.8451958398800343, 0.8615272605675273, 0.8772691991762258, 0.8947990401647985, 0.9119397615431808, 0.9268314395449124, 0.9451091412338428, 0.9617477617575787, 0.9772016152273864, 0.9950536746182479, 1.0120380654698238, 1.026757370273117, 1.0451477118767798, 1.0617791643599048, 1.077279439137783, 1.0951185279409401, 1.111927132238634, 1.1269683140562847, 1.1452484051696956, 1.161752199055627, 1.1772081005619839, 1.1950396799948066, 1.2119636549032293, 1.2270277060451917, 1.245225535822101, 1.261752199032344, 1.277284559153486, 1.2947799255489372, 1.3119418095448054, 1.3268246128573082, 1.345211541163735, 1.3615938205039129]
13	护士	True	inanimate	animate	right	1.013	[0.0, 0.0, 0.0, 0.0, 0.0, 0.0, 0.0, 0.0, 0.0, 1.0, 1.0, 1.0, 1.0, 1.0, 1.0, 1.0, 1.0, 2.0, 3.0, 3.0, 4.0, 4.0, 5.0, 6.0, 6.0, 8.0, 10.0, 13.0, 18.0, 25.0, 31.0, 36.0, 40.0, 40.0, 44.0, 49.0, 53.0, 58.0, 61.0, 61.0, 60.0, 49.0, 34.0, 28.0, 50.0, 74.0, 210.0, 337.0, 460.0, 562.0, 660.0, 755.0, 833.0, 903.0, 950.0, 959.0, 959.0, 959.0, 959.0, 959.0, 959.0]	[-490.0, -490.0, -490.0, -490.0, -490.0, -490.0, -490.0, -490.0, -488.0, -487.0, -487.0, -487.0, -487.0, -487.0, -487.0, -487.0, -487.0, -484.0, -481.0, -481.0, -479.0, -479.0, -474.0, -471.0, -467.0, -460.0, -450.0, -439.0, -422.0, -400.0, -382.0, -373.0, -365.0, -365.0, -359.0, -351.0, -339.0, -320.0, -298.0, -268.0, -215.0, -160.0, -98.0, -22.0, 117.0, 162.0, 320.0, 406.0, 470.0, 514.0, 540.0, 540.0, 540.0, 540.0, 540.0, 540.0, 540.0, 540.0, 540.0, 540.0, 540.0]	[0.015474606538191438, 0.020908969920128584, 0.029219064163044095, 0.04749266989529133, 0.06427328492281958, 0.07930661609862, 0.09760445647407323, 0.1140959623735398, 0.12941635464085266, 0.14758448849897832, 0.16435759415617213, 0.17932948539964855, 0.1976140137994662, 0.2141809543245472, 0.22958770382683724, 0.24753806716762483, 0.2642818182357587, 0.2793359706993215, 0.29751434456557035, 0.31418505031615496, 0.3295197785482742, 0.34729094203794375, 0.36430844222195446, 0.3790929415845312, 0.3976474644150585, 0.4142270342563279, 0.4295378692331724, 0.4474868672550656, 0.46429239958524704, 0.4792834054096602, 0.49755325651494786, 0.5141427250346169, 0.5295180719112977, 0.5474588779034093, 0.5642685062484816, 0.5792639494757168, 0.5976256190915592, 0.6139805918210186, 0.6296191064757295, 0.6472284781048074, 0.6642500742455013, 0.6793011547415517, 0.6975153685198165, 0.7140461277449504, 0.7294842799310572, 0.7473387286881916, 0.7642152582993731, 0.7792847707751207, 0.7975662271492183, 0.8140191624406725, 0.829538551857695, 0.847144510189537, 0.8642623622436076, 0.8793069574167021, 0.8975440405192785, 0.9141195143456571, 0.9295037359115668, 0.9474674112279899, 0.9642842075554654, 0.9793107120785862, 0.9976501950877719]
14	铅笔	False	animate	inanimate	right	1.388	[0.0, 0.0, 0.0, 0.0, 0.0, 0.0, 0.0, 0.0, 0.0, 0.0, 0.0, 0.0, 0.0, 0.0, 0.0, 0.0, 0.0, 0.0, 0.0, 0.0, 0.0, 0.0, 0.0, 0.0, 0.0, 0.0, 0.0, 0.0, 0.0, 0.0, 0.0, 0.0, 0.0, 9.0, 9.0, -16.0, -49.0, -80.0, -112.0, -149.0, -199.0, -251.0, -306.0, -365.0, -415.0, -457.0, -494.0, -510.0, -516.0, -517.0, -517.0, -517.0, -518.0, -523.0, -534.0, -549.0, -585.0, -602.0, -656.0, -681.0, -702.0, -717.0, -721.0, -724.0, -724.0, -724.0, -724.0, -721.0, -656.0, -597.0, -341.0, -120.0, 120.0, 361.0, 582.0, 747.0, 860.0, 915.0, 931.0, 933.0, 933.0, 933.0, 933.0, 933.0]	[-490.0, -490.0, -490.0, -490.0, -490.0, -490.0, -490.0, -490.0, -490.0, -490.0, -490.0, -490.0, -490.0, -490.0, -490.0, -490.0, -490.0, -490.0, -490.0, -490.0, -490.0, -490.0, -490.0, -490.0, -490.0, -490.0, -490.0, -490.0, -490.0, -490.0, -490.0, -490.0, -490.0, -484.0, -433.0, -342.0, -241.0, -151.0, -70.0, -4.0, 62.0, 121.0, 177.0, 227.0, 263.0, 294.0, 318.0, 329.0, 333.0, 335.0, 336.0, 340.0, 346.0, 351.0, 356.0, 363.0, 369.0, 370.0, 378.0, 383.0, 388.0, 392.0, 393.0, 394.0, 394.0, 394.0, 394.0, 394.0, 394.0, 394.0, 394.0, 394.0, 394.0, 399.0, 403.0, 403.0, 403.0, 405.0, 409.0, 409.0, 409.0, 409.0, 409.0, 409.0]	[0.006410166330169886, 0.011340722092427313, 0.016705794841982424, 0.02954333054367453, 0.04605122050270438, 0.06162010319530964, 0.07957456255098805, 0.09641388681484386, 0.11134584207320586, 0.12969829578651115, 0.14611095376312733, 0.16160235385177657, 0.17940082401037216, 0.19646918278886005, 0.21141991135664284, 0.2297085357713513, 0.2462949322653003, 0.26155490858945996, 0.2795438425382599, 0.29645860148593783, 0.31139055674429983, 0.32968225312652066, 0.34606760449241847, 0.3616757404524833, 0.3795691012055613, 0.3963657589047216, 0.4111232929280959, 0.429690103745088, 0.4460488311597146, 0.4616344391833991, 0.47959265316603705, 0.4963551775435917, 0.511415132728871, 0.5296856664353982, 0.54625670297537, 0.5616637938073836, 0.5795417945482768, 0.5963490335852839, 0.6114362953230739, 0.6296866904594935, 0.6459225378930569, 0.6616105458815582, 0.679535650589969, 0.6963466442539357, 0.7114219593349844, 0.7296590424375609, 0.7462092576897703, 0.7615446685813367, 0.7794182319776155, 0.7962824736023322, 0.8113990900455974, 0.8296750851441175, 0.8458884046413004, 0.8615497885621153, 0.8795209732488729, 0.8963043189141899, 0.9113789513939992, 0.9295822425046936, 0.946105151087977, 0.9615921138902195, 0.9794233519933186, 0.9962469749734737, 1.0113997727166861, 1.0296115971868858, 1.0461280203890055, 1.0616054259007797, 1.0794264239957556, 1.0962954442948103, 1.1113936287001707, 1.1296081838663667, 1.1460990071063861, 1.1616221512085758, 1.1794305199873634, 1.1962343456689268, 1.2114154740120284, 1.229632077156566, 1.2460355191724375, 1.2615842632367276, 1.2796059651882388, 1.3030722704716027, 1.311379975406453, 1.329619106487371, 1.3462113057030365, 1.361667889810633]
15	桥梁	False	inanimate	animate	left	2.109	[0.0, 0.0, 0.0, 0.0, 0.0, 0.0, 0.0, 0.0, 0.0, 0.0, 0.0, 0.0, 0.0, 0.0, 0.0, 0.0, 0.0, 0.0, 0.0, 4.0, 9.0, 9.0, 9.0, 9.0, 9.0, 9.0, 9.0, 9.0, 9.0, 9.0, 9.0, 9.0, 9.0, 9.0, 9.0, 9.0, 9.0, 9.0, 9.0, 9.0, 9.0, 9.0, 14.0, 26.0, 42.0, 58.0, 91.0, 104.0, 129.0, 182.0, 233.0, 258.0, 311.0, 336.0, 356.0, 369.0, 378.0, 383.0, 387.0, 387.0, 388.0, 388.0, 388.0, 388.0, 388.0, 388.0, 388.0, 388.0, 388.0, 388.0, 388.0, 388.0, 388.0, 388.0, 388.0, 388.0, 388.0, 388.0, 388.0, 388.0, 388.0, 388.0, 388.0, 388.0, 388.0, 396.0, 406.0, 411.0, 428.0, 443.0, 462.0, 486.0, 517.0, 549.0, 592.0, 602.0, 614.0, 621.0, 630.0, 635.0, 646.0, 651.0, 651.0, 641.0, 589.0, 481.0, 243.0, 155.0, -37.0, -213.0, -424.0, -466.0, -527.0, -547.0, -556.0, -568.0, -582.0, -603.0, -637.0, -649.0, -677.0, -712.0, -719.0, -719.0, -719.0, -719.0, -719.0]	[-490.0, -490.0, -490.0, -490.0, -490.0, -490.0, -490.0, -490.0, -490.0, -490.0, -490.0, -490.0, -490.0, -490.0, -490.0, -490.0, -490.0, -490.0, -490.0, -487.0, -487.0, -487.0, -487.0, -487.0, -487.0, -487.0, -487.0, -487.0, -487.0, -487.0, -487.0, -487.0, -487.0, -487.0, -487.0, -487.0, -487.0, -487.0, -487.0, -487.0, -487.0, -487.0, -478.0, -450.0, -417.0, -384.0, -333.0, -316.0, -286.0, -239.0, -199.0, -179.0, -138.0, -122.0, -109.0, -98.0, -90.0, -85.0, -80.0, -79.0, -79.0, -79.0, -79.0, -79.0, -79.0, -79.0, -79.0, -79.0, -79.0, -79.0, -79.0, -79.0, -79.0, -79.0, -79.0, -79.0, -79.0, -79.0, -79.0, -79.0, -79.0, -79.0, -79.0, -79.0, -79.0, -68.0, -54.0, -48.0, -25.0, -3.0, 21.0, 57.0, 106.0, 161.0, 229.0, 243.0, 262.0, 278.0, 298.0, 308.0, 337.0, 353.0, 362.0, 375.0, 396.0, 426.0, 469.0, 484.0, 495.0, 497.0, 501.0, 505.0, 505.0, 505.0, 505.0, 501.0, 495.0, 487.0, 477.0, 473.0, 467.0, 460.0, 459.0, 459.0, 459.0, 459.0, 459.0]	[0.01626765972469002, 0.020891698426567018, 0.030869545880705118, 0.04935273015871644, 0.0657548067974858, 0.08113083633361384, 0.09915287961484864, 0.1159270093194209, 0.13100846845190972, 0.14934829279081896, 0.16580225207144395, 0.1811656522913836, 0.19925391423748806, 0.2160171212744899, 0.2310286071151495, 0.24925954622449353, 0.2659022627049126, 0.28110933233983815, 0.2991948635899462, 0.31605978787411004, 0.3309746764716692, 0.3492161969188601, 0.3656128122820519, 0.38127419620286673, 0.3991218183073215, 0.415906188020017, 0.430928596528247, 0.4491847942699678, 0.46569678018568084, 0.4812475722283125, 0.4991235249908641, 0.5158976546954364, 0.5306964900810272, 0.5490970716928132, 0.5657722147880122, 0.5811287883552723, 0.5991149916662835, 0.6158949240343645, 0.6310518177342601, 0.6492776368395425, 0.6658087374526076, 0.6811956896563061, 0.6991327409632504, 0.7160338465473615, 0.7306623567710631, 0.7490803463733755, 0.7657247695024125, 0.7811386869871058, 0.7990631090360694, 0.815838604059536, 0.8309617058257572, 0.8491649969364516, 0.8657019001548178, 0.8810550604248419, 0.8990559410303831, 0.9158338254201226, 0.9306640634313226, 0.9490516743971966, 0.9656930255005136, 0.9811151350149885, 0.9990344370598905, 1.0158505507279187, 1.0309852578211576, 1.0491554396576248, 1.065736033488065, 1.0812369909253903, 1.0990617437055334, 1.1158829773776233, 1.1310047137667425, 1.149293338181451, 1.1657073615351692, 1.181223337596748, 1.1989412531256676, 1.2159491959610023, 1.2310077857691795, 1.2491424689651467, 1.2657104335376061, 1.2810690550832078, 1.2990538930753246, 1.3158058361150324, 1.3310108577716164, 1.34921619691886, 1.3657520761480555, 1.3811304949922487, 1.3990723250317387, 1.4159072120091878, 1.4309637538390234, 1.449130522320047, 1.4657397881383076, 1.4810666657285765, 1.4990467250463553, 1.5159072119859047, 1.5306698660715483, 1.5490745436982252, 1.565601889626123, 1.5810734924161807, 1.5988613812369294, 1.6158164174412377, 1.630686932709068, 1.6491462236153893, 1.6656640121946111, 1.6811793056549504, 1.6991061170119792, 1.7159143799799494, 1.7306678181048483, 1.7490537223638967, 1.7656527482322417, 1.7811339083709754, 1.7989897224470042, 1.8158389453892596, 1.8309559031622484, 1.8492960688308813, 1.865626465587411, 1.8810748577234335, 1.8991443463019095, 1.915917452017311, 1.9306551887420937, 1.949107994325459, 1.965437367092818, 1.9812666869256645, 1.9990177117288113, 2.015827681403607, 2.0309466871549375, 2.0492131249047816, 2.0656452389084734, 2.081153364328202, 2.098996890417766]
16	老师	True	animate	inanimate	left	0.9	[0.0, 0.0, 0.0, 0.0, 0.0, 0.0, 0.0, 0.0, 1.0, 2.0, 2.0, 2.0, 2.0, 2.0, 2.0, 3.0, 3.0, 3.0, 3.0, 3.0, 3.0, 1.0, -7.0, -20.0, -38.0, -63.0, -109.0, -161.0, -225.0, -291.0, -355.0, -407.0, -467.0, -525.0, -591.0, -614.0, -629.0, -641.0, -660.0, -693.0, -730.0, -754.0, -768.0, -769.0, -769.0, -769.0, -769.0, -769.0, -769.0, -769.0, -769.0, -769.0, -769.0, -769.0]	[-490.0, -490.0, -490.0, -490.0, -490.0, -490.0, -489.0, -483.0, -478.0, -478.0, -477.0, -477.0, -477.0, -473.0, -469.0, -465.0, -460.0, -455.0, -451.0, -442.0, -412.0, -400.0, -359.0, -318.0, -268.0, -206.0, -126.0, -48.0, 32.0, 99.0, 150.0, 187.0, 229.0, 271.0, 318.0, 331.0, 340.0, 347.0, 358.0, 377.0, 397.0, 408.0, 413.0, 414.0, 414.0, 414.0, 414.0, 414.0, 414.0, 414.0, 414.0, 414.0, 414.0, 414.0]	[0.016229771717917174, 0.020602589356712997, 0.0306227621040307, 0.04933634615736082, 0.06544146308442578, 0.08103253244189546, 0.09892555180704221, 0.11561776156304404, 0.13074120465898886, 0.14905542903579772, 0.16566674289060757, 0.18099703377811238, 0.198981189110782, 0.21587922266917303, 0.23075929534388706, 0.2490499677369371, 0.26536295644473284, 0.2809246712131426, 0.29886513587553054, 0.32232563849538565, 0.3306179834762588, 0.34901822375832126, 0.3653830951079726, 0.38104413775727153, 0.3987412319984287, 0.41571265214588493, 0.4306087674340233, 0.449011055752635, 0.46532267914153636, 0.4809495885274373, 0.49883543991018087, 0.5156566735240631, 0.5307804579497315, 0.5488564319093712, 0.5655653669382446, 0.5809468578081578, 0.5988647945341654, 0.6156805668724701, 0.6307647566427477, 0.6490554290357977, 0.6652400765451603, 0.680879273917526, 0.6989125811960548, 0.715667596203275, 0.7308203939464875, 0.7489666824694723, 0.7654281510622241, 0.7810513057629578, 0.7988415838917717, 0.8157037774799392, 0.8308118606219068, 0.8490380210569128, 0.8655093883280642, 0.8810216097626835]
17	冰块	False	animate	inanimate	right	1.181	[0.0, -1.0, -1.0, -1.0, -1.0, -1.0, -1.0, -1.0, -1.0, -1.0, -1.0, -1.0, -1.0, -1.0, -1.0, -1.0, -1.0, -1.0, -1.0, -1.0, -1.0, -1.0, -1.0, -1.0, -1.0, -1.0, -1.0, -1.0, -1.0, -1.0, -1.0, -1.0, -23.0, -39.0, -98.0, -140.0, -189.0, -233.0, -289.0, -352.0, -417.0, -479.0, -528.0, -559.0, -579.0, -584.0, -601.0, -611.0, -619.0, -622.0, -622.0, -622.0, -622.0, -602.0, -540.0, -410.0, -118.0, -5.0, 321.0, 507.0, 649.0, 746.0, 812.0, 836.0, 840.0, 840.0, 840.0, 840.0, 840.0, 840.0, 840.0, 840.0]	[-490.0, -490.0, -490.0, -490.0, -490.0, -490.0, -490.0, -490.0, -490.0, -490.0, -490.0, -490.0, -490.0, -490.0, -490.0, -490.0, -490.0, -490.0, -490.0, -490.0, -490.0, -490.0, -490.0, -490.0, -490.0, -490.0, -490.0, -490.0, -490.0, -490.0, -490.0, -490.0, -457.0, -426.0, -285.0, -175.0, -67.0, 15.0, 82.0, 141.0, 198.0, 255.0, 303.0, 338.0, 362.0, 366.0, 377.0, 382.0, 386.0, 387.0, 387.0, 387.0, 387.0, 393.0, 411.0, 432.0, 463.0, 463.0, 462.0, 462.0, 453.0, 453.0, 453.0, 453.0, 453.0, 453.0, 453.0, 453.0, 453.0, 453.0, 453.0, 453.0]	[0.015693401044700295, 0.020639658148866147, 0.029692151758354157, 0.0479282108717598, 0.06473647383973002, 0.07976229570340365, 0.09808676003012806, 0.11463697522412986, 0.12997818883741274, 0.1479125095065683, 0.1647450071759522, 0.1799005355569534, 0.19801644544349983, 0.21446869807550684, 0.23001471144380048, 0.24796370946569368, 0.26479791378369555, 0.27977321832440794, 0.2980198587756604, 0.31441510876175016, 0.33003041276242584, 0.34793230681680143, 0.3647607084712945, 0.3797984769917093, 0.39808641868876293, 0.41463424457469955, 0.4299044609069824, 0.447995453432668, 0.4647856258088723, 0.4797844823333435, 0.4980413627345115, 0.5146444845595397, 0.5298887595417909, 0.5480640613823198, 0.5647337431437336, 0.5797827756614424, 0.5979778748005629, 0.6145181913743727, 0.6300635220832191, 0.6476606057258323, 0.6646381699247286, 0.6795578371966258, 0.6979645628016442, 0.7144946393673308, 0.7298853462561965, 0.7478165949578397, 0.7646781058865599, 0.77986025827704, 0.79795876017306, 0.8142748209065758, 0.8300017408328131, 0.8476315924199298, 0.8645678553148173, 0.8797066583647393, 0.8979509095079266, 0.914482010062784, 0.9299573675380088, 0.9478008936275728, 0.9647675351588987, 0.9796947117429227, 0.9980399974156171, 1.0142625329317525, 1.030075810092967, 1.047625448438339, 1.0646845911978744, 1.0797462530317716, 1.0979061948601156, 1.1145369646837935, 1.1299638528143987, 1.1478217149269767, 1.164710532524623, 1.1795161945628934]
18	海鸥	True	inanimate	animate	right	2.773	[0.0, 0.0, 0.0, 0.0, 0.0, 0.0, 0.0, 0.0, 0.0, 0.0, 0.0, 0.0, 0.0, 0.0, 0.0, 0.0, 0.0, 0.0, 0.0, 0.0, 0.0, 0.0, 0.0, 0.0, 0.0, 0.0, 0.0, 0.0, 0.0, 0.0, 0.0, -11.0, -41.0, -83.0, -157.0, -208.0, -275.0, -347.0, -413.0, -471.0, -516.0, -542.0, -556.0, -562.0, -567.0, -567.0, -568.0, -568.0, -568.0, -569.0, -569.0, -569.0, -569.0, -569.0, -569.0, -569.0, -569.0, -569.0, -569.0, -569.0, -570.0, -570.0, -570.0, -570.0, -570.0, -570.0, -570.0, -570.0, -571.0, -572.0, -574.0, -578.0, -582.0, -588.0, -593.0, -601.0, -608.0, -618.0, -629.0, -640.0, -654.0, -667.0, -685.0, -698.0, -704.0, -722.0, -730.0, -740.0, -746.0, -748.0, -748.0, -748.0, -748.0, -748.0, -748.0, -748.0, -748.0, -748.0, -748.0, -748.0, -748.0, -748.0, -748.0, -748.0, -748.0, -748.0, -748.0, -748.0, -748.0, -748.0, -748.0, -748.0, -748.0, -748.0, -748.0, -748.0, -748.0, -748.0, -748.0, -748.0, -748.0, -748.0, -748.0, -748.0, -748.0, -748.0, -748.0, -748.0, -748.0, -748.0, -714.0, -660.0, -562.0, -405.0, -171.0, 87.0, 347.0, 555.0, 722.0, 841.0, 937.0, 959.0, 959.0, 959.0, 959.0, 959.0, 959.0, 959.0, 959.0, 959.0, 959.0, 959.0, 956.0, 946.0, 924.0, 909.0, 896.0, 887.0, 882.0, 879.0, 878.0, 878.0, 878.0, 878.0, 878.0, 878.0]	[-490.0, -490.0, -490.0, -490.0, -490.0, -490.0, -490.0, -490.0, -490.0, -490.0, -490.0, -490.0, -490.0, -490.0, -490.0, -490.0, -490.0, -490.0, -490.0, -490.0, -490.0, -490.0, -490.0, -490.0, -490.0, -490.0, -490.0, -490.0, -474.0, -432.0, -359.0, -262.0, -146.0, -27.0, 129.0, 215.0, 300.0, 384.0, 448.0, 490.0, 518.0, 532.0, 537.0, 540.0, 540.0, 540.0, 540.0, 540.0, 540.0, 540.0, 540.0, 540.0, 540.0, 540.0, 540.0, 540.0, 540.0, 540.0, 540.0, 540.0, 540.0, 537.0, 533.0, 529.0, 526.0, 522.0, 519.0, 515.0, 509.0, 509.0, 499.0, 494.0, 489.0, 481.0, 476.0, 471.0, 466.0, 462.0, 457.0, 452.0, 449.0, 445.0, 440.0, 436.0, 435.0, 431.0, 430.0, 429.0, 428.0, 427.0, 427.0, 427.0, 427.0, 427.0, 427.0, 427.0, 427.0, 427.0, 427.0, 427.0, 427.0, 427.0, 427.0, 427.0, 427.0, 427.0, 427.0, 427.0, 427.0, 427.0, 427.0, 427.0, 427.0, 427.0, 427.0, 427.0, 427.0, 427.0, 427.0, 427.0, 427.0, 427.0, 427.0, 427.0, 427.0, 427.0, 427.0, 427.0, 427.0, 427.0, 429.0, 437.0, 450.0, 474.0, 501.0, 529.0, 540.0, 540.0, 540.0, 540.0, 540.0, 540.0, 540.0, 540.0, 540.0, 540.0, 540.0, 540.0, 540.0, 540.0, 540.0, 540.0, 535.0, 526.0, 506.0, 495.0, 487.0, 482.0, 478.0, 476.0, 475.0, 475.0, 475.0, 475.0, 475.0, 475.0]	[0.016381323628593236, 0.020908423757646233, 0.030885247222613543, 0.04952988197328523, 0.06596336129587144, 0.08131686289561912, 0.09925835154717788, 0.11602360656252131, 0.13106820173561573, 0.1493564848206006, 0.16588929202407598, 0.18133154016686603, 0.19927405286580324, 0.21616184647427872, 0.2311245216988027, 0.24939403141615912, 0.26592752133728936, 0.28134280419908464, 0.2992542555439286, 0.31610791583079845, 0.3310722977621481, 0.3493595567997545, 0.3658592547290027, 0.38138581212842837, 0.39929453283548355, 0.41604818258201703, 0.43108799908077344, 0.44939505541697145, 0.46573671617079526, 0.4812769268755801, 0.4990095197572373, 0.5161171318613924, 0.5311316896695644, 0.5493779887910932, 0.5658438947284594, 0.5813035508617759, 0.5989624158246443, 0.6160973345395178, 0.6310753697180189, 0.6494104154407978, 0.6655858469894156, 0.6812803402426653, 0.6989398878067732, 0.7159836706123315, 0.7311262283474207, 0.7492506715934724, 0.7658831480657682, 0.781281364208553, 0.7991709702764638, 0.8161202038172632, 0.8310879990458488, 0.8492626182269305, 0.8658903160248883, 0.8813195935217664, 0.8992184156086296, 0.916019169264473, 0.931186985631939, 0.9493380528292619, 0.9658650573692285, 0.9813643081579357, 0.9989579785033129, 1.0160679798573256, 1.0311282763723284, 1.0493814021465369, 1.0655636602896266, 1.0812578122713603, 1.0991279623121955, 1.1159744546166621, 1.131142953701783, 1.1492670555599034, 1.1658555000904016, 1.1812561055994593, 1.1991382023552433, 1.216008246585261, 1.2310784417204559, 1.2493418075027876, 1.2655657083378173, 1.2812759029329754, 1.2989511518389918, 1.3159379319986328, 1.3310712737729773, 1.3492854875512421, 1.365540108352434, 1.3812929695704952, 1.3992559622274712, 1.4160212172428146, 1.4310565963969566, 1.4493769647669978, 1.4655578576494008, 1.4813298335066065, 1.4990020104451105, 1.52204711077502, 1.5310879990574904, 1.5492697862209752, 1.5658240974298678, 1.5812939935713075, 1.5992047622567043, 1.6228529980871826, 1.631112233735621, 1.649293338181451, 1.6657394468202256, 1.681323348195292, 1.6991890609497204, 1.7161208864999935, 1.7311002870555967, 1.7492701275623403, 1.7659387853345834, 1.7813383668544702, 1.799137519672513, 1.8161038198741153, 1.8310951670864597, 1.8493295194930397, 1.865725793526508, 1.8813858121284284, 1.899184282287024, 1.9160430625779554, 1.9309937911457382, 1.949332250165753, 1.9658295587287284, 1.9813308574957773, 1.9992747355718166, 2.0159918626304716, 2.031129300361499, 2.049239407584537, 2.065626806928776, 2.081363966804929, 2.0991617543040775, 2.1160655905259773, 2.131068884395063, 2.149338394170627, 2.165827852091752, 2.1813305161776952, 2.199137860967312, 2.216112353198696, 2.2311033590813167, 2.249388911470305, 2.265554785670247, 2.281272489577532, 2.2992317276075482, 2.3160611531930044, 2.331104041717481, 2.3493319088593125, 2.3659500493085943, 2.381350654817652, 2.399268932873383, 2.4161594571196474, 2.4311412470415235, 2.449370479444042, 2.465952438651584, 2.481299454870168, 2.4992757595609874, 2.5160382838803343, 2.5309432738577016, 2.549305626191199, 2.565813516092021, 2.581299113575369, 2.5992221702472307, 2.616077878512442, 2.6308279032818973, 2.649174554273486, 2.665880076063331, 2.6813462175196037, 2.6991948636132292, 2.716159798495937, 2.731029972434044, 2.749394031416159]
19	松鼠	True	inanimate	animate	left	1.132	[0.0, 0.0, 0.0, 0.0, 0.0, 0.0, 0.0, 0.0, 0.0, 0.0, 0.0, 0.0, 0.0, 0.0, 0.0, 0.0, 0.0, 0.0, 0.0, 0.0, 0.0, 0.0, 0.0, 0.0, 0.0, 0.0, 0.0, 0.0, 0.0, 0.0, 0.0, 0.0, 0.0, 0.0, 0.0, 0.0, 0.0, 0.0, 0.0, 0.0, -19.0, -54.0, -120.0, -224.0, -291.0, -357.0, -410.0, -473.0, -531.0, -577.0, -613.0, -640.0, -671.0, -706.0, -731.0, -754.0, -762.0, -768.0, -776.0, -781.0, -781.0, -782.0, -782.0, -782.0, -782.0, -782.0, -782.0, -782.0, -782.0]	[-490.0, -490.0, -490.0, -490.0, -490.0, -490.0, -490.0, -490.0, -490.0, -490.0, -490.0, -490.0, -490.0, -490.0, -490.0, -490.0, -490.0, -490.0, -489.0, -487.0, -487.0, -487.0, -487.0, -487.0, -486.0, -486.0, -486.0, -486.0, -486.0, -486.0, -486.0, -484.0, -483.0, -483.0, -480.0, -476.0, -469.0, -456.0, -435.0, -382.0, -276.0, -144.0, 4.0, 171.0, 254.0, 322.0, 363.0, 422.0, 466.0, 490.0, 501.0, 506.0, 511.0, 515.0, 515.0, 515.0, 513.0, 509.0, 502.0, 497.0, 493.0, 485.0, 479.0, 474.0, 471.0, 469.0, 469.0, 469.0, 469.0]	[0.014611375285312533, 0.019611221679951996, 0.027222948556300253, 0.04568258079234511, 0.062489137111697346, 0.07752110296860337, 0.0957530660671182, 0.11241319053806365, 0.12775406276341528, 0.14558154618134722, 0.16246490244520828, 0.1772794391727075, 0.19579095405060798, 0.2123329772730358, 0.2278025320265442, 0.2456382074742578, 0.2625191744300537, 0.2775412416085601, 0.2958172366488725, 0.31236233189702034, 0.3277847827412188, 0.34572593006305397, 0.3625379477161914, 0.3775951722054742, 0.39580836199456826, 0.4122653933009133, 0.4277745427098125, 0.44552693294826895, 0.4625410197186284, 0.4775142762809992, 0.49582918331725523, 0.5124090944882482, 0.5277236840920523, 0.5456508368370123, 0.5624621718307026, 0.5775767402374186, 0.5959360205451958, 0.6121414894005284, 0.6277004734729417, 0.6455880315625109, 0.6623973185196519, 0.6773006017901935, 0.6957226874073967, 0.712238428008277, 0.7276926228078082, 0.7455518502392806, 0.7623887851950713, 0.7774716096464545, 0.7957489700638689, 0.8119479535962455, 0.82775815873174, 0.8453071144176647, 0.8623904918786138, 0.8774999402812682, 0.8956380368326791, 0.9122336493455805, 0.9276922814897262, 0.9455607248819433, 0.9624208704917692, 0.9774774123216048, 0.9957868580240756, 1.0123466305667534, 1.027652004151605, 1.0455347835668363, 1.0624143852037378, 1.0775258816429414, 1.095681386126671, 1.1122452546842396, 1.1277086654445156]
20	电话	False	inanimate	animate	left	0.868	[0.0, 0.0, 0.0, 0.0, 0.0, 0.0, 0.0, 0.0, 0.0, 0.0, 0.0, 0.0, 0.0, 0.0, 0.0, 0.0, 0.0, 0.0, 1.0, 1.0, 1.0, 1.0, 1.0, 1.0, 2.0, 2.0, 2.0, 2.0, 0.0, -11.0, -13.0, -41.0, -75.0, -124.0, -177.0, -246.0, -327.0, -459.0, -513.0, -610.0, -685.0, -729.0, -737.0, -757.0, -764.0, -767.0, -769.0, -771.0, -773.0, -775.0, -775.0, -775.0, -775.0]	[-490.0, -490.0, -490.0, -490.0, -490.0, -490.0, -490.0, -490.0, -490.0, -490.0, -490.0, -490.0, -490.0, -489.0, -487.0, -483.0, -481.0, -478.0, -477.0, -477.0, -477.0, -475.0, -474.0, -469.0, -466.0, -458.0, -454.0, -444.0, -431.0, -402.0, -391.0, -327.0, -271.0, -200.0, -121.0, -41.0, 46.0, 157.0, 192.0, 257.0, 298.0, 332.0, 339.0, 364.0, 374.0, 382.0, 388.0, 394.0, 403.0, 411.0, 411.0, 411.0, 411.0]	[0.0001424723886884749, 0.004912260337732732, 0.015175120905041695, 0.033478422614280134, 0.05027303227689117, 0.06530431547435, 0.08366154780378565, 0.09992845659144223, 0.11555946187581867, 0.1334521399694495, 0.15027337364153937, 0.16506743029458448, 0.1835444705793634, 0.2001499817124568, 0.21553044859319925, 0.23353747325018048, 0.2501993043697439, 0.2668491887743585, 0.28366052376804873, 0.2999752191826701, 0.3155287419212982, 0.33349856128916144, 0.3503119442611933, 0.36505343567114323, 0.3835588065558113, 0.40016602439573035, 0.4156140752020292, 0.43348866258747876, 0.4502020350191742, 0.465340155409649, 0.48356358520686626, 0.5001018537441269, 0.5155167952761985, 0.5332299321307801, 0.5502730322768912, 0.5650745983002707, 0.583457771979738, 0.6000421204953454, 0.6155813072109595, 0.6332531428197399, 0.6502167123253457, 0.665370534057729, 0.6834857612848282, 0.7000260778004304, 0.71553147258237, 0.7332971747382544, 0.7502638162695803, 0.7650626516551711, 0.7834748385939747, 0.7997758807032369, 0.8155195259605534, 0.833347350708209, 0.8502525523072109]
21	花瓶	False	animate	inanimate	right	2.865	[0.0, 0.0, 0.0, 0.0, 0.0, 0.0, 0.0, 0.0, 0.0, 0.0, 0.0, 0.0, 0.0, 0.0, 0.0, 0.0, 0.0, 0.0, 0.0, 0.0, 0.0, 0.0, 0.0, 0.0, 0.0, 0.0, 0.0, 0.0, 0.0, 0.0, 0.0, 0.0, 0.0, 0.0, 0.0, 0.0, 0.0, 0.0, 0.0, 0.0, 0.0, 0.0, 0.0, 0.0, 0.0, 0.0, 0.0, 0.0, 0.0, 0.0, 0.0, 1.0, 1.0, 1.0, 1.0, 1.0, 1.0, 1.0, 1.0, 1.0, 1.0, 1.0, 1.0, 1.0, 1.0, 1.0, 1.0, 1.0, 1.0, 1.0, 2.0, 2.0, 2.0, 2.0, 2.0, 2.0, 2.0, 2.0, 2.0, 2.0, 2.0, 2.0, 2.0, 2.0, 2.0, 2.0, 2.0, 2.0, 2.0, 2.0, 2.0, 2.0, 2.0, 2.0, 2.0, 2.0, 2.0, 2.0, 2.0, 2.0, 2.0, 2.0, 2.0, 2.0, 2.0, 2.0, 2.0, 2.0, 2.0, 2.0, 2.0, 2.0, 2.0, 2.0, 2.0, 2.0, 2.0, 2.0, 2.0, 2.0, 2.0, 2.0, 2.0, 2.0, 2.0, 2.0, 2.0, 2.0, 2.0, 2.0, 2.0, 2.0, 2.0, 2.0, 2.0, 2.0, 2.0, 2.0, 2.0, 2.0, 2.0, 2.0, 2.0, 2.0, 2.0, 2.0, 2.0, 2.0, 2.0, 2.0, 2.0, 2.0, 2.0, 15.0, 53.0, 125.0, 245.0, 404.0, 637.0, 715.0, 868.0, 925.0, 949.0, 959.0, 959.0, 959.0, 959.0, 959.0, 959.0, 959.0, 959.0, 959.0]	[-490.0, -490.0, -490.0, -490.0, -490.0, -490.0, -490.0, -490.0, -490.0, -490.0, -490.0, -490.0, -490.0, -490.0, -490.0, -490.0, -490.0, -490.0, -490.0, -490.0, -490.0, -490.0, -490.0, -490.0, -490.0, -490.0, -490.0, -490.0, -490.0, -490.0, -490.0, -490.0, -490.0, -490.0, -490.0, -490.0, -490.0, -490.0, -490.0, -490.0, -490.0, -490.0, -490.0, -490.0, -490.0, -490.0, -490.0, -490.0, -490.0, -490.0, -490.0, -490.0, -490.0, -489.0, -489.0, -489.0, -489.0, -489.0, -489.0, -489.0, -489.0, -489.0, -489.0, -489.0, -489.0, -489.0, -489.0, -489.0, -489.0, -488.0, -488.0, -488.0, -488.0, -488.0, -488.0, -488.0, -488.0, -488.0, -488.0, -488.0, -488.0, -488.0, -488.0, -488.0, -488.0, -488.0, -488.0, -488.0, -488.0, -488.0, -488.0, -488.0, -488.0, -488.0, -488.0, -488.0, -488.0, -488.0, -488.0, -488.0, -488.0, -488.0, -488.0, -488.0, -488.0, -488.0, -488.0, -488.0, -488.0, -488.0, -488.0, -488.0, -488.0, -488.0, -488.0, -488.0, -488.0, -488.0, -488.0, -488.0, -488.0, -488.0, -488.0, -488.0, -488.0, -488.0, -488.0, -488.0, -488.0, -488.0, -488.0, -488.0, -488.0, -488.0, -488.0, -488.0, -488.0, -488.0, -488.0, -488.0, -488.0, -488.0, -488.0, -488.0, -488.0, -488.0, -488.0, -488.0, -488.0, -488.0, -488.0, -488.0, -488.0, -470.0, -429.0, -355.0, -217.0, -42.0, 230.0, 313.0, 494.0, 540.0, 540.0, 540.0, 540.0, 540.0, 540.0, 540.0, 540.0, 540.0, 540.0, 540.0]	[0.008485129859764129, 0.013475077576003969, 0.01766186871100217, 0.03406667604576796, 0.050315835513174534, 0.065793240966741, 0.08362959907390177, 0.1005706405849196, 0.11554287315811962, 0.13383456954034045, 0.15036601142492145, 0.16576832364080474, 0.18357771646697074, 0.20057268859818578, 0.2155800784821622, 0.23383968957932666, 0.25021753157489, 0.2658154275850393, 0.2837026443448849, 0.300681232532952, 0.31556028116028756, 0.3338400308857672, 0.3503926354460418, 0.3657307770336047, 0.38371902832295746, 0.4005542566301301, 0.4155572091694921, 0.43383081490173936, 0.45038785674842075, 0.465774126292672, 0.4837302922969684, 0.5005655206041411, 0.5155817851191387, 0.5338366175419651, 0.5504161873832345, 0.5657915342599154, 0.5837517962791026, 0.6005583525984548, 0.6155739344540052, 0.6338448095484637, 0.6504254033789039, 0.6658314702799544, 0.6837016203207895, 0.700558693963103, 0.7155776891158894, 0.7338181855739094, 0.7502117289113812, 0.7658526328741573, 0.7837019616854377, 0.8005825872533023, 0.8155715451575816, 0.8337850762763992, 0.8505336059606634, 0.8657802703091875, 0.8837234656675719, 0.9005890726111829, 0.9155589158181101, 0.9338567561935633, 0.9504366673645563, 0.9657591076684184, 0.983696500363294, 1.000504080671817, 1.0153404626762494, 1.0338154549244791, 1.0504233554238454, 1.0657587663154118, 1.0836927456548437, 1.1005016913404688, 1.1155527718365192, 1.1338741641957313, 1.150409702095203, 1.165775491623208, 1.1835289057926275, 1.2005450406577438, 1.215585881145671, 1.2338274015346542, 1.2501782782492228, 1.2658379555796273, 1.2837060576421209, 1.300556987291202, 1.3155910011264496, 1.3338854282046668, 1.3503974140621722, 1.3657659342861734, 1.3837149323080666, 1.400579515262507, 1.4152541054063477, 1.4336799457087182, 1.4504397393902764, 1.465803139610216, 1.4835394871188328, 1.5006006779149175, 1.5155213691759855, 1.5337878069258295, 1.5503974140738137, 1.5658103076275438, 1.5836896736873314, 1.6005808805930428, 1.615563353174366, 1.6338096522376873, 1.6503922941046767, 1.66579153429484, 1.6836685110465623, 1.700582928606309, 1.7153008680325001, 1.733702132361941, 1.7504189180908725, 1.7658038222580217, 1.7837299509556033, 1.8005464059533551, 1.815519662515726, 1.8338615348911844, 1.8503953660838306, 1.8657655929564498, 1.8837122016702779, 1.9005911205895245, 1.9155319505371153, 1.933786100242287, 1.9503813714254647, 1.9658010916318744, 1.9837364362902008, 2.000582587264944, 2.0155698384623975, 2.0338093109312467, 2.0504202833981253, 2.065708590380382, 2.0836978656589054, 2.1004938406986184, 2.1155275132041425, 2.133822964213323, 2.1503933180938475, 2.165842392889317, 2.1837118603289127, 2.2005590352928266, 2.2156056784442626, 2.2338850868400186, 2.250388539454434, 2.265656366420444, 2.2836971830110997, 2.300483259372413, 2.3155660838237964, 2.333754356310237, 2.350378982082475, 2.365774126315955, 2.3836842123419046, 2.4006249125814065, 2.4153561639832333, 2.433655028406065, 2.450396390107926, 2.4658082596142776, 2.4836835296591744, 2.500584293913562, 2.5155415078625083, 2.533828425570391, 2.5501775956363417, 2.565730435657315, 2.58362447906984, 2.600471654033754, 2.6155104465433396, 2.633725001651328, 2.6504103847546503, 2.665731801011134, 2.6836992310127243, 2.700471654010471, 2.7155712037929334, 2.7338076042360626, 2.7503407528274693, 2.76578709698515, 2.7837838815758005, 2.8004788220277987, 2.8155821264372207, 2.833854708180297]
22	鸡蛋	False	animate	inanimate	left	4.93	[0.0, 0.0, 0.0, 0.0, 0.0, 0.0, 0.0, 0.0, 0.0, 0.0, 0.0, 0.0, 0.0, 0.0, 0.0, 0.0, 0.0, 0.0, 0.0, 0.0, 0.0, 0.0, 0.0, 0.0, 0.0, -2.0, -3.0, -3.0, -3.0, -3.0, -3.0, -11.0, -25.0, -46.0, -68.0, -88.0, -97.0, -104.0, -106.0, -107.0, -107.0, -107.0, -107.0, -107.0, -107.0, -107.0, -107.0, -107.0, -107.0, -107.0, -107.0, -107.0, -107.0, -107.0, -107.0, -107.0, -107.0, -107.0, -107.0, -107.0, -107.0, -107.0, -107.0, -107.0, -107.0, -107.0, -107.0, -107.0, -107.0, -107.0, -107.0, -107.0, -107.0, -107.0, -107.0, -107.0, -107.0, -107.0, -107.0, -107.0, -107.0, -107.0, -107.0, -107.0, -107.0, -107.0, -107.0, -107.0, -107.0, -107.0, -107.0, -107.0, -107.0, -107.0, -107.0, -107.0, -107.0, -107.0, -107.0, -107.0, -107.0, -107.0, -107.0, -107.0, -107.0, -107.0, -107.0, -107.0, -107.0, -107.0, -107.0, -107.0, -107.0, -107.0, -107.0, -107.0, -107.0, -107.0, -107.0, -107.0, -107.0, -107.0, -107.0, -107.0, -107.0, -107.0, -107.0, -107.0, -107.0, -107.0, -107.0, -107.0, -107.0, -107.0, -107.0, -107.0, -107.0, -107.0, -107.0, -107.0, -107.0, -107.0, -107.0, -107.0, -107.0, -107.0, -107.0, -107.0, -107.0, -107.0, -107.0, -107.0, -107.0, -107.0, -107.0, -107.0, -107.0, -107.0, -107.0, -107.0, -107.0, -107.0, -107.0, -107.0, -107.0, -107.0, -107.0, -107.0, -107.0, -107.0, -107.0, -107.0, -107.0, -107.0, -107.0, -107.0, -107.0, -107.0, -107.0, -107.0, -107.0, -107.0, -107.0, -107.0, -107.0, -107.0, -107.0, -107.0, -107.0, -107.0, -107.0, -107.0, -107.0, -107.0, -107.0, -107.0, -107.0, -107.0, -107.0, -107.0, -107.0, -107.0, -107.0, -107.0, -107.0, -107.0, -107.0, -107.0, -107.0, -107.0, -107.0, -107.0, -107.0, -107.0, -107.0, -107.0, -107.0, -107.0, -107.0, -107.0, -107.0, -107.0, -107.0, -107.0, -107.0, -107.0, -107.0, -107.0, -107.0, -107.0, -107.0, -107.0, -107.0, -107.0, -107.0, -107.0, -107.0, -107.0, -107.0, -107.0, -107.0, -107.0, -107.0, -107.0, -107.0, -107.0, -107.0, -107.0, -107.0, -107.0, -107.0, -107.0, -107.0, -107.0, -107.0, -107.0, -107.0, -115.0, -172.0, -263.0, -349.0, -435.0, -515.0, -573.0, -628.0, -677.0, -693.0, -699.0, -707.0, -708.0, -708.0, -708.0, -708.0, -709.0, -710.0, -711.0, -713.0, -714.0, -717.0, -719.0, -722.0, -723.0, -725.0, -727.0, -728.0, -729.0, -729.0, -729.0, -729.0, -729.0, -729.0, -729.0, -729.0, -729.0, -729.0, -729.0]	[-490.0, -490.0, -490.0, -490.0, -490.0, -490.0, -490.0, -490.0, -490.0, -490.0, -490.0, -490.0, -490.0, -490.0, -490.0, -490.0, -490.0, -490.0, -490.0, -487.0, -483.0, -481.0, -479.0, -476.0, -471.0, -464.0, -459.0, -455.0, -435.0, -392.0, -343.0, -281.0, -212.0, -143.0, -83.0, -37.0, -18.0, 3.0, 16.0, 20.0, 27.0, 31.0, 31.0, 31.0, 31.0, 31.0, 31.0, 31.0, 31.0, 31.0, 31.0, 31.0, 31.0, 31.0, 31.0, 31.0, 31.0, 31.0, 31.0, 31.0, 31.0, 31.0, 31.0, 31.0, 31.0, 31.0, 31.0, 31.0, 31.0, 31.0, 31.0, 31.0, 31.0, 31.0, 31.0, 31.0, 31.0, 31.0, 31.0, 31.0, 31.0, 31.0, 31.0, 31.0, 31.0, 31.0, 31.0, 31.0, 31.0, 31.0, 31.0, 31.0, 31.0, 31.0, 31.0, 31.0, 31.0, 31.0, 31.0, 31.0, 31.0, 31.0, 31.0, 31.0, 31.0, 31.0, 31.0, 31.0, 31.0, 31.0, 31.0, 31.0, 31.0, 31.0, 31.0, 31.0, 31.0, 31.0, 31.0, 31.0, 31.0, 31.0, 31.0, 31.0, 31.0, 31.0, 31.0, 31.0, 31.0, 31.0, 31.0, 31.0, 31.0, 31.0, 31.0, 31.0, 31.0, 31.0, 31.0, 31.0, 31.0, 31.0, 31.0, 31.0, 31.0, 31.0, 31.0, 31.0, 31.0, 31.0, 31.0, 31.0, 31.0, 31.0, 31.0, 31.0, 31.0, 31.0, 31.0, 31.0, 31.0, 31.0, 31.0, 31.0, 31.0, 31.0, 31.0, 31.0, 31.0, 31.0, 31.0, 31.0, 31.0, 31.0, 31.0, 31.0, 31.0, 31.0, 31.0, 31.0, 31.0, 31.0, 31.0, 31.0, 31.0, 31.0, 31.0, 31.0, 31.0, 31.0, 31.0, 31.0, 31.0, 31.0, 31.0, 31.0, 31.0, 31.0, 31.0, 31.0, 31.0, 31.0, 31.0, 31.0, 31.0, 31.0, 31.0, 31.0, 31.0, 31.0, 31.0, 31.0, 31.0, 31.0, 31.0, 31.0, 31.0, 31.0, 31.0, 31.0, 31.0, 31.0, 31.0, 31.0, 31.0, 31.0, 31.0, 31.0, 31.0, 31.0, 31.0, 31.0, 31.0, 31.0, 31.0, 31.0, 31.0, 31.0, 31.0, 31.0, 31.0, 31.0, 31.0, 31.0, 31.0, 31.0, 31.0, 31.0, 31.0, 31.0, 31.0, 31.0, 31.0, 31.0, 31.0, 31.0, 31.0, 39.0, 64.0, 101.0, 137.0, 162.0, 189.0, 211.0, 229.0, 252.0, 263.0, 267.0, 273.0, 274.0, 274.0, 274.0, 274.0, 275.0, 279.0, 286.0, 293.0, 296.0, 304.0, 308.0, 320.0, 327.0, 332.0, 338.0, 343.0, 346.0, 350.0, 353.0, 357.0, 358.0, 358.0, 359.0, 359.0, 359.0, 359.0, 359.0]	[0.004699746437836438, 0.009675016859546304, 0.01845376135315746, 0.03696459357161075, 0.05327212100382894, 0.06872153712902218, 0.0866210418753326, 0.10340370488120243, 0.11845239601098001, 0.13670449779601768, 0.15325983299408108, 0.1686491745058447, 0.18657120724674314, 0.20341121417004615, 0.21849301463225856, 0.23676184174837545, 0.253182350366842, 0.2686679478501901, 0.2866169458720833, 0.30354569939663634, 0.3182209721999243, 0.3366874311468564, 0.3532673423178494, 0.36860787321347743, 0.38665961247170344, 0.4033801528858021, 0.4185336332884617, 0.43672122311545536, 0.4533042063121684, 0.468617771868594, 0.4866142151877284, 0.5034467128571123, 0.5182209722115658, 0.5366164338774979, 0.5530096358852461, 0.5686536118737422, 0.5865217139362358, 0.60327331564622, 0.6185053026420064, 0.6367041564662941, 0.653148558398243, 0.6686928651761264, 0.6865715485764667, 0.7034473954699934, 0.7184906253241934, 0.7366536391782574, 0.7532004410168156, 0.7687051531393081, 0.7865043059573509, 0.8034183821873739, 0.8184483000077307, 0.8366679751197807, 0.8532448143232614, 0.8685553079121746, 0.8866336711798795, 0.9033357796142809, 0.9185145186493173, 0.9366734364884906, 0.9531772303744219, 0.9687235851306468, 0.9865230792784132, 1.0033770808950067, 1.0185083746328019, 1.036690844455734, 1.053246520983521, 1.0687584010884166, 1.0865374152781442, 1.1033801528974436, 1.118536363937892, 1.1366829937906004, 1.1531605050549842, 1.1685962678748183, 1.1865292232832871, 1.2035228300956078, 1.2184104120824486, 1.236610631167423, 1.2531390010844916, 1.2687054944690317, 1.286509767291136, 1.3033484088955447, 1.3182417935458943, 1.3366113138617948, 1.3530103185330518, 1.3687737610889599, 1.386540487234015, 1.4033501155790873, 1.41843976668315, 1.4367017671465874, 1.4529823292396031, 1.4686976438388228, 1.486514545918908, 1.5033695715828799, 1.5184616119950078, 1.536658417840954, 1.553147875762079, 1.5686993504641578, 1.5864828019984998, 1.603436472825706, 1.6184145080624148, 1.6366512498352677, 1.6531779130455106, 1.668661121162586, 1.6865066952886991, 1.7033630862133577, 1.7185162252862938, 1.7366263325093314, 1.7531796197290532, 1.7687297291122377, 1.7864957725978456, 1.8033965368522331, 1.8182708068634383, 1.83665227383608, 1.8531785957165994, 1.8686218679067679, 1.8865780339110643, 1.903410872851964, 1.9182714894996025, 1.9366096071898937, 1.9531953210243955, 1.968727339815814, 1.9864937246311456, 2.003421454166528, 2.018551041255705, 2.0367178097949363, 2.0531843983917497, 2.0686914998223074, 2.086542535282206, 2.103369571559597, 2.1184558093664236, 2.1366823111311533, 2.152987107867375, 2.168792534386739, 2.1865343432873487, 2.203455587499775, 2.21843020938104, 2.236579911201261, 2.253152313060127, 2.268660779867787, 2.286493724619504, 2.3033316835644655, 2.318362284102477, 2.336616092536133, 2.353168355708476, 2.368700033170171, 2.386543559259735, 2.4033426062669605, 2.4183742307359353, 2.436632817843929, 2.453169721062295, 2.468781611765735, 2.486487921967637, 2.5034078008611687, 2.518430892028846, 2.536691527115181, 2.55314207309857, 2.5687164171249606, 2.586530929955188, 2.6034521741676144, 2.618414508062415, 2.6367044977960177, 2.6531482170685194, 2.6687549877678975, 2.68647529266309, 2.703477432776708, 2.7183967587188818, 2.7368127003428526, 2.7531529957195744, 2.7686734091839753, 2.786507719254587, 2.8033272462780587, 2.8181851322297007, 2.8365655752131715, 2.852975502551999, 2.8686464438796975, 2.8863032608060166, 2.903298915596679, 2.9184465933358297, 2.9365642099292018, 2.9529690172639675, 2.9686293771956116, 2.9864599326392636, 3.0033337316126563, 3.0184390840586275, 3.036655345815234, 3.0530772198108025, 3.068640299839899, 3.0865510685835034, 3.103473678114824, 3.118468438682612, 3.1365884445258416, 3.1531748410779983, 3.1685703265829943, 3.1864868979901075, 3.2033146169269457, 3.218451371998526, 3.236579228541814, 3.253180643718224, 3.2686385932029225, 3.2863213514210656, 3.303272974328138, 3.318492332007736, 3.336925340234302, 3.35317176906392, 3.368583979899995, 3.3864834846463054, 3.4033453369047493, 3.41838959074812, 3.4366604658425786, 3.453168014413677, 3.468700033146888, 3.486543559236452, 3.503397902182769, 3.5184240653761663, 3.536636572505813, 3.5531669904012233, 3.568551211967133, 3.5864930419484153, 3.603346702235285, 3.6184431800502352, 3.636615409865044, 3.653179278364405, 3.668727339769248, 3.6864746100036427, 3.703391758201178, 3.7184421560377814, 3.7366382791660726, 3.7532779236207716, 3.768616406538058, 3.786538097949233, 3.8033815182279795, 3.81836160144303, 3.8366253084968776, 3.853213411697652, 3.868738945107907, 3.886513863282744, 3.9034743608208373, 3.918453420046717, 3.9366809458006173, 3.9529874492436647, 3.9686560012050904, 3.9864742686622776, 4.003342947573401, 4.01842065207893, 4.036715761758387, 4.053205561009236, 4.0685549665940925, 4.08654082857538, 4.110188381746411, 4.118448982713744, 4.136764913739171, 4.153171769052278, 4.1685966092627496, 4.186520689923782, 4.203368547547143, 4.218432598689105, 4.236607217870187, 4.253152654389851, 4.268547798623331, 4.2864916766411625, 4.303346702246927, 4.318199809582438, 4.336570695217233, 4.353159139747731, 4.368524929275736, 4.386429895355832, 4.403242254338693, 4.418456150684506, 4.436536561930552, 4.453207950340584, 4.468657366523985, 4.486468807328492, 4.503325198253151, 4.518304940138478, 4.536656369804405, 4.553128419793211, 4.568665558530483, 4.586468465975486, 4.603390392905567, 4.618455809366424, 4.636598001874518, 4.652907918614801, 4.6685433613019995, 4.686231239524204, 4.703367523557972, 4.718241452181246, 4.736556359217502, 4.752953657240141, 4.76854677463416, 4.7864254580345005, 4.803326904948335, 4.818169089616276, 4.83663452451583, 4.853206585044973, 4.868641323875636, 4.886469831340946, 4.9035207820707]
23	记者	True	animate	inanimate	left	1.07	[0.0, 0.0, 0.0, 0.0, 0.0, 0.0, 0.0, 0.0, 0.0, 0.0, 0.0, 0.0, 0.0, 0.0, 0.0, 0.0, 0.0, 0.0, 0.0, 0.0, 0.0, 0.0, 0.0, 0.0, 0.0, 0.0, 0.0, 0.0, 1.0, 1.0, 1.0, 1.0, -10.0, -54.0, -129.0, -220.0, -319.0, -412.0, -503.0, -578.0, -637.0, -682.0, -709.0, -732.0, -742.0, -751.0, -760.0, -768.0, -774.0, -777.0, -778.0, -780.0, -783.0, -784.0, -784.0, -784.0, -783.0, -783.0, -783.0, -783.0, -783.0, -783.0, -783.0, -783.0, -783.0]	[-490.0, -490.0, -490.0, -490.0, -490.0, -490.0, -490.0, -490.0, -490.0, -490.0, -490.0, -490.0, -490.0, -490.0, -490.0, -490.0, -490.0, -490.0, -490.0, -490.0, -490.0, -490.0, -490.0, -490.0, -490.0, -490.0, -490.0, -490.0, -488.0, -476.0, -465.0, -440.0, -400.0, -323.0, -229.0, -132.0, -47.0, 24.0, 77.0, 122.0, 155.0, 180.0, 198.0, 217.0, 231.0, 241.0, 252.0, 262.0, 271.0, 276.0, 290.0, 305.0, 321.0, 336.0, 348.0, 362.0, 371.0, 374.0, 378.0, 382.0, 382.0, 382.0, 382.0, 382.0, 382.0]	[0.01572309696348384, 0.03212346701184288, 0.039333444845397025, 0.048070546705275774, 0.06490475102327764, 0.07993603416252881, 0.09812737867468968, 0.1147598551469855, 0.13016353268176317, 0.14810604532249272, 0.16494707629317418, 0.1798954155528918, 0.19821475993376225, 0.21474517782917246, 0.2302130259340629, 0.24809990136418492, 0.26496823894558474, 0.27963429578812793, 0.2981987172970548, 0.3147622444666922, 0.33022838592296466, 0.34808112803148106, 0.36507610022090375, 0.37990667956182733, 0.3982458212412894, 0.41461205790983513, 0.4301007273606956, 0.4480316347326152, 0.46479552442906424, 0.4798998528858647, 0.4981628772802651, 0.5147762391134165, 0.530095266061835, 0.5480538213741966, 0.5648876843624748, 0.5799141888855956, 0.5982417252380401, 0.6145171673269942, 0.6300898047047667, 0.6477370643406175, 0.6648112257826142, 0.6798957568826154, 0.6980836880393326, 0.7147120684967376, 0.7300983380409889, 0.7479463014751673, 0.7648791510146111, 0.7799776768079028, 0.7982185145956464, 0.8144458287279122, 0.8300850260420702, 0.8479674641275778, 0.8647545644780621, 0.8799008768983185, 0.8980707174050622, 0.9146390232490376, 0.9301925459876657, 0.947950056171976, 0.964867545699235, 0.9798732289345935, 0.9981413733330555, 1.0146550658973865, 1.0301901566563174, 1.0480172987445258, 1.0648344364017248]
24	抽屉	False	inanimate	animate	left	1.59	[0.0, 0.0, 0.0, 0.0, 0.0, 0.0, 0.0, 0.0, 0.0, -1.0, -1.0, -1.0, -1.0, -1.0, -1.0, -1.0, -1.0, -1.0, -1.0, -1.0, -1.0, -1.0, -1.0, -1.0, -1.0, -1.0, -1.0, -1.0, -1.0, -1.0, -21.0, -160.0, -244.0, -279.0, -323.0, -335.0, -361.0, -387.0, -417.0, -437.0, -456.0, -457.0, -459.0, -477.0, -509.0, -559.0, -604.0, -627.0, -627.0, -590.0, -525.0, -468.0, -416.0, -359.0, -347.0, -316.0, -289.0, -272.0, -271.0, -281.0, -316.0, -374.0, -440.0, -517.0, -619.0, -721.0, -802.0, -889.0, -928.0, -958.0, -960.0, -960.0, -960.0, -960.0, -960.0, -960.0, -960.0, -960.0, -960.0, -960.0, -960.0, -960.0, -960.0, -957.0, -953.0, -946.0, -935.0, -921.0, -905.0, -888.0, -870.0, -851.0, -845.0, -844.0, -843.0, -842.0]	[-490.0, -490.0, -490.0, -490.0, -490.0, -490.0, -490.0, -490.0, -490.0, -489.0, -489.0, -489.0, -489.0, -489.0, -489.0, -489.0, -489.0, -489.0, -489.0, -489.0, -489.0, -489.0, -489.0, -489.0, -489.0, -489.0, -489.0, -489.0, -489.0, -489.0, -496.0, -539.0, -539.0, -539.0, -539.0, -537.0, -528.0, -514.0, -494.0, -474.0, -433.0, -421.0, -387.0, -279.0, -191.0, -113.0, -50.0, -6.0, 38.0, 104.0, 177.0, 226.0, 261.0, 299.0, 309.0, 329.0, 342.0, 351.0, 353.0, 362.0, 370.0, 390.0, 402.0, 418.0, 438.0, 466.0, 488.0, 512.0, 525.0, 533.0, 537.0, 538.0, 538.0, 538.0, 538.0, 538.0, 538.0, 538.0, 538.0, 538.0, 538.0, 538.0, 538.0, 538.0, 536.0, 531.0, 526.0, 517.0, 508.0, 500.0, 492.0, 485.0, 483.0, 483.0, 482.0, 481.0]	[0.00832811661530286, 0.012927238014526665, 0.017224279697984457, 0.03360280435299501, 0.049883707775734365, 0.06538773723877966, 0.08323501801351085, 0.1001497769029811, 0.11503599351271987, 0.13342019118135795, 0.14990760112414137, 0.16538022790336981, 0.18323604203760624, 0.2002170195337385, 0.21502199891256168, 0.23899074643850327, 0.24984308914281428, 0.26540855853818357, 0.28325515665346757, 0.30018971289973706, 0.3150192681932822, 0.3334611511672847, 0.34986356913577765, 0.36545395583380014, 0.3832848526071757, 0.400218726193998, 0.41491857497021556, 0.4333973218454048, 0.44987688114633784, 0.4654184572282247, 0.48320463934214786, 0.5001350995735265, 0.5150083455373533, 0.5393747460911982, 0.5499116971041076, 0.5654191398643889, 0.5831513914163224, 0.6001893715583719, 0.6150097108911723, 0.6334123405395076, 0.6498604971566238, 0.6654819451505318, 0.683187231363263, 0.7001443156041205, 0.7150028842152096, 0.7333710392122157, 0.7498021292267367, 0.7654358652071096, 0.7830500155105256, 0.7999603370553814, 0.8149977642460726, 0.8333536312566139, 0.8498553771642037, 0.8653682812582701, 0.883249695354607, 0.9000838996144012, 0.9151848147739656, 0.9333966391859576, 0.9499383210786618, 0.9654184572282247, 0.9830633274978027, 1.0000941395992413, 1.015145902754739, 1.0333577272249386, 1.0499041877919808, 1.0653675986104645, 1.0832077113445848, 1.10013783024624, 1.1151943720760755, 1.1333683085395023, 1.1499103317619301, 1.1654362065601163, 1.1832585699739866, 1.2001555795432068, 1.21515272941906, 1.233457055175677, 1.24985947314417, 1.2654863824718632, 1.28352754045045, 1.300122128915973, 1.3151387347606942, 1.3333621645579115, 1.3496748119941913, 1.3654123132000677, 1.383056159480475, 1.40005727566313, 1.4149434922728688, 1.4333362232428044, 1.4499618730624206, 1.4653672572458163, 1.4832476473529823, 1.500029627699405, 1.514939054963179, 1.533399369858671, 1.5498246572096832, 1.5654290385427885]
25	腰带	False	animate	inanimate	right	1.188	[0.0, 0.0, 0.0, 0.0, 0.0, 0.0, 0.0, 0.0, 0.0, 0.0, 0.0, 0.0, 0.0, 0.0, 0.0, 0.0, -2.0, -3.0, -3.0, -4.0, -4.0, -4.0, -4.0, -6.0, -9.0, -11.0, -11.0, -11.0, -11.0, -11.0, -7.0, 6.0, 14.0, 23.0, 35.0, 52.0, 69.0, 94.0, 118.0, 141.0, 171.0, 216.0, 292.0, 436.0, 536.0, 617.0, 679.0, 729.0, 770.0, 802.0, 818.0, 822.0, 822.0, 822.0, 822.0, 822.0, 822.0, 823.0, 820.0, 805.0, 792.0, 786.0, 781.0, 777.0, 773.0, 768.0, 768.0, 768.0, 768.0, 768.0, 768.0, 768.0]	[-490.0, -490.0, -490.0, -490.0, -490.0, -490.0, -490.0, -490.0, -490.0, -490.0, -490.0, -490.0, -490.0, -490.0, -490.0, -490.0, -485.0, -481.0, -481.0, -479.0, -478.0, -478.0, -477.0, -473.0, -465.0, -453.0, -435.0, -400.0, -308.0, -224.0, -187.0, -95.0, -49.0, -11.0, 17.0, 40.0, 59.0, 78.0, 93.0, 101.0, 110.0, 118.0, 128.0, 145.0, 157.0, 168.0, 176.0, 183.0, 189.0, 196.0, 200.0, 201.0, 201.0, 201.0, 201.0, 201.0, 201.0, 202.0, 216.0, 238.0, 262.0, 280.0, 295.0, 310.0, 325.0, 340.0, 343.0, 347.0, 348.0, 348.0, 348.0, 348.0]	[0.006670944683719426, 0.011688540398608893, 0.016960770590230823, 0.030197324638720602, 0.04658335860585794, 0.062180571956560016, 0.07992272218689322, 0.09686717705335468, 0.11171106836991385, 0.13010072737233713, 0.14649904938414693, 0.1620419907849282, 0.1799619754892774, 0.19690131035167724, 0.2116172017995268, 0.2301341780112125, 0.24677177448756993, 0.26211332937236875, 0.27999235410243273, 0.2967982277623378, 0.3118322415975854, 0.33017923397710547, 0.34667005721712485, 0.36214985203696415, 0.3799326208536513, 0.3968268997268751, 0.41184999095276, 0.4368034843355417, 0.44675027049379423, 0.4621143533731811, 0.47984899423317984, 0.4967879877658561, 0.5117021937039681, 0.5301311059738509, 0.5466038386221044, 0.5621007000445388, 0.5798128129681572, 0.5967548784683459, 0.6116919537307695, 0.6300522580859251, 0.6465717533137649, 0.662046428071335, 0.6799561728257686, 0.6969013103516772, 0.7118243909790181, 0.7301000446896069, 0.7465563933365047, 0.76212527602911, 0.7797087063663639, 0.7967343985219486, 0.8118455536314286, 0.8300403114408255, 0.8465840413118713, 0.8621368813328445, 0.8800312660750933, 0.8967815024661832, 0.9118540869094431, 0.9300898046931252, 0.9464270281023346, 0.9620696387719363, 0.979814178252127, 0.9968190491199493, 1.01183940959163, 1.0300444074091502, 1.046604179951828, 1.0621235693688504, 1.0797585409600288, 1.0967818438075483, 1.1118636442697607, 1.1301580712897703, 1.1466366066015325, 1.1621993453009054]
26	黑板	False	inanimate	animate	left	1.267	[0.0, 0.0, 0.0, 0.0, 0.0, 0.0, 0.0, 0.0, 0.0, 0.0, 0.0, 0.0, 0.0, 0.0, 0.0, 0.0, 0.0, 0.0, 0.0, 0.0, 0.0, 0.0, 0.0, 0.0, 0.0, 0.0, 0.0, -1.0, -5.0, -5.0, -5.0, -5.0, -5.0, -5.0, -5.0, -5.0, -5.0, -5.0, -5.0, -5.0, -5.0, -5.0, -5.0, -5.0, -5.0, -5.0, -5.0, -5.0, -5.0, -5.0, -5.0, -5.0, -5.0, -5.0, -5.0, -7.0, -17.0, -49.0, -146.0, -187.0, -296.0, -503.0, -656.0, -716.0, -787.0, -788.0, -788.0, -788.0, -788.0, -788.0, -788.0, -788.0, -788.0, -788.0, -788.0, -788.0, -788.0]	[-490.0, -490.0, -490.0, -490.0, -490.0, -490.0, -490.0, -490.0, -490.0, -490.0, -490.0, -490.0, -490.0, -490.0, -490.0, -490.0, -490.0, -490.0, -490.0, -490.0, -490.0, -490.0, -490.0, -490.0, -490.0, -490.0, -490.0, -490.0, -494.0, -494.0, -494.0, -494.0, -494.0, -494.0, -494.0, -494.0, -494.0, -494.0, -494.0, -494.0, -494.0, -494.0, -494.0, -494.0, -494.0, -494.0, -494.0, -494.0, -494.0, -494.0, -494.0, -494.0, -494.0, -494.0, -494.0, -494.0, -462.0, -387.0, -186.0, -113.0, 36.0, 281.0, 405.0, 450.0, 486.0, 486.0, 486.0, 486.0, 486.0, 486.0, 479.0, 477.0, 468.0, 461.0, 459.0, 459.0, 459.0]	[0.00839808996533975, 0.01333137642359361, 0.01792708446737379, 0.03381613758392632, 0.05021821428090334, 0.06560755579266697, 0.08331318333512172, 0.10029552620835602, 0.11537937464891002, 0.13365980703383684, 0.15019671025220305, 0.16556420648703352, 0.18349477252922952, 0.20457447721855715, 0.21537049999460578, 0.23363762040389702, 0.2501827155938372, 0.2655133478692733, 0.2835138872032985, 0.3003596967901103, 0.31533602537820116, 0.3336174817522988, 0.3500335530843586, 0.3655857105040923, 0.38351115654222667, 0.4003320488263853, 0.4153834706521593, 0.43361816444667056, 0.45013458764879033, 0.4656631930847652, 0.4835306124878116, 0.5003965607611462, 0.5153541159816086, 0.5336816523922607, 0.5501868115970865, 0.565481603902299, 0.5834835085552186, 0.6003412647987716, 0.6150991402100772, 0.6334662712179124, 0.6501827156171203, 0.6654686332331039, 0.6833131833700463, 0.7003368274890818, 0.7152469374123029, 0.7335830071242526, 0.7500427690683864, 0.7655723984935321, 0.7835374391870573, 0.8003337554982863, 0.8153851773240604, 0.8335843724780716, 0.8500287744100206, 0.8656027771066874, 0.883504671161063, 0.9004091901006177, 0.9152356734266505, 0.9336099724168889, 0.9501079636975192, 0.9656167717766948, 0.9833998819231056, 1.0002433022600599, 1.015155118831899, 1.033543412515428, 1.0498553772340529, 1.0656468091183342, 1.0833910072688013, 1.1002689021988772, 1.1150851455749944, 1.1335232738638297, 1.150043110421393, 1.1654880892019719, 1.183370868617203, 1.2003719847998582, 1.2153479720000178, 1.2335345378378406, 1.2500304810819216]
27	钢琴	False	inanimate	animate	left	1.766	[0.0, 0.0, 0.0, 0.0, 0.0, 0.0, 0.0, 0.0, 0.0, 0.0, 0.0, 0.0, 0.0, 0.0, 0.0, 0.0, 0.0, 0.0, 0.0, 0.0, 0.0, 0.0, 0.0, 0.0, 0.0, 0.0, 0.0, 0.0, 0.0, 0.0, 0.0, 0.0, 0.0, 0.0, 0.0, 0.0, 0.0, 0.0, 0.0, 0.0, 0.0, 0.0, 0.0, 0.0, 0.0, 0.0, 0.0, 0.0, 0.0, 0.0, 0.0, 0.0, 0.0, 0.0, 0.0, 0.0, 0.0, 0.0, 0.0, 0.0, 0.0, 0.0, 0.0, 0.0, 0.0, 0.0, 0.0, 0.0, 0.0, 0.0, 0.0, 0.0, 0.0, 0.0, 0.0, 0.0, 0.0, 0.0, 0.0, 0.0, 0.0, -58.0, -177.0, -307.0, -457.0, -609.0, -763.0, -864.0, -905.0, -907.0, -907.0, -907.0, -907.0, -907.0, -907.0, -906.0, -905.0, -904.0, -903.0, -899.0, -896.0, -895.0, -895.0, -895.0, -895.0, -895.0, -895.0]	[-490.0, -490.0, -490.0, -490.0, -490.0, -490.0, -490.0, -490.0, -490.0, -490.0, -490.0, -490.0, -490.0, -490.0, -490.0, -490.0, -490.0, -490.0, -490.0, -490.0, -490.0, -490.0, -490.0, -490.0, -490.0, -490.0, -490.0, -490.0, -490.0, -490.0, -490.0, -490.0, -490.0, -490.0, -490.0, -490.0, -490.0, -490.0, -490.0, -490.0, -490.0, -490.0, -490.0, -490.0, -490.0, -490.0, -490.0, -490.0, -490.0, -490.0, -490.0, -490.0, -490.0, -490.0, -490.0, -490.0, -490.0, -490.0, -490.0, -490.0, -490.0, -490.0, -490.0, -490.0, -490.0, -490.0, -490.0, -490.0, -490.0, -490.0, -490.0, -490.0, -490.0, -490.0, -490.0, -490.0, -490.0, -490.0, -490.0, -490.0, -474.0, -372.0, -215.0, -44.0, 133.0, 311.0, 461.0, 537.0, 540.0, 540.0, 540.0, 540.0, 540.0, 540.0, 540.0, 538.0, 537.0, 536.0, 534.0, 530.0, 528.0, 527.0, 527.0, 527.0, 527.0, 527.0, 527.0]	[0.012727216875646263, 0.018386518699117005, 0.02394342061597854, 0.04246790613979101, 0.05882868153275922, 0.07441224157810211, 0.09215234377188608, 0.10909713996807113, 0.12396731396438554, 0.14227061567362398, 0.1588477962068282, 0.17420198040781543, 0.19215473311487585, 0.20897664938820526, 0.22375090880086645, 0.24212964513571933, 0.2589232308091596, 0.2742484016926028, 0.292171458422672, 0.30899951874744147, 0.32395024731522426, 0.3422801729757339, 0.3588378975400701, 0.3742477190680802, 0.39201444521313533, 0.4090199986821972, 0.4239993992378004, 0.44227846630383283, 0.4588221962330863, 0.4742371377069503, 0.4921557570924051, 0.5089063348132186, 0.5240294365794398, 0.5423136236495338, 0.558710238954518, 0.5742200710810721, 0.5921506371232681, 0.6089496840722859, 0.6240383112453856, 0.6422084930236451, 0.6588501855148934, 0.6742033457267098, 0.692170093068853, 0.7089797214139253, 0.7239895006059669, 0.7422771009732969, 0.7586464096675627, 0.7742446470656432, 0.7921574637875892, 0.8090138547122478, 0.8237758261384442, 0.8421173571259715, 0.8588570121792145, 0.8742555697099306, 0.8921468824264593, 0.9089687987579964, 0.9239949619513936, 0.9422593516646884, 0.9588949001627043, 0.9741497564828023, 0.9921639490639791, 1.0154350118828006, 1.0240045192767866, 1.0422818796359934, 1.0588733961922117, 1.07428970298497, 1.092229826375842, 1.1090681266505271, 1.1240420658723451, 1.1422863169573247, 1.1587242336245254, 1.1743644549278542, 1.192111725162249, 1.2090507186949253, 1.224068689858541, 1.2422644716571085, 1.2587669002823532, 1.2741975430981256, 1.2921707757632248, 1.308999860077165, 1.3240905351703987, 1.3423385409405455, 1.358712969638873, 1.3741804764140397, 1.3918543600011617, 1.4088745908229612, 1.4240212445729412, 1.4422067863633856, 1.4586737163481303, 1.4742473777150735, 1.4918567493441515, 1.5089466121280566, 1.5240212445496581, 1.5422979223076254, 1.5584958817926235, 1.574157265771646, 1.5920854425057769, 1.6089715294074267, 1.6240649351966567, 1.6421702637453564, 1.6588658868568018, 1.674131324456539, 1.6919782639015466, 1.708840116218198, 1.7240011059329845, 1.7422197570558637, 1.7585658550960943]
28	法官	True	inanimate	animate	right	1.732	[0.0, 0.0, 0.0, 0.0, 0.0, 0.0, 0.0, 0.0, 0.0, 0.0, -1.0, -2.0, -2.0, -2.0, -2.0, -2.0, -2.0, -2.0, -2.0, -2.0, -2.0, -2.0, -2.0, -2.0, -2.0, -2.0, -2.0, -2.0, -2.0, -2.0, -2.0, -2.0, -2.0, -2.0, -2.0, -2.0, -2.0, -2.0, -2.0, -2.0, -2.0, -2.0, -2.0, -2.0, -2.0, -2.0, -2.0, -2.0, -2.0, -2.0, -2.0, -2.0, -2.0, -2.0, -2.0, -2.0, -2.0, -2.0, -2.0, -2.0, -2.0, -2.0, -2.0, -2.0, -2.0, -2.0, -2.0, -2.0, -2.0, -2.0, -2.0, -2.0, -2.0, -2.0, -2.0, -2.0, -2.0, -2.0, -2.0, -2.0, -2.0, -2.0, 44.0, 76.0, 161.0, 267.0, 445.0, 497.0, 654.0, 718.0, 743.0, 746.0, 746.0, 746.0, 746.0, 746.0, 746.0, 746.0, 746.0, 746.0, 746.0, 746.0, 746.0, 746.0, 746.0]	[-490.0, -490.0, -490.0, -490.0, -490.0, -490.0, -490.0, -490.0, -490.0, -490.0, -490.0, -490.0, -490.0, -490.0, -490.0, -490.0, -490.0, -490.0, -490.0, -490.0, -490.0, -490.0, -490.0, -490.0, -490.0, -490.0, -490.0, -490.0, -490.0, -490.0, -490.0, -490.0, -490.0, -490.0, -490.0, -490.0, -490.0, -490.0, -490.0, -490.0, -490.0, -490.0, -490.0, -490.0, -490.0, -490.0, -490.0, -490.0, -490.0, -490.0, -490.0, -490.0, -490.0, -490.0, -490.0, -490.0, -490.0, -490.0, -490.0, -490.0, -490.0, -490.0, -490.0, -490.0, -490.0, -490.0, -490.0, -490.0, -490.0, -490.0, -490.0, -490.0, -490.0, -490.0, -490.0, -490.0, -490.0, -490.0, -490.0, -490.0, -490.0, -487.0, -419.0, -363.0, -224.0, -77.0, 141.0, 196.0, 330.0, 372.0, 385.0, 388.0, 388.0, 388.0, 388.0, 388.0, 388.0, 388.0, 388.0, 388.0, 388.0, 388.0, 388.0, 388.0, 388.0]	[0.01459465001244098, 0.020684372808318585, 0.02785646269330755, 0.04624748695641756, 0.06250381446443498, 0.07804982783272862, 0.09581826068460941, 0.11282893415773287, 0.1278742119902745, 0.14613860176177695, 0.16248401714256033, 0.17820069706067443, 0.19602135382592678, 0.21281289152102545, 0.22780219069682062, 0.24610378575744107, 0.26267175027169287, 0.2780648464686237, 0.29598687920952216, 0.3128074301639572, 0.3278554386924952, 0.3461809270665981, 0.3626587796607055, 0.37807474518194795, 0.3960165751632303, 0.41286443278659135, 0.42784519866108894, 0.4462078923243098, 0.4626847209292464, 0.4781296997680329, 0.49599746050080284, 0.5128941287985072, 0.5279506705701351, 0.5461406497634016, 0.562663899618201, 0.5780744038056582, 0.5958244046778418, 0.6128948114346713, 0.6278069693944417, 0.6461174390860833, 0.6625024491222575, 0.6780675771879032, 0.6959728845395148, 0.7128125501913019, 0.727795364044141, 0.7461205110885203, 0.7625304384273477, 0.7780979558010586, 0.7960135031607933, 0.8128125501680188, 0.8276878441683948, 0.8461109537747689, 0.8626854036119767, 0.8781157050980255, 0.8959824418998323, 0.9128313235123642, 0.9277489427477121, 0.9461754657095298, 0.962536241102498, 0.9781832890585065, 0.9959602552116849, 1.0128463421715423, 1.0278520253486931, 1.0460689698229544, 1.0626823315978982, 1.0780989797785878, 1.0958820899832062, 1.1128791101509705, 1.127793657418806, 1.1461044684401713, 1.16265058767749, 1.1780709904851392, 1.196018623188138, 1.2127934355521575, 1.2276526868226938, 1.2461355297709815, 1.262694278266281, 1.2781593957333826, 1.2960490018012933, 1.3128412221558392, 1.3278308627195656, 1.3461249484098516, 1.3626621929579414, 1.3780754278413951, 1.3958291833405383, 1.4127866088529117, 1.427822329394985, 1.4460720418137498, 1.4626434196834452, 1.4779853158979677, 1.495875263295602, 1.5128091368242167, 1.5277759080636315, 1.546045076509472, 1.5625683263642713, 1.5779556198976934, 1.5959015459520742, 1.6127234622836113, 1.6278622653335333, 1.6460590711212717, 1.6625338517478667, 1.6780447078635916, 1.6956356475129724, 1.712763056915719, 1.7278359826887026]
29	老虎	True	inanimate	animate	right	3.266	[0.0, 0.0, 0.0, 0.0, 0.0, 0.0, 0.0, 0.0, 0.0, 0.0, 0.0, 0.0, 0.0, 0.0, 0.0, 0.0, 0.0, 0.0, 0.0, 0.0, 0.0, 0.0, 0.0, 0.0, 0.0, 0.0, 0.0, 0.0, 0.0, 0.0, 0.0, 0.0, 0.0, 0.0, 1.0, 1.0, -3.0, -10.0, -20.0, -27.0, -33.0, -34.0, -36.0, -37.0, -37.0, -39.0, -41.0, -49.0, -59.0, -73.0, -75.0, -79.0, -81.0, -82.0, -82.0, -85.0, -85.0, -85.0, -85.0, -85.0, -85.0, -85.0, -89.0, -91.0, -97.0, -102.0, -107.0, -113.0, -120.0, -129.0, -132.0, -134.0, -134.0, -134.0, -134.0, -134.0, -134.0, -134.0, -134.0, -134.0, -132.0, -127.0, -123.0, -118.0, -115.0, -115.0, -126.0, -135.0, -148.0, -155.0, -156.0, -156.0, -154.0, -151.0, -145.0, -142.0, -137.0, -133.0, -130.0, -127.0, -116.0, -105.0, -91.0, -78.0, -68.0, -58.0, -44.0, -26.0, -8.0, 7.0, 22.0, 25.0, 29.0, 29.0, 29.0, 29.0, 29.0, 29.0, 29.0, 29.0, 29.0, 29.0, 29.0, 29.0, 29.0, 29.0, 29.0, 29.0, 29.0, 29.0, 29.0, 29.0, 29.0, 29.0, 29.0, 29.0, 29.0, 29.0, 29.0, 29.0, 29.0, 29.0, 29.0, 29.0, 29.0, 29.0, 29.0, 29.0, 29.0, 29.0, 29.0, 29.0, 29.0, 29.0, 29.0, 29.0, 29.0, 29.0, 29.0, 29.0, 29.0, 29.0, 29.0, 29.0, 29.0, 29.0, 29.0, 29.0, 31.0, 41.0, 152.0, 223.0, 512.0, 749.0, 957.0, 959.0, 959.0, 959.0, 959.0, 959.0, 959.0, 958.0, 956.0, 956.0, 956.0, 956.0, 956.0, 956.0, 955.0, 949.0, 936.0, 921.0, 903.0, 897.0, 894.0, 894.0, 894.0]	[-490.0, -490.0, -490.0, -490.0, -490.0, -490.0, -490.0, -490.0, -490.0, -490.0, -490.0, -490.0, -490.0, -490.0, -490.0, -490.0, -490.0, -490.0, -490.0, -490.0, -490.0, -490.0, -490.0, -490.0, -490.0, -490.0, -490.0, -490.0, -490.0, -490.0, -490.0, -490.0, -490.0, -490.0, -488.0, -476.0, -464.0, -450.0, -434.0, -423.0, -415.0, -413.0, -411.0, -409.0, -409.0, -405.0, -402.0, -390.0, -377.0, -361.0, -358.0, -355.0, -352.0, -351.0, -351.0, -347.0, -347.0, -347.0, -347.0, -347.0, -347.0, -347.0, -341.0, -339.0, -331.0, -325.0, -318.0, -310.0, -302.0, -292.0, -287.0, -285.0, -285.0, -285.0, -285.0, -285.0, -285.0, -285.0, -285.0, -285.0, -289.0, -296.0, -304.0, -313.0, -327.0, -349.0, -400.0, -418.0, -463.0, -484.0, -506.0, -514.0, -524.0, -528.0, -537.0, -539.0, -539.0, -539.0, -539.0, -539.0, -539.0, -539.0, -539.0, -539.0, -539.0, -539.0, -539.0, -539.0, -539.0, -539.0, -539.0, -539.0, -539.0, -539.0, -539.0, -539.0, -539.0, -539.0, -539.0, -539.0, -539.0, -539.0, -539.0, -539.0, -539.0, -539.0, -539.0, -539.0, -538.0, -538.0, -538.0, -537.0, -537.0, -537.0, -537.0, -537.0, -536.0, -536.0, -536.0, -536.0, -536.0, -536.0, -536.0, -536.0, -536.0, -536.0, -536.0, -535.0, -534.0, -534.0, -534.0, -534.0, -534.0, -534.0, -534.0, -534.0, -534.0, -534.0, -534.0, -534.0, -534.0, -534.0, -533.0, -533.0, -533.0, -533.0, -533.0, -533.0, -530.0, -516.0, -423.0, -372.0, -166.0, -5.0, 149.0, 259.0, 319.0, 343.0, 352.0, 356.0, 359.0, 359.0, 359.0, 359.0, 359.0, 359.0, 359.0, 359.0, 360.0, 368.0, 384.0, 399.0, 411.0, 414.0, 416.0, 416.0, 416.0]	[0.012272561260033399, 0.016490413690917194, 0.022705747047439218, 0.04111793398624286, 0.057992756948806345, 0.07290047756396234, 0.09127238718792796, 0.10776833043200895, 0.12314743199385703, 0.141092675330583, 0.15790503431344405, 0.17289501620689407, 0.1911693045985885, 0.20772088516969234, 0.22309964534360915, 0.2411240779911168, 0.25796988763613626, 0.27290832821745425, 0.2912133365753107, 0.3077427304815501, 0.3231508453027345, 0.34110393933951855, 0.357928927638568, 0.3729424615157768, 0.39118466462241486, 0.40779631974874064, 0.4231781519483775, 0.4411848352756351, 0.45796783961122856, 0.47287658421555534, 0.4911310753086582, 0.5077864211052656, 0.5231098853400908, 0.5408984568202868, 0.5578698770259507, 0.5728721469058655, 0.5911297099664807, 0.607729418494273, 0.6230962320114486, 0.6411206646589562, 0.6580275729065761, 0.6729462161893025, 0.6911563339526765, 0.7076468158629723, 0.723256999917794, 0.7408571555279195, 0.757799903745763, 0.7726407230948098, 0.7910525687038898, 0.807507210643962, 0.8230822373880073, 0.8410636620246805, 0.8578371090698056, 0.8728950162185356, 0.8911174219683744, 0.9076911892043427, 0.9230958907282911, 0.9410455714096315, 0.9579664742923342, 0.9728666855371557, 0.9911532619735226, 1.0077560424688272, 1.0231238800333813, 1.041036355367396, 1.0578128744382411, 1.072891944204457, 1.0911290273070335, 1.1077355624875054, 1.1231617679586634, 1.141053763392847, 1.157827551709488, 1.1727987602935173, 1.1911983179161325, 1.2077154238359071, 1.2232023866381496, 1.2410264567588456, 1.2578087784349918, 1.2728810215485282, 1.291129027318675, 1.3077062078518793, 1.3231979492702521, 1.3410363554139622, 1.357783519779332, 1.3728854588698596, 1.3911222006427124, 1.4077331731677987, 1.423041277390439, 1.4410906273406, 1.4578842130140401, 1.4728718055412173, 1.4912027552491054, 1.5077737917890772, 1.5232078479602933, 1.5409994914080016, 1.5578784103272483, 1.5728769255802035, 1.591139949974604, 1.6077427304699086, 1.6230935013736598, 1.6410486433887854, 1.657777375774458, 1.6728837522096, 1.6911443872959353, 1.7077464851317927, 1.7230467387707904, 1.7411513846018352, 1.7578330130781978, 1.7729301734943874, 1.7911542859510519, 1.8077188371680677, 1.8231143226730637, 1.8410865313489921, 1.864554202009458, 1.8728598589077592, 1.8911877365899272, 1.9077754984609783, 1.9231423119781539, 1.9410882380325347, 1.957823797070887, 1.9726342377834953, 1.9909972727764398, 2.0077283944701776, 2.022817704244517, 2.0411834699334577, 2.0578207250800915, 2.073112445359584, 2.0908668835181743, 2.1078789223684, 2.1228716348996386, 2.141139437968377, 2.1577374397893436, 2.1730636347201653, 2.1910604193690233, 2.2078847250086255, 2.2228887015371583, 2.241196440591011, 2.25774255982833, 2.273162962635979, 2.2910836299997754, 2.3079239783110097, 2.3243793029687367, 2.3411848352407105, 2.357782495790161, 2.3731196133303456, 2.3910778273711912, 2.407905887637753, 2.4228665148839355, 2.4410998433595523, 2.457698527839966, 2.473076946742367, 2.4910737313330173, 2.5078608316835016, 2.5229593574767932, 2.5412094112252817, 2.557790346443653, 2.5732097252621315, 2.5910747553571127, 2.607919882342685, 2.622899624228012, 2.641157187288627, 2.6578200423973612, 2.673120978695806, 2.691088067367673, 2.7079379729693756, 2.7229146428289823, 2.741144899278879, 2.7577398291323334, 2.773074216034729, 2.7909501687972806, 2.8079369489569217, 2.8228907495504245, 2.841143875324633, 2.8576524478849024, 2.873090941400733, 2.8910317473928444, 2.9079161276458763, 2.9229238588595763, 2.9411431926419027, 2.957697845180519, 2.9730185787775554, 2.9910542753641494, 3.007857077056542, 3.022634749766439, 3.0411780085996725, 3.05783335439628, 3.073179346625693, 3.091118104639463, 3.1079762022709474, 3.1229518481413834, 3.141187907254789, 3.1576937491772696, 3.173059197375551, 3.1909092088462785, 3.207773450470995, 3.2226777577307075, 3.241012462065555, 3.2577186665148474]
