trialIndex	stimulus	isAnimate	left_option	right_option	response	response_time	xTrajectory	yTrajectory	tTrajectory
0	雪花	False	inanimate	animate	left	1.886	[0.0, 0.0, 0.0, 0.0, 0.0, 0.0, 0.0, 0.0, -3.0, -4.0, -4.0, -4.0, -5.0, -9.0, -20.0, -37.0, -55.0, -85.0, -119.0, -164.0, -202.0, -250.0, -292.0, -338.0, -348.0, -361.0, -363.0, -363.0, -353.0, -316.0, -260.0, -168.0, -73.0, 29.0, 120.0, 204.0, 220.0, 236.0, 239.0, 241.0, 242.0, 243.0, 244.0, 246.0, 249.0, 254.0, 262.0, 281.0, 288.0, 318.0, 340.0, 359.0, 377.0, 387.0, 390.0, 390.0, 390.0, 388.0, 354.0, 283.0, 220.0, -10.0, -212.0, -414.0, -601.0, -739.0, -820.0, -832.0, -832.0, -810.0, -742.0, -550.0, -464.0, -186.0, -2.0, 181.0, 330.0, 438.0, 497.0, 520.0, 524.0, 525.0, 525.0, 514.0, 507.0, 474.0, 430.0, 354.0, 251.0, 116.0, -24.0, -173.0, -321.0, -448.0, -556.0, -676.0, -700.0, -751.0, -772.0, -782.0, -786.0, -786.0, -787.0, -789.0, -802.0, -820.0, -841.0, -845.0, -845.0, -845.0, -846.0, -850.0]	[-490.0, -490.0, -490.0, -490.0, -490.0, -490.0, -490.0, -491.0, -490.0, -489.0, -489.0, -489.0, -488.0, -479.0, -466.0, -451.0, -436.0, -415.0, -391.0, -363.0, -338.0, -309.0, -286.0, -259.0, -253.0, -239.0, -233.0, -225.0, -213.0, -194.0, -169.0, -130.0, -101.0, -54.0, -17.0, 24.0, 35.0, 52.0, 61.0, 72.0, 82.0, 89.0, 99.0, 109.0, 119.0, 133.0, 154.0, 186.0, 199.0, 241.0, 272.0, 296.0, 320.0, 336.0, 345.0, 351.0, 356.0, 359.0, 365.0, 365.0, 369.0, 376.0, 400.0, 432.0, 456.0, 477.0, 501.0, 505.0, 510.0, 518.0, 529.0, 531.0, 531.0, 531.0, 529.0, 512.0, 486.0, 470.0, 456.0, 446.0, 443.0, 442.0, 438.0, 429.0, 425.0, 417.0, 411.0, 404.0, 404.0, 404.0, 404.0, 404.0, 404.0, 404.0, 404.0, 404.0, 404.0, 403.0, 401.0, 399.0, 398.0, 398.0, 397.0, 397.0, 395.0, 394.0, 392.0, 392.0, 392.0, 392.0, 392.0, 392.0]	[0.006429624394513667, 0.012016565538942814, 0.02861389028839767, 0.04625330527778715, 0.06286837952211499, 0.07805087836459279, 0.09624018101021647, 0.11260266869794577, 0.12801693275105208, 0.14622261945623904, 0.16282881901133806, 0.1780782191781327, 0.19620266859419644, 0.2128508520545438, 0.22800331353209913, 0.24631071754265577, 0.26268412778154016, 0.27806528261862695, 0.2962487826589495, 0.3126607636222616, 0.32802246243227273, 0.34623224509414285, 0.3628821352031082, 0.3780898927943781, 0.39676388853695244, 0.4129219176247716, 0.42808666708879173, 0.44611588458064944, 0.4628364306408912, 0.47797728690784425, 0.49628912820480764, 0.5127386557869613, 0.5280430106213316, 0.5461749694077298, 0.5628480701707304, 0.5780530970077962, 0.5961734504671767, 0.6128352872328833, 0.6278969541890547, 0.6462934460723773, 0.6628293310059234, 0.6780384537996724, 0.6964144657831639, 0.7126250601140782, 0.7280458095483482, 0.7462159976130351, 0.7628484797896817, 0.7780221039429307, 0.7966694757342339, 0.8129578940570354, 0.8280475503997877, 0.8462160316994414, 0.8628864018246531, 0.8780456901295111, 0.8962588860886171, 0.9125995284412056, 0.92791514727287, 0.9462017298210412, 0.9629686973057687, 0.9781556335510686, 0.9962473149644211, 1.012854197062552, 1.028060248005204, 1.046172067988664, 1.0629345980705693, 1.077883625170216, 1.0961408531293273, 1.1126931220060214, 1.1278882501646876, 1.1462850833777338, 1.1629305362002924, 1.1781376111321151, 1.196882945485413, 1.2129368679597974, 1.2281070788158104, 1.2461499496130273, 1.2626131305005401, 1.2780915652401745, 1.2961648147320375, 1.3123532223980874, 1.3279760411242023, 1.34610561048612, 1.3626909885788336, 1.37801104481332, 1.395893489010632, 1.4127573949517682, 1.4281010031700134, 1.446110423305072, 1.4628729533869773, 1.4779141403269023, 1.4958819177700207, 1.5124891413142905, 1.5279982959618792, 1.5461142120184377, 1.56273065158166, 1.5785627074074, 1.5962161170318723, 1.6126595006790012, 1.6280068634077907, 1.646091035567224, 1.6624026645440608, 1.6780858990969136, 1.69604684994556, 1.7125219774898142, 1.7280277189565822, 1.746237842948176, 1.7626668905140832, 1.7780671599321067, 1.7962772839237005, 1.8128073661355302, 1.8278458224376664, 1.8460521918023005]
1	太阳	False	animate	inanimate	right	1.011	[0.0, 0.0, 1.0, 1.0, 1.0, 1.0, 1.0, 1.0, 1.0, 1.0, 2.0, 3.0, 5.0, 8.0, 9.0, 9.0, 9.0, 9.0, 9.0, 9.0, 6.0, -4.0, -13.0, -18.0, -19.0, -19.0, -10.0, 8.0, 57.0, 142.0, 258.0, 468.0, 601.0, 650.0, 765.0, 796.0, 804.0, 804.0, 804.0, 804.0, 804.0, 805.0, 805.0, 791.0, 776.0, 758.0, 729.0, 682.0, 635.0, 610.0, 606.0, 611.0, 634.0, 693.0, 717.0, 772.0, 794.0, 802.0, 803.0, 803.0, 803.0]	[-490.0, -490.0, -491.0, -491.0, -491.0, -491.0, -491.0, -491.0, -491.0, -491.0, -489.0, -485.0, -476.0, -464.0, -431.0, -402.0, -347.0, -323.0, -266.0, -189.0, -141.0, -101.0, -65.0, -37.0, -9.0, 11.0, 29.0, 46.0, 68.0, 96.0, 129.0, 164.0, 189.0, 203.0, 233.0, 238.0, 239.0, 239.0, 239.0, 239.0, 239.0, 239.0, 241.0, 249.0, 256.0, 260.0, 268.0, 281.0, 298.0, 309.0, 315.0, 331.0, 351.0, 396.0, 412.0, 456.0, 479.0, 489.0, 492.0, 492.0, 492.0]	[0.004441017517820001, 0.011318198055960238, 0.023636229103431106, 0.04206412367057055, 0.0587129897903651, 0.07390914193820208, 0.09211585263255984, 0.10874731082003564, 0.12368268449790776, 0.14213788567576557, 0.15884648519568145, 0.17396549612749368, 0.19210632948670536, 0.20876372896600515, 0.22385645715985447, 0.24208671983797103, 0.2584993834607303, 0.27392457018140703, 0.292081787600182, 0.308881864300929, 0.3240032645408064, 0.3421604819595814, 0.3588513321010396, 0.37401608168147504, 0.3919401684543118, 0.4083637547446415, 0.4238476507598534, 0.44192124158143997, 0.458648614352569, 0.473960819770582, 0.4918862719787285, 0.5084750634850934, 0.5238712369464338, 0.5417727957246825, 0.5586585471173748, 0.5737608327763155, 0.5920064554084092, 0.6087181267794222, 0.6239289563382044, 0.6421998377190903, 0.6587155838496983, 0.6739602054003626, 0.6920675880974159, 0.7087492222199216, 0.7240924891084433, 0.7420896212570369, 0.7587108393199742, 0.7739110875409096, 0.7921430568676442, 0.8085656191688031, 0.8239935366436839, 0.8419667753623798, 0.8588313640793785, 0.8740165936760604, 0.8919423870975152, 0.9088015145389363, 0.9239823067327961, 0.9421531774569303, 0.9588126249145716, 0.9739913691300899, 0.9921892051352188]
2	螳螂	True	inanimate	animate	right	1.512	[0.0, 0.0, 0.0, 0.0, 0.0, 0.0, 0.0, -1.0, -1.0, -1.0, 3.0, 4.0, 4.0, 4.0, 1.0, -5.0, -7.0, -7.0, -7.0, 5.0, 16.0, 44.0, 132.0, 234.0, 352.0, 453.0, 552.0, 627.0, 675.0, 705.0, 717.0, 721.0, 722.0, 722.0, 722.0, 722.0, 720.0, 712.0, 690.0, 657.0, 611.0, 575.0, 547.0, 510.0, 480.0, 423.0, 344.0, 252.0, 138.0, 17.0, -123.0, -269.0, -404.0, -542.0, -661.0, -821.0, -898.0, -923.0, -953.0, -955.0, -955.0, -955.0, -955.0, -951.0, -923.0, -871.0, -773.0, -541.0, -317.0, -194.0, 190.0, 435.0, 651.0, 805.0, 910.0, 941.0, 944.0, 945.0, 939.0, 930.0, 924.0, 921.0, 903.0, 891.0, 876.0, 865.0, 853.0, 847.0, 843.0, 843.0, 843.0]	[-490.0, -490.0, -490.0, -490.0, -490.0, -490.0, -490.0, -484.0, -482.0, -471.0, -449.0, -432.0, -414.0, -390.0, -364.0, -334.0, -307.0, -278.0, -250.0, -207.0, -184.0, -141.0, -68.0, -5.0, 63.0, 119.0, 178.0, 223.0, 254.0, 275.0, 285.0, 291.0, 295.0, 296.0, 297.0, 298.0, 301.0, 304.0, 310.0, 320.0, 332.0, 344.0, 355.0, 372.0, 383.0, 396.0, 410.0, 421.0, 437.0, 449.0, 449.0, 449.0, 449.0, 451.0, 451.0, 453.0, 457.0, 457.0, 458.0, 458.0, 458.0, 458.0, 458.0, 460.0, 465.0, 466.0, 466.0, 466.0, 460.0, 444.0, 390.0, 360.0, 328.0, 305.0, 295.0, 295.0, 295.0, 296.0, 301.0, 307.0, 311.0, 315.0, 329.0, 338.0, 351.0, 361.0, 371.0, 376.0, 379.0, 379.0, 379.0]	[0.004652643925510347, 0.011293621850199997, 0.024373508524149656, 0.04235220863483846, 0.05883689352776855, 0.07403680041898042, 0.09252408694010228, 0.10908318241126835, 0.12433428934309632, 0.14226964011322707, 0.15910794620867819, 0.1743764610728249, 0.19226982782129198, 0.20892825128976256, 0.22411894227843732, 0.24225124227814376, 0.2590956923086196, 0.27435021253768355, 0.29247636860236526, 0.3091238694032654, 0.32410839502699673, 0.3424813349265605, 0.3591042597545311, 0.374360486632213, 0.3923784401267767, 0.4091290235519409, 0.4244340610457584, 0.4422663291916251, 0.4587025447981432, 0.47438577946741134, 0.49237267149146646, 0.5089973030844703, 0.5243023405782878, 0.5423158566700295, 0.558822728227824, 0.5743284695781767, 0.5923955750185996, 0.6092079397058114, 0.6242412760620937, 0.6424298960482702, 0.6593234980246052, 0.6745104342699051, 0.6926768677076325, 0.709379323059693, 0.7244915073970333, 0.7426415567751974, 0.7592579962220043, 0.7745121751213446, 0.7926444751210511, 0.8093500025570393, 0.8245127041591331, 0.8424596602562815, 0.8593160570599139, 0.8745046998374164, 0.8925837519345805, 0.9093435513786972, 0.9242499117972329, 0.9423985958565027, 0.9593478351598606, 0.974512584740296, 0.9924987941049039, 1.0092957988381386, 1.024477956467308, 1.0424344699131325, 1.0593185146572068, 1.0744979415321723, 1.0924452389590442, 1.1093374756164849, 1.1245083692483604, 1.142413682769984, 1.159333226038143, 1.1745249408995733, 1.192711854353547, 1.2094286457868293, 1.224386888789013, 1.2427721166750416, 1.2593810468679294, 1.274580271099694, 1.2927593337371945, 1.309382258565165, 1.3244763521943241, 1.3428240334615111, 1.359397465013899, 1.3745236438699067, 1.3924818640807644, 1.409364543389529, 1.4242961624404415, 1.4424004731699824, 1.4593637071084231, 1.474251635489054, 1.4927102500805631]
3	将军	True	inanimate	animate	right	1.197	[0.0, 1.0, 1.0, 1.0, 1.0, 1.0, 1.0, 1.0, 1.0, 1.0, 1.0, 1.0, 1.0, 1.0, 1.0, 1.0, 2.0, 3.0, 9.0, 21.0, 40.0, 64.0, 99.0, 137.0, 170.0, 228.0, 266.0, 281.0, 329.0, 363.0, 390.0, 419.0, 445.0, 473.0, 504.0, 536.0, 563.0, 581.0, 594.0, 597.0, 601.0, 603.0, 607.0, 611.0, 619.0, 627.0, 635.0, 642.0, 647.0, 651.0, 651.0, 651.0, 651.0, 651.0, 651.0, 651.0, 651.0, 651.0, 651.0, 651.0, 651.0, 652.0, 656.0, 658.0, 674.0, 686.0, 698.0, 712.0, 723.0, 727.0, 727.0, 727.0, 727.0]	[-490.0, -490.0, -490.0, -490.0, -490.0, -490.0, -490.0, -490.0, -490.0, -490.0, -490.0, -490.0, -490.0, -490.0, -490.0, -490.0, -485.0, -474.0, -435.0, -389.0, -339.0, -287.0, -237.0, -187.0, -143.0, -77.0, -31.0, -9.0, 52.0, 93.0, 127.0, 166.0, 202.0, 239.0, 276.0, 316.0, 348.0, 372.0, 400.0, 408.0, 429.0, 440.0, 448.0, 454.0, 459.0, 463.0, 466.0, 468.0, 469.0, 469.0, 469.0, 469.0, 469.0, 469.0, 469.0, 469.0, 469.0, 469.0, 469.0, 469.0, 469.0, 467.0, 453.0, 449.0, 432.0, 424.0, 418.0, 413.0, 411.0, 411.0, 411.0, 411.0, 411.0]	[0.013174708932638168, 0.01983787352219224, 0.026805165922269225, 0.04304238432087004, 0.059731186483986676, 0.07487135997507721, 0.09296645480208099, 0.10969963017851114, 0.12464456120505929, 0.14295947446953505, 0.15961687394883484, 0.1744983170647174, 0.19290265964809805, 0.20952182973269373, 0.22476269665639848, 0.24275505007244647, 0.25958448147866875, 0.2747878016671166, 0.29297949373722076, 0.30965020519215614, 0.3245814827969298, 0.3427526948507875, 0.3594257957302034, 0.3747786198509857, 0.392940615885891, 0.40957992465700954, 0.42456479161046445, 0.4429425102425739, 0.45938384579494596, 0.47469161404296756, 0.49284234608057886, 0.509536609519273, 0.5246402603806928, 0.5426322725834325, 0.5595258745597675, 0.5748015573481098, 0.5929328334750608, 0.6095373262651265, 0.6247768278699368, 0.6429582798155025, 0.6592845862032846, 0.6747811115346849, 0.692871427629143, 0.7095964110922068, 0.7245693313889205, 0.7426712528103963, 0.7597788707353175, 0.7747985536698252, 0.7928049018373713, 0.8095937145408243, 0.8247792854672298, 0.8426098469644785, 0.8595679609570652, 0.8748378411401063, 0.8928325838642195, 0.9095009060110897, 0.9248513408238068, 0.9428177529480308, 0.9595161124598235, 0.9747580032562837, 0.9928329593967646, 1.009460321511142, 1.0247670656535774, 1.042871717712842, 1.059648583875969, 1.0747566721402109, 1.0928961401805282, 1.1094378277193755, 1.1248046464752406, 1.142801095964387, 1.159496383392252, 1.174739639624022, 1.1929856035858393]
4	绳子	False	animate	inanimate	right	1.102	[0.0, 0.0, 0.0, 0.0, 0.0, 0.0, 1.0, 2.0, 5.0, 14.0, 29.0, 48.0, 65.0, 99.0, 118.0, 126.0, 161.0, 184.0, 210.0, 240.0, 270.0, 310.0, 361.0, 420.0, 478.0, 562.0, 603.0, 618.0, 649.0, 662.0, 667.0, 670.0, 670.0, 670.0, 670.0, 670.0, 670.0, 670.0, 670.0, 670.0, 670.0, 670.0, 670.0, 670.0, 670.0, 670.0, 670.0, 672.0, 673.0, 673.0, 673.0, 673.0, 674.0, 674.0, 675.0, 675.0, 675.0, 676.0, 678.0, 682.0, 684.0, 686.0, 686.0, 686.0, 686.0, 686.0, 686.0]	[-490.0, -490.0, -490.0, -490.0, -490.0, -490.0, -490.0, -490.0, -486.0, -473.0, -453.0, -424.0, -390.0, -283.0, -218.0, -188.0, -101.0, -47.0, 5.0, 58.0, 104.0, 161.0, 223.0, 288.0, 343.0, 416.0, 451.0, 467.0, 503.0, 518.0, 525.0, 531.0, 531.0, 531.0, 531.0, 531.0, 531.0, 531.0, 531.0, 531.0, 531.0, 531.0, 530.0, 529.0, 529.0, 527.0, 526.0, 526.0, 526.0, 526.0, 526.0, 526.0, 525.0, 525.0, 525.0, 524.0, 523.0, 521.0, 518.0, 515.0, 513.0, 510.0, 510.0, 510.0, 510.0, 510.0, 510.0]	[0.008104887674562633, 0.014773513656109571, 0.01998567092232406, 0.03283584036398679, 0.04946729855146259, 0.06464638409670442, 0.08265443879645318, 0.09944256895687431, 0.11435268400236964, 0.13279423187486827, 0.1494693806162104, 0.16477066348306835, 0.18284323019906878, 0.19942997372709215, 0.21459028590470552, 0.23279017000459135, 0.24941036407835782, 0.26462733768858016, 0.2828565763775259, 0.2994143065297976, 0.31439507752656937, 0.3327168175019324, 0.3493929902324453, 0.36458675318863243, 0.38272280793171376, 0.3993686019675806, 0.4146033248398453, 0.4328308568801731, 0.4494490030920133, 0.465266722952947, 0.4843902544816956, 0.5000468650832772, 0.5146357857156545, 0.5328414723044261, 0.5497139117214829, 0.5648390665883198, 0.5829013934126124, 0.5997458434430882, 0.6147938570939004, 0.6330893143313006, 0.6497494444483891, 0.6647452341858298, 0.6831345580285415, 0.6997199362376705, 0.7145843126345426, 0.73285724199377, 0.7495177134405822, 0.7648957961937413, 0.7831257175421342, 0.79971553303767, 0.8148526346776634, 0.8329419266665354, 0.8498065153835341, 0.8646210571750998, 0.8830803543096408, 0.8997138604754582, 0.9146209035534412, 0.9330696194665506, 0.9495078830514103, 0.9647992672398686, 0.983175961766392, 0.9997149186674505, 1.0146219616290182, 1.0331287041772157, 1.0495580930728465, 1.0648197813425213, 1.0832094465149567]
5	工人	True	animate	inanimate	left	1.57	[0.0, 0.0, 0.0, 0.0, 0.0, 0.0, 2.0, 6.0, 9.0, 14.0, 23.0, 38.0, 61.0, 104.0, 129.0, 145.0, 191.0, 230.0, 271.0, 305.0, 333.0, 360.0, 395.0, 442.0, 491.0, 562.0, 601.0, 620.0, 669.0, 697.0, 716.0, 732.0, 742.0, 751.0, 755.0, 758.0, 760.0, 760.0, 760.0, 760.0, 760.0, 745.0, 704.0, 615.0, 504.0, 409.0, 333.0, 301.0, 300.0, 300.0, 301.0, 308.0, 320.0, 337.0, 359.0, 390.0, 422.0, 441.0, 444.0, 440.0, 414.0, 302.0, 167.0, 83.0, -211.0, -416.0, -610.0, -766.0, -876.0, -940.0, -960.0, -960.0, -960.0, -960.0, -960.0, -960.0, -960.0, -960.0, -960.0, -960.0, -960.0, -960.0, -957.0, -944.0, -924.0, -898.0, -878.0, -868.0, -836.0, -817.0, -803.0, -795.0, -791.0, -791.0, -791.0]	[-490.0, -490.0, -490.0, -490.0, -490.0, -490.0, -488.0, -480.0, -471.0, -455.0, -432.0, -406.0, -357.0, -261.0, -207.0, -175.0, -86.0, -24.0, 29.0, 72.0, 104.0, 127.0, 158.0, 194.0, 226.0, 273.0, 295.0, 306.0, 337.0, 356.0, 369.0, 380.0, 389.0, 396.0, 400.0, 402.0, 402.0, 402.0, 402.0, 402.0, 402.0, 402.0, 402.0, 402.0, 402.0, 402.0, 402.0, 402.0, 402.0, 402.0, 404.0, 405.0, 408.0, 410.0, 413.0, 416.0, 416.0, 416.0, 415.0, 411.0, 404.0, 389.0, 389.0, 389.0, 389.0, 389.0, 389.0, 403.0, 414.0, 426.0, 429.0, 431.0, 431.0, 431.0, 431.0, 431.0, 431.0, 431.0, 431.0, 431.0, 431.0, 431.0, 431.0, 431.0, 431.0, 431.0, 426.0, 425.0, 421.0, 417.0, 414.0, 414.0, 414.0, 414.0, 414.0]	[0.015577353071421385, 0.01985698821954429, 0.029830060433596373, 0.04799990716855973, 0.06467164261266589, 0.07987462147139013, 0.09804378554690629, 0.11471586232073605, 0.12962666002567858, 0.1480211039306596, 0.16468362347222865, 0.1797121810959652, 0.19803938234690577, 0.21474217914510518, 0.2299833872821182, 0.24804400745779276, 0.2646689802641049, 0.27990677510388196, 0.29808481375221163, 0.31464049592614174, 0.3297311762580648, 0.34813074010889977, 0.36478779825847596, 0.3799825852038339, 0.3980363786686212, 0.41490199125837535, 0.4301892794901505, 0.44822703022509813, 0.464946893742308, 0.4800713659496978, 0.4982948019169271, 0.5149924787692726, 0.5298268178012222, 0.5482656350359321, 0.5649230345152318, 0.5800475067226216, 0.5982166707981378, 0.6148856756044552, 0.6299944465281442, 0.6482974131358787, 0.6648708446882665, 0.6800734822172672, 0.6981893982738256, 0.714953635004349, 0.7298279100796208, 0.7481950473738834, 0.7647070388775319, 0.7798280977876857, 0.7983577096601948, 0.815071087796241, 0.8298415974713862, 0.8483729159925133, 0.8649268915178254, 0.8800465851090848, 0.8982635358115658, 0.9149851059773937, 0.9298307090066373, 0.9483142409007996, 0.9648552457801998, 0.980235717841424, 0.9984687111573294, 1.0150854920502752, 1.0299345083767548, 1.0478975072037429, 1.0645351093262434, 1.0798613094957545, 1.0978901856578887, 1.114699478377588, 1.1296631826553494, 1.1482197598088533, 1.1648761352989823, 1.1801702501252294, 1.1986592434113845, 1.2152954802149907, 1.2301018299767748, 1.2484314205357805, 1.2653495986014605, 1.2801364923361689, 1.2981298697413877, 1.3150101597420871, 1.330114834709093, 1.3480747615685686, 1.3646946143126115, 1.3799310438334942, 1.3979821066604927, 1.4144698635209352, 1.429922015639022, 1.4477208331227303, 1.4647001097910106, 1.4796074941987172, 1.4982275592628866, 1.5145258762640879, 1.5300189884146675, 1.5481471924576908, 1.5648028851719573]
6	乐队	True	inanimate	animate	right	0.769	[0.0, 0.0, 0.0, 0.0, 0.0, 0.0, 0.0, 0.0, 0.0, 0.0, 5.0, 17.0, 26.0, 48.0, 66.0, 83.0, 103.0, 129.0, 163.0, 205.0, 245.0, 286.0, 354.0, 416.0, 457.0, 552.0, 610.0, 655.0, 690.0, 710.0, 724.0, 736.0, 741.0, 741.0, 743.0, 743.0, 743.0, 743.0, 743.0, 743.0, 743.0, 744.0, 745.0, 746.0, 747.0, 747.0, 747.0]	[-490.0, -490.0, -490.0, -490.0, -490.0, -490.0, -490.0, -490.0, -490.0, -484.0, -461.0, -426.0, -406.0, -348.0, -310.0, -253.0, -190.0, -137.0, -93.0, -49.0, -17.0, 12.0, 54.0, 98.0, 125.0, 191.0, 233.0, 270.0, 299.0, 322.0, 337.0, 352.0, 360.0, 362.0, 365.0, 365.0, 365.0, 365.0, 365.0, 365.0, 365.0, 366.0, 369.0, 374.0, 378.0, 379.0, 379.0]	[0.010541323688812554, 0.015157171990722418, 0.021012059645727277, 0.03775649913586676, 0.05444905592594296, 0.06965749606024474, 0.08788400411140174, 0.10447484359610826, 0.11963447311427444, 0.13775994651950896, 0.15451565000694245, 0.16942508227657527, 0.1878092862898484, 0.2044991123257205, 0.2196092486847192, 0.23771663138177246, 0.2544020201312378, 0.2693653831956908, 0.28782945906277746, 0.3044209812069312, 0.3196533147711307, 0.3377275881357491, 0.3544122943421826, 0.369641897152178, 0.3877574718790129, 0.4044862099690363, 0.4195837168954313, 0.43765730771701783, 0.45427340583410114, 0.46934599545784295, 0.4876257514115423, 0.5042469695908949, 0.5196383643196896, 0.5376965950708836, 0.5544301118934527, 0.5694084935821593, 0.5878043028060347, 0.6042094570584595, 0.6197233904385939, 0.6376010559033602, 0.6545543912798166, 0.6694515356794, 0.6876220650738105, 0.7044774377718568, 0.7195015579927713, 0.7376287380466238, 0.754258148255758]
7	观众	True	inanimate	animate	right	0.9	[0.0, 1.0, 1.0, 1.0, 3.0, 3.0, 3.0, 3.0, 7.0, 13.0, 16.0, 16.0, 16.0, 19.0, 24.0, 26.0, 47.0, 75.0, 110.0, 158.0, 210.0, 266.0, 323.0, 373.0, 429.0, 492.0, 557.0, 620.0, 697.0, 733.0, 754.0, 768.0, 780.0, 792.0, 803.0, 811.0, 815.0, 817.0, 817.0, 817.0, 817.0, 817.0, 817.0, 814.0, 813.0, 809.0, 805.0, 797.0, 795.0, 788.0, 786.0, 786.0, 785.0, 785.0, 785.0]	[-490.0, -490.0, -490.0, -490.0, -490.0, -490.0, -490.0, -490.0, -488.0, -477.0, -469.0, -462.0, -455.0, -436.0, -409.0, -394.0, -316.0, -234.0, -145.0, -65.0, 6.0, 75.0, 138.0, 188.0, 235.0, 278.0, 326.0, 368.0, 411.0, 429.0, 440.0, 451.0, 459.0, 467.0, 476.0, 481.0, 484.0, 485.0, 485.0, 485.0, 485.0, 485.0, 485.0, 484.0, 483.0, 481.0, 478.0, 472.0, 471.0, 466.0, 464.0, 464.0, 463.0, 463.0, 463.0]	[0.015071497415192425, 0.02017511078156531, 0.0287388184806332, 0.0468513211235404, 0.06347356329206377, 0.07847481430508196, 0.0968429755885154, 0.11359458300285041, 0.12846988206729293, 0.14683838468044996, 0.16353333077859133, 0.1787189015885815, 0.1968337936559692, 0.21349733718670905, 0.2286740334238857, 0.24695617868565023, 0.26351117820013314, 0.27858410915359855, 0.296640291926451, 0.31342910462990403, 0.32852592889685184, 0.3466193169588223, 0.36339174571912736, 0.37832780205644667, 0.3966495420318097, 0.4130946323275566, 0.42861573363188654, 0.44677022041287273, 0.4634405905380845, 0.4786602947860956, 0.4967127228155732, 0.5135035836137831, 0.5284724078373984, 0.5467723024776205, 0.5634614459704608, 0.5785975235048681, 0.5969110715668648, 0.6135821243515238, 0.628767695161514, 0.6472273337421939, 0.6638816612539813, 0.6787026883102953, 0.6969503589207307, 0.7138504462782294, 0.7287103853886947, 0.747221565223299, 0.7638106980593875, 0.7789310743100941, 0.7971681636990979, 0.8138962191296741, 0.8288565101101995, 0.8471506020287052, 0.8638578362297267, 0.8789416897343472, 0.8970050405478105]
8	公路	False	animate	inanimate	right	0.903	[0.0, 0.0, 0.0, 0.0, 0.0, 0.0, 0.0, 0.0, -1.0, -2.0, -4.0, -6.0, -12.0, -27.0, -49.0, -78.0, -117.0, -178.0, -191.0, -208.0, -208.0, -194.0, -156.0, -98.0, -16.0, 83.0, 191.0, 312.0, 466.0, 540.0, 572.0, 627.0, 649.0, 658.0, 672.0, 680.0, 692.0, 705.0, 722.0, 734.0, 740.0, 742.0, 742.0, 742.0, 742.0, 742.0, 742.0, 742.0, 742.0, 742.0, 742.0, 742.0, 742.0, 742.0, 742.0]	[-490.0, -490.0, -490.0, -490.0, -490.0, -490.0, -490.0, -492.0, -492.0, -492.0, -492.0, -492.0, -487.0, -470.0, -439.0, -369.0, -278.0, -146.0, -110.0, -33.0, 5.0, 47.0, 106.0, 160.0, 223.0, 277.0, 328.0, 381.0, 443.0, 466.0, 475.0, 483.0, 487.0, 487.0, 487.0, 486.0, 479.0, 472.0, 465.0, 461.0, 460.0, 459.0, 459.0, 459.0, 459.0, 459.0, 459.0, 459.0, 459.0, 459.0, 459.0, 459.0, 459.0, 459.0, 459.0]	[0.011980384355410933, 0.017089117784053087, 0.02241152571514249, 0.04052846576087177, 0.0571425158996135, 0.07254005467984825, 0.09068464278243482, 0.1072918662102893, 0.12230301590170711, 0.1406404571607709, 0.1570875954348594, 0.17250868619885296, 0.19070857018232346, 0.20719462039414793, 0.2225303779123351, 0.24076814984437078, 0.25746412004809827, 0.27273092814721167, 0.2908768815686926, 0.3074707930209115, 0.3227693452499807, 0.34091051993891597, 0.35752013279125094, 0.3727063863771036, 0.39067006774712354, 0.4072810459183529, 0.42266936879605055, 0.4408542341552675, 0.4574105989886448, 0.4727282657986507, 0.4907520218985155, 0.5071503494400531, 0.5224830349907279, 0.5406542470445856, 0.5571536092320457, 0.5726276066852733, 0.5907694640336558, 0.6071285383077338, 0.6225639650365338, 0.6406720305094495, 0.6573420593049377, 0.6726167181041092, 0.6907165915472433, 0.7070616711862385, 0.7226268044905737, 0.740714389947243, 0.7573130801320076, 0.7723802083637565, 0.7906920496607199, 0.8073262384859845, 0.8224490040447563, 0.8407857626443729, 0.8573158448562026, 0.8725887970067561, 0.8907248517498374]
9	葡萄	False	animate	inanimate	right	1.077	[0.0, 0.0, 0.0, 0.0, 0.0, 0.0, 0.0, 0.0, 0.0, 0.0, -1.0, 1.0, 5.0, 16.0, 31.0, 41.0, 88.0, 123.0, 179.0, 240.0, 323.0, 404.0, 486.0, 593.0, 630.0, 721.0, 769.0, 785.0, 820.0, 837.0, 845.0, 848.0, 848.0, 848.0, 848.0, 848.0, 846.0, 835.0, 822.0, 805.0, 772.0, 713.0, 648.0, 580.0, 540.0, 518.0, 502.0, 448.0, 413.0, 277.0, 222.0, 193.0, 186.0, 186.0, 190.0, 215.0, 276.0, 392.0, 543.0, 797.0, 877.0, 959.0, 959.0, 959.0, 959.0, 959.0]	[-490.0, -490.0, -491.0, -491.0, -491.0, -492.0, -492.0, -492.0, -492.0, -492.0, -484.0, -467.0, -446.0, -352.0, -262.0, -208.0, -59.0, 24.0, 108.0, 178.0, 247.0, 299.0, 347.0, 410.0, 431.0, 483.0, 514.0, 523.0, 540.0, 540.0, 540.0, 540.0, 540.0, 540.0, 540.0, 540.0, 537.0, 521.0, 509.0, 496.0, 478.0, 454.0, 436.0, 416.0, 405.0, 405.0, 405.0, 413.0, 421.0, 436.0, 436.0, 436.0, 438.0, 438.0, 440.0, 442.0, 447.0, 447.0, 447.0, 446.0, 435.0, 411.0, 402.0, 401.0, 401.0, 401.0]	[0.009608460357412696, 0.017327027046121657, 0.02362359978724271, 0.03558630298357457, 0.05222902516834438, 0.06735247338656336, 0.0856117494404316, 0.1021076983306557, 0.11740761576220393, 0.13565119041595608, 0.1520112887956202, 0.16746002750005573, 0.1854086903622374, 0.20221525232773274, 0.21739536197856069, 0.2355222007026896, 0.2520314615685493, 0.2672125950921327, 0.2855421856511384, 0.3020319906063378, 0.3174493267433718, 0.33569153607822955, 0.3521666636224836, 0.36737954115960747, 0.385293387924321, 0.401948056765832, 0.41739304084330797, 0.4356052129296586, 0.4523947082925588, 0.4675297618377954, 0.4856924405321479, 0.5024368800222874, 0.5175562322838232, 0.5357649909565225, 0.5524162463843822, 0.5675154599593952, 0.5855303414864466, 0.6021716982359067, 0.6175296424189582, 0.6357448863564059, 0.6522896459791809, 0.6675660114269704, 0.6857512181159109, 0.7021662710467353, 0.7175542524782941, 0.7356858699349687, 0.7523497546790168, 0.767526792245917, 0.7857068789890036, 0.8023786144331098, 0.8175747665809467, 0.8357152587268502, 0.8523415968520567, 0.8675701756728813, 0.8857123744674027, 0.9020738380495459, 0.9175109714269638, 0.935675015556626, 0.9522508363006637, 0.9675883004674688, 0.9857728244969621, 1.002394725335762, 1.0175232936162502, 1.0357815455645323, 1.0523368864087388, 1.067478425335139]
10	桌子	False	animate	inanimate	right	1.956	[0.0, 0.0, 0.0, 0.0, 0.0, 0.0, 1.0, 1.0, 2.0, 2.0, -12.0, -12.0, -12.0, 2.0, 32.0, 59.0, 87.0, 119.0, 164.0, 212.0, 274.0, 338.0, 457.0, 542.0, 582.0, 683.0, 729.0, 759.0, 779.0, 792.0, 805.0, 816.0, 824.0, 828.0, 832.0, 833.0, 833.0, 833.0, 833.0, 833.0, 833.0, 833.0, 833.0, 833.0, 833.0, 833.0, 833.0, 833.0, 833.0, 833.0, 833.0, 832.0, 830.0, 827.0, 824.0, 824.0, 824.0, 824.0, 824.0, 824.0, 824.0, 824.0, 824.0, 824.0, 824.0, 824.0, 824.0, 824.0, 824.0, 824.0, 824.0, 824.0, 824.0, 824.0, 824.0, 824.0, 824.0, 824.0, 824.0, 824.0, 824.0, 824.0, 824.0, 824.0, 824.0, 824.0, 824.0, 824.0, 824.0, 824.0, 824.0, 824.0, 823.0, 820.0, 815.0, 803.0, 792.0, 753.0, 728.0, 713.0, 710.0, 709.0, 708.0, 713.0, 726.0, 732.0, 733.0, 733.0, 733.0, 734.0, 735.0, 735.0, 735.0, 735.0, 735.0, 735.0, 735.0, 735.0]	[-490.0, -490.0, -490.0, -490.0, -490.0, -490.0, -490.0, -484.0, -471.0, -447.0, -362.0, -296.0, -256.0, -120.0, -14.0, 75.0, 160.0, 230.0, 303.0, 368.0, 436.0, 491.0, 540.0, 540.0, 540.0, 540.0, 540.0, 540.0, 539.0, 530.0, 514.0, 494.0, 470.0, 447.0, 420.0, 410.0, 409.0, 409.0, 409.0, 409.0, 409.0, 409.0, 409.0, 409.0, 409.0, 409.0, 409.0, 409.0, 409.0, 409.0, 411.0, 411.0, 412.0, 413.0, 413.0, 414.0, 414.0, 414.0, 414.0, 414.0, 414.0, 414.0, 414.0, 414.0, 414.0, 414.0, 414.0, 414.0, 414.0, 414.0, 414.0, 414.0, 414.0, 414.0, 414.0, 414.0, 414.0, 414.0, 414.0, 414.0, 414.0, 414.0, 414.0, 414.0, 414.0, 414.0, 414.0, 414.0, 414.0, 414.0, 414.0, 414.0, 414.0, 414.0, 414.0, 415.0, 416.0, 422.0, 426.0, 428.0, 430.0, 430.0, 431.0, 434.0, 437.0, 438.0, 439.0, 439.0, 439.0, 439.0, 439.0, 439.0, 439.0, 439.0, 439.0, 439.0, 439.0, 439.0]	[0.0009178107138723135, 0.005987973418086767, 0.017239338369108737, 0.03543512639589608, 0.052065901923924685, 0.06711562222335488, 0.08540083945263177, 0.10214050021022558, 0.11704208189621568, 0.13547714450396597, 0.15209631470497698, 0.16730441350955516, 0.18523532699327916, 0.20207397441845387, 0.2170936573529616, 0.23534747201483697, 0.25212160742376, 0.26705288514494896, 0.2853800863958895, 0.3020531872753054, 0.31727630470413715, 0.3353362422203645, 0.35209638287778944, 0.36725737783126533, 0.38545453117694706, 0.40201567474287003, 0.41731695749331266, 0.4353540256852284, 0.45213635300751776, 0.4671440894016996, 0.48535114142578095, 0.5021068447967991, 0.5170500691747293, 0.5354902517283335, 0.5520449099130929, 0.5672700754366815, 0.5853812128771096, 0.6020375882508233, 0.617285281769, 0.6353704779176041, 0.6519835040671751, 0.6672789842123166, 0.6854269856121391, 0.7020741450833157, 0.7174256038852036, 0.7354165919823572, 0.7520494154887274, 0.7671605757204816, 0.7853717238176614, 0.8020977311534807, 0.817297296714969, 0.8353722528554499, 0.8521252255886793, 0.8671718739205971, 0.8852642379933968, 0.9019847840536386, 0.9173673042096198, 0.9355156469391659, 0.9521583690075204, 0.9673811452230439, 0.9856346185551956, 1.0021694793831557, 1.0173533436609432, 1.0355334302876145, 1.05216010985896, 1.0673538726987317, 1.08522983151488, 1.1022029642481357, 1.1173625937663019, 1.1355191285256296, 1.1522693706210703, 1.16737302148249, 1.1853711776202545, 1.202191734337248, 1.2174940411932766, 1.2355177972931415, 1.2521291167940944, 1.2673440423095599, 1.285505355685018, 1.3021757258102298, 1.317336379433982, 1.3354737994959578, 1.3521895669400692, 1.367147809942253, 1.3855968670686707, 1.4017238348023966, 1.4172312829177827, 1.4352864417014644, 1.45194111042656, 1.4669819561531767, 1.4852873120689765, 1.5017675596754998, 1.5173453222960234, 1.5353410891257226, 1.5518704886781052, 1.5672557394718751, 1.5853269408689812, 1.6020058443536982, 1.6173856337554753, 1.6353011872852221, 1.6520002293400466, 1.6672649895772338, 1.6853252683067694, 1.702082678442821, 1.717036142712459, 1.7353722186526284, 1.7520057248184457, 1.7672162130475044, 1.7853751371148974, 1.8020847605075687, 1.8172942247474566, 1.8355470154201612, 1.8518903884105384, 1.8674104657256976, 1.8853837045608088, 1.9020981066860259, 1.917269000201486, 1.9355764042120427]
11	椅子	False	inanimate	animate	right	0.714	[0.0, 0.0, 0.0, 0.0, 0.0, 0.0, 0.0, 2.0, 8.0, 9.0, 14.0, 34.0, 53.0, 78.0, 103.0, 139.0, 175.0, 218.0, 252.0, 281.0, 298.0, 316.0, 358.0, 401.0, 426.0, 494.0, 531.0, 555.0, 572.0, 585.0, 596.0, 604.0, 614.0, 618.0, 627.0, 637.0, 650.0, 662.0, 670.0, 674.0, 675.0, 679.0, 680.0, 680.0]	[-490.0, -490.0, -490.0, -490.0, -490.0, -490.0, -490.0, -489.0, -477.0, -465.0, -432.0, -376.0, -323.0, -257.0, -180.0, -114.0, -55.0, 5.0, 55.0, 93.0, 116.0, 136.0, 177.0, 216.0, 234.0, 280.0, 300.0, 314.0, 326.0, 336.0, 344.0, 349.0, 354.0, 357.0, 361.0, 365.0, 371.0, 376.0, 381.0, 383.0, 384.0, 387.0, 388.0, 388.0]	[0.008235959568992257, 0.01425536978058517, 0.01947469508741051, 0.0331621547229588, 0.04979770886711776, 0.06496314110700041, 0.08319237979594618, 0.0998832299374044, 0.11503808083944023, 0.1331563862040639, 0.14970728976186365, 0.16509868449065834, 0.18315179529599845, 0.19973785616457462, 0.21495414699893445, 0.2330403671367094, 0.24966431595385075, 0.2649369267746806, 0.28300812817178667, 0.29945731442421675, 0.31497090647462755, 0.333067707833834, 0.34956570470239967, 0.3649413982639089, 0.3828644610475749, 0.39964815380517393, 0.41502521256916225, 0.43303975265007466, 0.44952512020245194, 0.4649595230584964, 0.4830634924583137, 0.4996802732348442, 0.5151112626772374, 0.5330756268231198, 0.5498743382049724, 0.5650035891449079, 0.5828635053476319, 0.5997997740050778, 0.614999339566566, 0.6331251541851088, 0.649623833829537, 0.6648179379990324, 0.6830963286338374, 0.6997458774130791]
12	电线	False	inanimate	animate	left	1.534	[0.0, 0.0, 0.0, 0.0, 1.0, 1.0, 1.0, 1.0, 1.0, 1.0, 4.0, 7.0, 16.0, 20.0, 20.0, 15.0, -5.0, -7.0, -7.0, -5.0, 16.0, 56.0, 109.0, 183.0, 263.0, 345.0, 455.0, 484.0, 545.0, 574.0, 592.0, 603.0, 607.0, 607.0, 607.0, 607.0, 607.0, 607.0, 607.0, 607.0, 607.0, 607.0, 607.0, 607.0, 607.0, 607.0, 607.0, 607.0, 607.0, 607.0, 607.0, 607.0, 578.0, 499.0, 388.0, 248.0, 112.0, -11.0, -107.0, -182.0, -224.0, -261.0, -279.0, -287.0, -306.0, -318.0, -331.0, -351.0, -376.0, -406.0, -435.0, -466.0, -494.0, -527.0, -543.0, -557.0, -564.0, -566.0, -567.0, -567.0, -568.0, -574.0, -582.0, -594.0, -611.0, -637.0, -651.0, -657.0, -669.0, -674.0, -675.0, -675.0, -675.0]	[-490.0, -490.0, -490.0, -490.0, -490.0, -490.0, -490.0, -490.0, -482.0, -464.0, -447.0, -424.0, -389.0, -341.0, -240.0, -211.0, -140.0, -108.0, -79.0, -52.0, -8.0, 40.0, 83.0, 134.0, 184.0, 226.0, 291.0, 306.0, 344.0, 361.0, 371.0, 379.0, 382.0, 382.0, 382.0, 382.0, 382.0, 382.0, 382.0, 382.0, 382.0, 382.0, 382.0, 382.0, 382.0, 382.0, 382.0, 382.0, 382.0, 382.0, 382.0, 382.0, 383.0, 383.0, 383.0, 383.0, 383.0, 391.0, 401.0, 406.0, 409.0, 409.0, 409.0, 409.0, 409.0, 409.0, 409.0, 409.0, 409.0, 409.0, 409.0, 409.0, 409.0, 409.0, 409.0, 409.0, 409.0, 409.0, 409.0, 409.0, 409.0, 409.0, 409.0, 409.0, 409.0, 409.0, 409.0, 409.0, 409.0, 409.0, 409.0, 409.0, 409.0]	[0.015322718536481261, 0.01977814023848623, 0.028982530115172267, 0.04723293147981167, 0.06396815495099872, 0.07884072326123714, 0.09724028722848743, 0.11396731866989285, 0.12919794546905905, 0.14712988294195384, 0.16390709043480456, 0.17912952532060444, 0.19713553204201162, 0.21402196609415114, 0.22922562761232257, 0.24726747442036867, 0.2639661751454696, 0.2791732500772923, 0.29729496873915195, 0.31385474698618054, 0.32919801375828683, 0.34717637253925204, 0.3638866787077859, 0.37917191884480417, 0.3972079629311338, 0.4139742477564141, 0.429232181282714, 0.4473480973392725, 0.46399867010768503, 0.4792368062771857, 0.49729230639059097, 0.5139681377913803, 0.5289581248071045, 0.5471091981744394, 0.5640417122049257, 0.5792467390419915, 0.5970554553205147, 0.6140074252616614, 0.6292056255042553, 0.6470634937286377, 0.664004541002214, 0.6792112746043131, 0.697081430698745, 0.7140460300724953, 0.7291554836556315, 0.7473000717582181, 0.7639588365564123, 0.7792355433339253, 0.7970524515258148, 0.8139457122888416, 0.8292224190663546, 0.8473765645176172, 0.864027819945477, 0.8792505961610004, 0.8974153228336945, 0.9140942263184115, 0.9292576105799526, 0.9474066359689459, 0.9640281953616068, 0.9791468649636954, 0.9971648184582591, 1.0140597857534885, 1.0292521833907813, 1.047357518109493, 1.0638060217024758, 1.0790700991638005, 1.0971733859041706, 1.1140321718994528, 1.129264846793376, 1.1472029283177108, 1.1640610316535458, 1.179230218520388, 1.1973662732634693, 1.21404551807791, 1.2307305654976517, 1.2473797729471698, 1.2638153058942407, 1.2792404927313328, 1.2973345634527504, 1.314082416240126, 1.32926457375288, 1.3472576098283753, 1.3640273079508916, 1.3792644201312214, 1.3973202615743503, 1.4140653836075217, 1.4292308158474043, 1.4473395639797673, 1.4637662222376093, 1.4792671849718317, 1.497284455690533, 1.5140418658265844, 1.5294813885120675]
13	黑猫	True	animate	inanimate	left	1.021	[0.0, 0.0, 0.0, 0.0, 0.0, 0.0, 0.0, 3.0, 6.0, 6.0, 6.0, 5.0, 5.0, 5.0, 5.0, 5.0, 5.0, 5.0, 5.0, 5.0, 5.0, 8.0, 15.0, 27.0, 52.0, 88.0, 141.0, 193.0, 249.0, 327.0, 357.0, 435.0, 501.0, 525.0, 578.0, 600.0, 618.0, 633.0, 647.0, 658.0, 665.0, 671.0, 671.0, 671.0, 654.0, 602.0, 504.0, 369.0, 202.0, 29.0, -130.0, -268.0, -400.0, -530.0, -641.0, -776.0, -823.0, -847.0, -861.0, -865.0, -865.0, -865.0]	[-490.0, -490.0, -490.0, -490.0, -490.0, -490.0, -490.0, -485.0, -472.0, -468.0, -455.0, -446.0, -432.0, -415.0, -393.0, -366.0, -316.0, -269.0, -231.0, -178.0, -132.0, -91.0, -58.0, -21.0, 17.0, 57.0, 98.0, 135.0, 168.0, 219.0, 237.0, 286.0, 324.0, 337.0, 369.0, 384.0, 397.0, 405.0, 413.0, 419.0, 423.0, 427.0, 427.0, 428.0, 431.0, 438.0, 439.0, 439.0, 439.0, 439.0, 439.0, 439.0, 439.0, 439.0, 439.0, 439.0, 439.0, 439.0, 439.0, 439.0, 439.0, 439.0]	[0.012814943795092404, 0.017507933429442346, 0.02410385536495596, 0.04220372869167477, 0.05887136817909777, 0.07404396845959127, 0.0923254310619086, 0.10897293186280876, 0.12413392681628466, 0.1423140134429559, 0.15888846898451447, 0.17405048792716116, 0.19234014255926013, 0.20875041675753891, 0.22413532622158527, 0.2421474769944325, 0.25876425788737833, 0.2741737433243543, 0.2922961446456611, 0.30892350687645376, 0.32409303507301956, 0.34227414580527693, 0.35876804660074413, 0.3741911854594946, 0.39225760812405497, 0.40880475705489516, 0.4241272024810314, 0.44212911336217076, 0.4590462673222646, 0.4741792728891596, 0.4922002983512357, 0.5087252605007961, 0.5242941485485062, 0.5423940219916403, 0.5588612988358364, 0.5743056002538651, 0.5924228817457333, 0.608948526554741, 0.6242310360539705, 0.6423459281213582, 0.658990356954746, 0.6742226905189455, 0.6923840038944036, 0.7090260433033109, 0.7240494809811935, 0.7423708796268329, 0.7590822096681222, 0.7741206659702584, 0.7921816273592412, 0.8086444670334458, 0.8240781871136278, 0.8421251538675278, 0.8587832360062748, 0.8740879321703687, 0.8920843815430999, 0.9087946877116337, 0.9241666265297681, 0.9421917479485273, 0.9588238887954503, 0.9739207130623981, 0.9921564370160922, 1.0086571645224467]
14	黑狗	True	animate	inanimate	left	1.23	[0.0, 0.0, 0.0, 0.0, 0.0, 0.0, 0.0, 0.0, -5.0, -22.0, -52.0, -67.0, -72.0, -75.0, -79.0, -86.0, -91.0, -91.0, -89.0, -71.0, 21.0, 73.0, 262.0, 411.0, 555.0, 675.0, 739.0, 774.0, 783.0, 783.0, 776.0, 754.0, 701.0, 678.0, 617.0, 573.0, 545.0, 524.0, 507.0, 496.0, 481.0, 466.0, 441.0, 386.0, 219.0, 141.0, -118.0, -307.0, -480.0, -650.0, -790.0, -917.0, -960.0, -960.0, -960.0, -960.0, -960.0, -960.0, -960.0, -960.0, -960.0, -960.0, -960.0, -945.0, -917.0, -875.0, -848.0, -843.0, -840.0, -838.0, -835.0, -834.0, -834.0, -834.0, -834.0]	[-490.0, -490.0, -490.0, -490.0, -490.0, -490.0, -490.0, -484.0, -472.0, -452.0, -415.0, -386.0, -364.0, -339.0, -304.0, -262.0, -235.0, -213.0, -193.0, -171.0, -114.0, -94.0, -38.0, 5.0, 52.0, 96.0, 135.0, 161.0, 176.0, 188.0, 205.0, 222.0, 251.0, 264.0, 298.0, 319.0, 331.0, 340.0, 347.0, 352.0, 358.0, 363.0, 370.0, 382.0, 393.0, 393.0, 393.0, 393.0, 393.0, 393.0, 393.0, 393.0, 393.0, 393.0, 393.0, 393.0, 393.0, 393.0, 393.0, 393.0, 393.0, 393.0, 395.0, 404.0, 415.0, 430.0, 438.0, 440.0, 440.0, 440.0, 443.0, 443.0, 443.0, 443.0, 443.0]	[0.013600010075606406, 0.01904359122272581, 0.02541423332877457, 0.04387353057973087, 0.06055448204278946, 0.07576019153930247, 0.09396280627697706, 0.11058026971295476, 0.12579075794201344, 0.1439104286255315, 0.16045143350493163, 0.17579470039345324, 0.19388330972287804, 0.21067451185081154, 0.22583653079345822, 0.2438538015121594, 0.2605330463266, 0.27579507580958307, 0.2938676425255835, 0.3105601993156597, 0.32580004225019366, 0.34368385176640004, 0.3605474163778126, 0.3758193446556106, 0.393751623458229, 0.4105185908265412, 0.4258215803420171, 0.4436221045907587, 0.4605184372048825, 0.475754184066318, 0.49379842018242925, 0.5104708382859826, 0.5257929424988106, 0.5438272799365222, 0.560391154140234, 0.5757013115799055, 0.593718582415022, 0.6104241098510101, 0.6257731793448329, 0.6437064821366221, 0.6605355722131208, 0.6757433296879753, 0.6937902964418754, 0.7105210826266557, 0.7258718587690964, 0.7438522655284032, 0.7606096755480394, 0.7757713531609625, 0.793846650631167, 0.8103350901510566, 0.8256814290070906, 0.8438403529580683, 0.860509016434662, 0.875778213958256, 0.8939248500391841, 0.9106406174832955, 0.9258326736744493, 0.9439335711067542, 0.9605827785562724, 0.9758656293852255, 0.9939726707525551, 1.010660448926501, 1.0257818491663784, 1.0435946614015847, 1.0605022580130026, 1.0757851088419557, 1.0938245663419366, 1.110484013799578, 1.125774715328589, 1.1436049354961142, 1.1605138975428417, 1.1757906043203548, 1.1938385950634256, 1.2105816692346707, 1.225740274763666]
15	警察	True	animate	inanimate	left	1.401	[0.0, 0.0, 0.0, 0.0, 0.0, 0.0, 0.0, -2.0, -7.0, -13.0, -23.0, -35.0, -48.0, -70.0, -88.0, -98.0, -102.0, -102.0, -100.0, -83.0, -56.0, -21.0, 33.0, 163.0, 206.0, 343.0, 420.0, 472.0, 497.0, 515.0, 528.0, 535.0, 540.0, 541.0, 543.0, 544.0, 545.0, 549.0, 553.0, 559.0, 561.0, 565.0, 568.0, 574.0, 581.0, 593.0, 606.0, 618.0, 630.0, 641.0, 651.0, 655.0, 660.0, 660.0, 660.0, 660.0, 655.0, 620.0, 525.0, 295.0, 209.0, -88.0, -260.0, -406.0, -506.0, -566.0, -595.0, -603.0, -604.0, -604.0, -604.0, -604.0, -604.0, -604.0, -604.0, -607.0, -626.0, -658.0, -693.0, -727.0, -747.0, -751.0, -751.0, -751.0, -751.0]	[-490.0, -490.0, -490.0, -490.0, -490.0, -490.0, -490.0, -487.0, -468.0, -449.0, -427.0, -396.0, -357.0, -278.0, -218.0, -181.0, -146.0, -87.0, -44.0, -6.0, 24.0, 55.0, 87.0, 159.0, 184.0, 247.0, 278.0, 302.0, 311.0, 321.0, 327.0, 332.0, 335.0, 335.0, 337.0, 338.0, 338.0, 340.0, 343.0, 346.0, 348.0, 349.0, 351.0, 354.0, 357.0, 362.0, 367.0, 373.0, 379.0, 383.0, 388.0, 389.0, 391.0, 392.0, 392.0, 392.0, 392.0, 392.0, 392.0, 392.0, 392.0, 392.0, 392.0, 392.0, 392.0, 392.0, 392.0, 392.0, 392.0, 392.0, 392.0, 392.0, 392.0, 392.0, 392.0, 392.0, 392.0, 392.0, 392.0, 392.0, 392.0, 392.0, 392.0, 392.0, 392.0]	[0.01447587099391967, 0.020026972168125212, 0.027551320265047252, 0.045644708327017725, 0.062332827830687165, 0.07749109202995896, 0.09545716282445937, 0.11225519166328013, 0.12741447985172272, 0.1455802305135876, 0.16227483528200537, 0.1774450462544337, 0.19552819430828094, 0.212203684495762, 0.2274698099354282, 0.24551950732711703, 0.2622240107739344, 0.2774993523489684, 0.29548146575689316, 0.3122951958794147, 0.32731146551668644, 0.345580640132539, 0.36225237557664514, 0.3774399944813922, 0.3953637400409207, 0.4121846380876377, 0.4272442569490522, 0.44556463160552084, 0.4620622871443629, 0.47753799124620855, 0.49556413665413857, 0.5123276907252148, 0.5274989256868139, 0.5455885591218248, 0.5623473344603553, 0.5775253960164264, 0.59540135494899, 0.6122823276091367, 0.6274777970975265, 0.6455479746218771, 0.6620975127443671, 0.6774957341840491, 0.6951784985139966, 0.7121611884795129, 0.7271504928357899, 0.7454828140325844, 0.7621644481550902, 0.7774179443949834, 0.7955212311353534, 0.8122148119146004, 0.8272379082627594, 0.8454920641379431, 0.8619542211527005, 0.8774370931787416, 0.8952840387355536, 0.9119588461471722, 0.9271956169977784, 0.9453425944084302, 0.9622829590225592, 0.977473650011234, 0.9954711233731359, 1.0122118081199005, 1.0274414110463113, 1.0456184257054701, 1.0619116227608174, 1.0775156681193039, 1.0954674028325826, 1.1121869250200689, 1.1274615838192403, 1.145396251929924, 1.162087102071382, 1.1774187636328861, 1.1955251223407686, 1.2120210712309927, 1.2274445513030514, 1.2455000514164567, 1.2622240107739344, 1.2774003656813875, 1.2954200258245692, 1.3121429613092914, 1.3274551667273045, 1.3455543575109914, 1.3622632982442155, 1.3774512584786862, 1.3954610199434683]
16	兔子	True	animate	inanimate	left	1.083	[0.0, 0.0, 0.0, 0.0, 0.0, 0.0, 0.0, 0.0, 0.0, -12.0, -46.0, -63.0, -68.0, -96.0, -117.0, -138.0, -145.0, -148.0, -148.0, -131.0, -105.0, -57.0, 42.0, 113.0, 161.0, 277.0, 360.0, 437.0, 507.0, 560.0, 599.0, 626.0, 640.0, 648.0, 654.0, 654.0, 654.0, 654.0, 654.0, 654.0, 658.0, 665.0, 668.0, 668.0, 668.0, 668.0, 640.0, 578.0, 523.0, 348.0, 219.0, 104.0, -13.0, -129.0, -246.0, -359.0, -465.0, -551.0, -609.0, -661.0, -672.0, -687.0, -689.0, -689.0, -689.0, -689.0]	[-490.0, -490.0, -490.0, -490.0, -490.0, -490.0, -490.0, -481.0, -457.0, -411.0, -344.0, -310.0, -299.0, -238.0, -185.0, -129.0, -90.0, -60.0, -39.0, -14.0, 18.0, 55.0, 129.0, 179.0, 205.0, 269.0, 317.0, 358.0, 401.0, 430.0, 452.0, 468.0, 475.0, 480.0, 482.0, 482.0, 482.0, 482.0, 482.0, 482.0, 484.0, 486.0, 486.0, 486.0, 486.0, 486.0, 481.0, 473.0, 467.0, 441.0, 422.0, 416.0, 412.0, 412.0, 412.0, 412.0, 412.0, 412.0, 412.0, 412.0, 412.0, 412.0, 412.0, 412.0, 412.0, 412.0]	[0.013843039283528924, 0.01909308461472392, 0.02627951290924102, 0.04451114090625197, 0.06110402836930007, 0.07626229268498719, 0.09453044331166893, 0.11123460542876273, 0.12612424045801163, 0.14452994836028665, 0.16117744916118681, 0.17634117475245148, 0.19444377883337438, 0.21125307155307382, 0.22619800257962197, 0.2443429318955168, 0.26121366466395557, 0.2763712462037802, 0.2945922928629443, 0.3112001990666613, 0.3264192205388099, 0.3445866779657081, 0.3612635333556682, 0.3763729870552197, 0.3944970950251445, 0.41102512925863266, 0.42639536142814904, 0.44453141605481505, 0.46121441561263055, 0.47637233848217875, 0.49456095846835524, 0.5111838832963258, 0.52612369437702, 0.5445720688439906, 0.5611021510558203, 0.5763894392875955, 0.594241846119985, 0.6112074694829062, 0.6263828002847731, 0.6442649031523615, 0.661238718428649, 0.6763437347253785, 0.6944948080927134, 0.7112040902720764, 0.7264220877550542, 0.7445564358495176, 0.7612380699720234, 0.7762113315984607, 0.7942033436847851, 0.811044380418025, 0.8262589646037668, 0.8443096861010417, 0.8611118107801303, 0.8762936270795763, 0.8944023750955239, 0.9110437319613993, 0.9263112227199599, 0.9444192881928757, 0.9609435676829889, 0.9762724984902889, 0.9944594118278474, 1.0110758513910696, 1.026237870217301, 1.0444838342955336, 1.0611623963341117, 1.0763165645767003]
17	蚯蚓	True	animate	inanimate	left	1.004	[0.0, 1.0, 2.0, 2.0, 2.0, 2.0, 2.0, -11.0, -28.0, -72.0, -143.0, -208.0, -261.0, -326.0, -359.0, -375.0, -402.0, -406.0, -398.0, -370.0, -317.0, -229.0, -104.0, 49.0, 221.0, 449.0, 569.0, 618.0, 704.0, 726.0, 731.0, 732.0, 732.0, 732.0, 732.0, 732.0, 732.0, 729.0, 725.0, 717.0, 699.0, 669.0, 603.0, 500.0, 375.0, 229.0, 65.0, -189.0, -270.0, -462.0, -573.0, -657.0, -717.0, -753.0, -774.0, -786.0, -793.0, -794.0, -794.0, -794.0, -794.0]	[-490.0, -490.0, -489.0, -489.0, -489.0, -489.0, -481.0, -466.0, -446.0, -405.0, -355.0, -300.0, -247.0, -177.0, -132.0, -110.0, -63.0, -40.0, -11.0, 25.0, 66.0, 119.0, 182.0, 248.0, 313.0, 393.0, 432.0, 450.0, 483.0, 492.0, 495.0, 495.0, 495.0, 495.0, 495.0, 495.0, 495.0, 495.0, 494.0, 494.0, 490.0, 487.0, 479.0, 475.0, 473.0, 473.0, 473.0, 473.0, 473.0, 473.0, 473.0, 473.0, 473.0, 473.0, 473.0, 473.0, 472.0, 472.0, 472.0, 472.0, 472.0]	[0.014838708215393126, 0.02071919583249837, 0.02817220543511212, 0.046277198824100196, 0.06302436883561313, 0.07815737440250814, 0.09635759983211756, 0.11295185261406004, 0.1281773594673723, 0.1463076116051525, 0.16290834976825863, 0.17820690188091248, 0.19632350059691817, 0.21281125745736063, 0.22817500436212867, 0.24630286707542837, 0.26294900255743414, 0.278236290672794, 0.29628120944835246, 0.3129174462519586, 0.32821497437544167, 0.34625921049155295, 0.3627039594575763, 0.3782165275188163, 0.39628738758619875, 0.4127635391196236, 0.4279497927054763, 0.4463186366483569, 0.4629518014844507, 0.4782431855564937, 0.4964191763428971, 0.5132032104302198, 0.5283379226457328, 0.5465436093509197, 0.5630559421842918, 0.5783326490782201, 0.5966772582614794, 0.613217921811156, 0.6283427354646847, 0.6466040593804792, 0.6630191123113036, 0.6783965125214309, 0.6966035644290969, 0.7132766653085127, 0.728526406805031, 0.7464013416320086, 0.7632389650680125, 0.7783589999889955, 0.7965168999508023, 0.8131353874923661, 0.8283052570186555, 0.8463552958564833, 0.8630024553276598, 0.8783392367186025, 0.8963121342239901, 0.9132395281922072, 0.9284189550671726, 0.9465242899022996, 0.9632441533030942, 0.9783884228672832, 0.996559634921141]
18	蚯蚓	True	inanimate	animate	right	1.436	[0.0, 1.0, 1.0, 1.0, 1.0, 1.0, 1.0, -9.0, -25.0, -36.0, -41.0, -49.0, -49.0, -49.0, -34.0, -7.0, 17.0, 57.0, 92.0, 135.0, 172.0, 214.0, 250.0, 301.0, 315.0, 356.0, 387.0, 420.0, 453.0, 486.0, 520.0, 557.0, 592.0, 619.0, 647.0, 656.0, 659.0, 662.0, 665.0, 667.0, 669.0, 671.0, 671.0, 676.0, 680.0, 685.0, 688.0, 688.0, 688.0, 658.0, 595.0, 482.0, 347.0, 214.0, 119.0, 89.0, 87.0, 106.0, 235.0, 389.0, 564.0, 734.0, 872.0, 959.0, 959.0, 959.0, 959.0, 953.0, 945.0, 939.0, 934.0, 932.0, 929.0, 916.0, 898.0, 879.0, 863.0, 858.0, 858.0, 858.0, 858.0, 858.0, 858.0, 858.0, 858.0, 858.0, 858.0]	[-490.0, -490.0, -490.0, -490.0, -490.0, -482.0, -469.0, -449.0, -416.0, -378.0, -344.0, -257.0, -227.0, -108.0, -21.0, 71.0, 160.0, 254.0, 335.0, 407.0, 462.0, 502.0, 530.0, 540.0, 540.0, 540.0, 540.0, 540.0, 540.0, 540.0, 540.0, 531.0, 516.0, 504.0, 486.0, 475.0, 469.0, 462.0, 454.0, 445.0, 439.0, 433.0, 428.0, 422.0, 418.0, 416.0, 416.0, 416.0, 416.0, 416.0, 416.0, 416.0, 416.0, 414.0, 401.0, 397.0, 394.0, 394.0, 391.0, 391.0, 391.0, 391.0, 387.0, 378.0, 375.0, 375.0, 375.0, 373.0, 372.0, 370.0, 369.0, 369.0, 369.0, 370.0, 376.0, 382.0, 387.0, 390.0, 390.0, 390.0, 390.0, 390.0, 390.0, 390.0, 390.0, 390.0, 390.0]	[0.012998239719308913, 0.017200392205268145, 0.02453120448626578, 0.042665893910452724, 0.059507613303139806, 0.07458805351052433, 0.09270943095907569, 0.10931631305720657, 0.12452987325377762, 0.14250925614032894, 0.15934414882212877, 0.17456453572958708, 0.19249305978883058, 0.20915182458702475, 0.22454560874029994, 0.24269634077791125, 0.2593721722951159, 0.27459494851063937, 0.29267502459697425, 0.309382600011304, 0.32441218162421137, 0.3427694202400744, 0.35917081986553967, 0.3746065879240632, 0.3927074853563681, 0.40942086349241436, 0.424599266378209, 0.4427346383454278, 0.45934698183555156, 0.4744636034592986, 0.49274540739133954, 0.5093778895679861, 0.5245876951375976, 0.542723749880679, 0.5594296186463907, 0.5745895894942805, 0.5928256548941135, 0.6095253796083853, 0.6246075265808031, 0.6426913572940975, 0.6592122234869748, 0.6746268289862201, 0.6928284196183085, 0.7096011897083372, 0.7246857259888202, 0.7428736634319648, 0.7594505081651732, 0.7746422231430188, 0.7926260431995615, 0.8094831226626411, 0.8246666454942897, 0.8428218148183078, 0.8594792142976075, 0.8746702466160059, 0.8925451814429834, 0.9094828154193237, 0.9245618903078139, 0.9425945210969076, 0.9594782245112583, 0.9746668674051762, 0.9928483193507418, 1.0094330149004236, 1.0244322179351002, 1.0426283472916111, 1.0596380025381222, 1.0747812481131405, 1.0929295908426866, 1.109518041019328, 1.1246650412213057, 1.1428925732616335, 1.1593571194680408, 1.1746843436267227, 1.1928644303698093, 1.2095317284110934, 1.2244343342026696, 1.2428704206831753, 1.2594233722193167, 1.2746840363834053, 1.292877093772404, 1.3095310799544677, 1.3247105068294331, 1.3432469452964142, 1.3599893366917968, 1.3749540650751442, 1.3934147276449949, 1.409989524516277, 1.4250034048454836]
19	小鸟	True	inanimate	animate	right	1.003	[0.0, 0.0, 0.0, 0.0, 0.0, 1.0, 1.0, 1.0, 1.0, 1.0, 1.0, -5.0, -7.0, -7.0, -7.0, -7.0, -7.0, -7.0, -7.0, -7.0, -3.0, 12.0, 85.0, 166.0, 264.0, 362.0, 462.0, 546.0, 623.0, 671.0, 705.0, 724.0, 725.0, 725.0, 718.0, 712.0, 701.0, 687.0, 665.0, 634.0, 578.0, 481.0, 359.0, 237.0, 85.0, 55.0, 38.0, 38.0, 56.0, 93.0, 177.0, 286.0, 413.0, 537.0, 648.0, 750.0, 789.0, 799.0, 806.0, 806.0, 806.0]	[-490.0, -490.0, -491.0, -491.0, -492.0, -493.0, -493.0, -493.0, -493.0, -492.0, -476.0, -461.0, -443.0, -421.0, -390.0, -344.0, -278.0, -194.0, -102.0, 39.0, 124.0, 168.0, 303.0, 379.0, 446.0, 500.0, 540.0, 540.0, 540.0, 540.0, 540.0, 540.0, 540.0, 539.0, 531.0, 523.0, 511.0, 501.0, 488.0, 476.0, 463.0, 450.0, 448.0, 448.0, 448.0, 448.0, 445.0, 444.0, 443.0, 443.0, 443.0, 443.0, 443.0, 443.0, 443.0, 438.0, 437.0, 437.0, 437.0, 437.0, 437.0]	[0.013499999418854713, 0.018728199414908886, 0.025644291890785098, 0.04388820787426084, 0.0605241033481434, 0.0756472103530541, 0.09384026762563735, 0.11051439249422401, 0.12562316341791302, 0.143701191409491, 0.16053574287798256, 0.17575544700957835, 0.19370820582844317, 0.21058337588328868, 0.22568497876636684, 0.24371180695015937, 0.2604873076779768, 0.2755213266937062, 0.29389870387967676, 0.31044414604548365, 0.32569934893399477, 0.34374870499596, 0.3604573045158759, 0.3754769874503836, 0.3937901940662414, 0.41046227084007114, 0.4258393297204748, 0.4438917577499524, 0.46046689595095813, 0.47542821092065424, 0.4935253537259996, 0.5104367050807923, 0.5256359291961417, 0.5437446773285046, 0.5604665887076408, 0.5754388264613226, 0.5936902516987175, 0.6103555018780753, 0.6255987581098452, 0.6437993247527629, 0.6603126815753058, 0.6753675219370052, 0.6936708298744634, 0.71033881069161, 0.7255847975611687, 0.7436621430097148, 0.7603977076942101, 0.7756317479070276, 0.7935670986771584, 0.8103514740942046, 0.825623061042279, 0.843792907660827, 0.8603171872673556, 0.8755857021315023, 0.8936964981257915, 0.9103532149456441, 0.9256077351747081, 0.9434799393638968, 0.9604390773456544, 0.9754690002882853, 0.9938252149149776]
20	记者	True	inanimate	animate	right	0.783	[0.0, 0.0, 0.0, 1.0, 1.0, 1.0, 1.0, 3.0, 6.0, 6.0, 6.0, 6.0, 14.0, 18.0, 25.0, 25.0, 25.0, 33.0, 61.0, 107.0, 164.0, 260.0, 377.0, 508.0, 641.0, 746.0, 814.0, 848.0, 852.0, 852.0, 852.0, 853.0, 853.0, 850.0, 845.0, 839.0, 833.0, 829.0, 827.0, 827.0, 827.0, 827.0, 827.0, 827.0, 827.0, 827.0, 827.0, 827.0]	[-490.0, -489.0, -489.0, -489.0, -489.0, -489.0, -487.0, -481.0, -466.0, -445.0, -420.0, -380.0, -325.0, -271.0, -182.0, -150.0, -54.0, 19.0, 101.0, 196.0, 297.0, 397.0, 510.0, 540.0, 540.0, 540.0, 540.0, 540.0, 540.0, 540.0, 540.0, 540.0, 530.0, 516.0, 503.0, 490.0, 475.0, 470.0, 466.0, 466.0, 466.0, 466.0, 466.0, 466.0, 466.0, 466.0, 466.0, 466.0]	[0.015527518466114998, 0.02153907809406519, 0.029548460734076798, 0.04773708072025329, 0.06438219221308827, 0.0793052779044956, 0.09770620707422495, 0.11437828396447003, 0.12949900154490024, 0.1478006028337404, 0.16419483441859484, 0.17953639454208314, 0.1976430945796892, 0.21434213675092906, 0.2293369023827836, 0.2475733089959249, 0.2642999991076067, 0.2795473512960598, 0.29766804608516395, 0.31436094420496374, 0.32960727240424603, 0.3477481057634577, 0.3643454306293279, 0.3796241853851825, 0.3975069709122181, 0.4142128396779299, 0.4295069546205923, 0.44758771324995905, 0.4642860727617517, 0.479496902320534, 0.4976124770473689, 0.5143978764535859, 0.5295322473393753, 0.5474638434825465, 0.5643349175807089, 0.5792904298286885, 0.5973623140016571, 0.6143262305995449, 0.62957187613938, 0.6476741388905793, 0.6643141303211451, 0.6795389545150101, 0.6977262091822922, 0.7143440140644088, 0.7295705449068919, 0.7474901943933219, 0.7642813965212554, 0.7795881406636909]
21	歌手	True	animate	inanimate	left	0.925	[0.0, 1.0, 1.0, 2.0, 3.0, 3.0, 3.0, 5.0, 6.0, 6.0, 5.0, 0.0, 0.0, 0.0, -4.0, -9.0, -17.0, -30.0, -38.0, -41.0, -22.0, -5.0, 98.0, 205.0, 339.0, 479.0, 592.0, 670.0, 717.0, 735.0, 743.0, 746.0, 746.0, 746.0, 746.0, 746.0, 746.0, 746.0, 742.0, 711.0, 634.0, 507.0, 326.0, 22.0, -148.0, -235.0, -427.0, -521.0, -592.0, -639.0, -668.0, -687.0, -698.0, -702.0, -705.0, -705.0]	[-490.0, -488.0, -488.0, -488.0, -487.0, -487.0, -487.0, -486.0, -477.0, -473.0, -454.0, -434.0, -411.0, -383.0, -342.0, -303.0, -248.0, -184.0, -119.0, -53.0, -4.0, 20.0, 115.0, 178.0, 236.0, 290.0, 339.0, 374.0, 398.0, 407.0, 412.0, 413.0, 413.0, 413.0, 413.0, 413.0, 413.0, 413.0, 413.0, 418.0, 420.0, 420.0, 420.0, 420.0, 420.0, 420.0, 420.0, 420.0, 420.0, 420.0, 420.0, 420.0, 420.0, 420.0, 420.0, 420.0]	[0.013888778164982796, 0.01842031709384173, 0.026317059760913253, 0.04436743981204927, 0.060894108726643026, 0.07624420220963657, 0.09446422487962991, 0.11102058971300721, 0.12632596853654832, 0.14448557526338845, 0.16114297474268824, 0.17635278031229973, 0.19448405632283539, 0.21113019180484116, 0.2263724240474403, 0.24441324674990028, 0.2608344437321648, 0.27625451050698757, 0.2943543838337064, 0.31083258346188813, 0.32637962617445737, 0.3443416008958593, 0.3610020724590868, 0.37605520605575293, 0.3944039113121107, 0.4111009053885937, 0.42631207627709955, 0.4444815816823393, 0.4611130398698151, 0.4763706320663914, 0.49453774804715067, 0.511131318169646, 0.5264622970717028, 0.5445044850930572, 0.5610096500022337, 0.5763583781663328, 0.5944736115634441, 0.6111849416047335, 0.6261418192880228, 0.6445512819336727, 0.6611404147697613, 0.6763867429690436, 0.6944743283092976, 0.7110907678725198, 0.7261452667880803, 0.7444366280687973, 0.7608707956969738, 0.776395310414955, 0.7944514931878075, 0.8109017034294084, 0.8264299727743492, 0.844466699520126, 0.8609554804861546, 0.8763775952393189, 0.8944689353229478, 0.9111485213506967]
22	老虎	True	inanimate	animate	right	0.763	[0.0, 4.0, 10.0, 10.0, 11.0, 11.0, 11.0, 11.0, 11.0, 11.0, 11.0, 11.0, 11.0, 11.0, 13.0, 14.0, 28.0, 51.0, 77.0, 112.0, 153.0, 199.0, 238.0, 277.0, 320.0, 400.0, 457.0, 484.0, 573.0, 627.0, 677.0, 717.0, 742.0, 758.0, 766.0, 768.0, 769.0, 769.0, 769.0, 769.0, 769.0, 769.0, 769.0, 769.0, 769.0, 769.0]	[-490.0, -491.0, -494.0, -494.0, -494.0, -494.0, -494.0, -494.0, -494.0, -494.0, -494.0, -491.0, -485.0, -462.0, -440.0, -430.0, -370.0, -313.0, -261.0, -205.0, -140.0, -82.0, -36.0, 3.0, 40.0, 96.0, 134.0, 150.0, 210.0, 246.0, 282.0, 308.0, 327.0, 341.0, 351.0, 355.0, 359.0, 361.0, 363.0, 363.0, 365.0, 367.0, 371.0, 371.0, 371.0, 371.0]	[0.0065600136294960976, 0.013656671391800046, 0.027878658729605377, 0.04632088937796652, 0.06296634208410978, 0.07813177432399243, 0.0963244903832674, 0.11298154853284359, 0.12812001549173146, 0.1463048808509484, 0.1628489576978609, 0.17815297120250762, 0.19636309519410133, 0.21304814261384308, 0.2278121670242399, 0.2463311975589022, 0.26267320523038507, 0.27810521866194904, 0.29619553475640714, 0.3128942354815081, 0.3281200836645439, 0.34605850651860237, 0.36288793792482466, 0.37810559407807887, 0.3962075154995546, 0.4129355709301308, 0.42813308851327747, 0.446329559199512, 0.46277123608160764, 0.4779366683214903, 0.49631302163470536, 0.5126365972682834, 0.5282071919646114, 0.5464432572480291, 0.5629409127868712, 0.5781674436293542, 0.5960799251915887, 0.6129380285274237, 0.6279669274808839, 0.6463070994941518, 0.6629556242842227, 0.678240864421241, 0.6963188925292343, 0.7129547880031168, 0.7279396549565718, 0.7463730109157041]
23	大门	False	animate	inanimate	right	0.868	[0.0, 1.0, 1.0, 1.0, 1.0, 1.0, 1.0, 0.0, -2.0, -3.0, -3.0, -3.0, -1.0, 10.0, 21.0, 28.0, 65.0, 99.0, 144.0, 202.0, 267.0, 335.0, 397.0, 464.0, 514.0, 586.0, 609.0, 624.0, 629.0, 632.0, 636.0, 641.0, 645.0, 649.0, 653.0, 654.0, 656.0, 659.0, 660.0, 660.0, 660.0, 642.0, 615.0, 592.0, 586.0, 586.0, 591.0, 604.0, 630.0, 674.0, 698.0, 703.0, 704.0]	[-490.0, -490.0, -490.0, -490.0, -490.0, -490.0, -490.0, -490.0, -490.0, -488.0, -483.0, -478.0, -466.0, -434.0, -406.0, -389.0, -323.0, -267.0, -211.0, -146.0, -85.0, -12.0, 59.0, 129.0, 188.0, 270.0, 301.0, 326.0, 342.0, 355.0, 363.0, 372.0, 378.0, 384.0, 388.0, 390.0, 391.0, 393.0, 393.0, 393.0, 393.0, 396.0, 396.0, 396.0, 396.0, 396.0, 396.0, 398.0, 403.0, 408.0, 409.0, 409.0, 409.0]	[0.01056589966174215, 0.01571661711204797, 0.021992709836922586, 0.037869480438530445, 0.05448694387450814, 0.06972849345766008, 0.08794373739510775, 0.1044076009420678, 0.11985531577374786, 0.1378684905357659, 0.1545723113231361, 0.1697793861385435, 0.1878690195735544, 0.2045253950636834, 0.21948295540641993, 0.23786681797355413, 0.2544914494501427, 0.26974187360610813, 0.2878608617465943, 0.3045059732394293, 0.31957139482256025, 0.33785695349797606, 0.35450001689605415, 0.3697716037277132, 0.38792131177615374, 0.4046305939555168, 0.4197820315603167, 0.43793583556544036, 0.45435771509073675, 0.4695729820523411, 0.48791520192753524, 0.5045104788150638, 0.5194547271821648, 0.5378099177032709, 0.5544987198663875, 0.569756994722411, 0.5878811028087512, 0.6045016382122412, 0.619609726476483, 0.637920202454552, 0.6545199166284874, 0.6698508955305442, 0.687834715587087, 0.7047897576121613, 0.7197978352196515, 0.7379485672572628, 0.7543489428935573, 0.7695652337279171, 0.7878705897601321, 0.8045184318907559, 0.8195350428577513, 0.8379448467167094, 0.8544609342934564]
24	花瓶	False	animate	inanimate	right	1.282	[0.0, 2.0, 3.0, 3.0, 4.0, 4.0, 4.0, 8.0, 14.0, 16.0, 22.0, 26.0, 28.0, 30.0, 35.0, 42.0, 55.0, 77.0, 108.0, 199.0, 275.0, 324.0, 470.0, 549.0, 618.0, 663.0, 699.0, 718.0, 724.0, 728.0, 728.0, 728.0, 728.0, 728.0, 728.0, 726.0, 722.0, 720.0, 716.0, 702.0, 670.0, 606.0, 507.0, 368.0, 313.0, 300.0, 276.0, 273.0, 273.0, 273.0, 273.0, 267.0, 247.0, 200.0, 122.0, -33.0, -149.0, -203.0, -341.0, -389.0, -411.0, -416.0, -416.0, -411.0, -387.0, -331.0, -217.0, 9.0, 174.0, 260.0, 487.0, 614.0, 699.0, 742.0, 757.0, 761.0, 761.0, 761.0]	[-490.0, -490.0, -491.0, -491.0, -491.0, -491.0, -491.0, -491.0, -490.0, -488.0, -481.0, -474.0, -470.0, -463.0, -453.0, -437.0, -416.0, -382.0, -345.0, -251.0, -178.0, -137.0, -16.0, 61.0, 139.0, 202.0, 252.0, 284.0, 301.0, 310.0, 314.0, 316.0, 317.0, 317.0, 319.0, 321.0, 322.0, 324.0, 327.0, 332.0, 341.0, 355.0, 376.0, 395.0, 403.0, 405.0, 410.0, 411.0, 411.0, 411.0, 411.0, 412.0, 416.0, 418.0, 418.0, 418.0, 418.0, 418.0, 418.0, 415.0, 411.0, 409.0, 409.0, 407.0, 407.0, 407.0, 407.0, 407.0, 407.0, 407.0, 407.0, 407.0, 409.0, 413.0, 413.0, 413.0, 413.0, 413.0]	[0.015420339768752456, 0.020888497005216777, 0.02938086597714573, 0.0476223926525563, 0.0643388427561149, 0.07942098972853273, 0.09753246838226914, 0.11424652917776257, 0.1294140093959868, 0.1475903415121138, 0.1642194102751091, 0.17940259189344943, 0.1975918945390731, 0.21425031800754368, 0.22946353687439114, 0.24739274370949715, 0.26419828180223703, 0.2793998953420669, 0.2975700832903385, 0.31425786146428436, 0.32940759242046624, 0.34755456971470267, 0.36413892393466085, 0.3794757054420188, 0.3974564535310492, 0.4141479863319546, 0.42945814377162606, 0.44757508381735533, 0.4640867341076955, 0.4793593449285254, 0.4975616183364764, 0.5143558923155069, 0.5294923112960532, 0.5477468086173758, 0.5644219573587179, 0.5793754217447713, 0.5972503565717489, 0.6140101560158655, 0.6293001748854294, 0.6471474616555497, 0.6637543438700959, 0.6790979519719258, 0.6975275531876832, 0.7140439820941538, 0.7293800809420645, 0.747445821063593, 0.7640397325158119, 0.7793515967205167, 0.797502328758128, 0.8141921547940001, 0.8294347283663228, 0.8473683724878356, 0.8642254518344998, 0.8794352574041113, 0.8975706294877455, 0.9141758049372584, 0.9294310078257695, 0.9475991479121149, 0.9640913420589641, 0.9792014783015475, 0.9972965731285512, 1.0141864204779267, 1.0294720019446686, 1.047486542025581, 1.0639742990024388, 1.0794244030257687, 1.0975072097498924, 1.1141854305751622, 1.129489444079809, 1.147584880120121, 1.1641074529616162, 1.1794138558907434, 1.1973328227177262, 1.214156451402232, 1.229265222325921, 1.2474770529661328, 1.2641924790805206, 1.2795866045635194]
25	衬衫	False	animate	inanimate	right	0.754	[0.0, 0.0, 2.0, 2.0, 2.0, 2.0, 2.0, 3.0, 4.0, 6.0, 11.0, 11.0, 11.0, 11.0, 18.0, 24.0, 31.0, 41.0, 63.0, 136.0, 205.0, 293.0, 380.0, 472.0, 557.0, 629.0, 691.0, 738.0, 765.0, 778.0, 784.0, 786.0, 786.0, 786.0, 786.0, 786.0, 786.0, 786.0, 786.0, 786.0, 786.0, 786.0, 786.0, 786.0, 786.0, 786.0]	[-490.0, -490.0, -491.0, -491.0, -491.0, -491.0, -491.0, -489.0, -476.0, -465.0, -425.0, -397.0, -368.0, -333.0, -289.0, -248.0, -204.0, -173.0, -122.0, -26.0, 46.0, 118.0, 179.0, 241.0, 288.0, 324.0, 369.0, 400.0, 418.0, 427.0, 430.0, 432.0, 432.0, 432.0, 432.0, 432.0, 432.0, 432.0, 432.0, 432.0, 432.0, 432.0, 432.0, 432.0, 432.0, 432.0]	[0.016567901824600995, 0.021430192631669343, 0.03164629405364394, 0.049655714188702404, 0.06646193494088948, 0.08169426850508898, 0.09984090446960181, 0.1165102506056428, 0.1314463069429621, 0.14992642553988844, 0.16661659302189946, 0.18175403587520123, 0.19988633587490767, 0.21664272202178836, 0.23147330642677844, 0.24987730768043548, 0.2665411924244836, 0.28162231540773064, 0.2998297087615356, 0.3163376043085009, 0.3316156765213236, 0.349845256539993, 0.3665941332001239, 0.3815127816051245, 0.39987787092104554, 0.4165216169785708, 0.4315126279834658, 0.4498452906263992, 0.46650849271100014, 0.48163194104563445, 0.4998389930697158, 0.5165155071299523, 0.5315269981510937, 0.5498402047669515, 0.566502041532658, 0.5817906950833276, 0.5999895550776273, 0.6164759466191754, 0.6318376454291865, 0.6500033960910514, 0.666718139545992, 0.6818559238454327, 0.6999865171965212, 0.716674295370467, 0.7318581595318392, 0.750025958288461]
26	桌子	False	inanimate	animate	left	1.383	[0.0, 0.0, 0.0, 0.0, 0.0, 0.0, 0.0, 0.0, 0.0, 0.0, 1.0, 2.0, 4.0, 12.0, 29.0, 49.0, 118.0, 181.0, 260.0, 347.0, 436.0, 515.0, 579.0, 630.0, 671.0, 701.0, 719.0, 722.0, 727.0, 728.0, 728.0, 728.0, 728.0, 728.0, 728.0, 728.0, 728.0, 728.0, 728.0, 728.0, 728.0, 728.0, 728.0, 728.0, 728.0, 728.0, 728.0, 728.0, 728.0, 728.0, 728.0, 728.0, 728.0, 728.0, 728.0, 728.0, 728.0, 728.0, 728.0, 721.0, 693.0, 571.0, 442.0, 366.0, 112.0, -48.0, -183.0, -310.0, -404.0, -480.0, -524.0, -555.0, -576.0, -602.0, -617.0, -623.0, -641.0, -648.0, -654.0, -667.0, -683.0, -698.0, -707.0, -708.0]	[-490.0, -490.0, -490.0, -490.0, -490.0, -490.0, -490.0, -490.0, -490.0, -490.0, -489.0, -487.0, -483.0, -468.0, -445.0, -412.0, -326.0, -253.0, -176.0, -94.0, -12.0, 63.0, 140.0, 204.0, 257.0, 312.0, 354.0, 362.0, 378.0, 381.0, 382.0, 382.0, 382.0, 382.0, 382.0, 382.0, 382.0, 382.0, 383.0, 383.0, 384.0, 384.0, 384.0, 384.0, 384.0, 384.0, 384.0, 384.0, 384.0, 384.0, 384.0, 384.0, 384.0, 384.0, 384.0, 384.0, 384.0, 384.0, 384.0, 386.0, 386.0, 386.0, 386.0, 386.0, 386.0, 390.0, 390.0, 390.0, 390.0, 390.0, 390.0, 390.0, 390.0, 390.0, 390.0, 390.0, 390.0, 390.0, 390.0, 390.0, 390.0, 392.0, 393.0, 393.0]	[0.009650785475969315, 0.014146825880743563, 0.01960235380101949, 0.03577540151309222, 0.05252325430046767, 0.0676525051239878, 0.08582098654005677, 0.10248999134637415, 0.11766975955106318, 0.13594985683448613, 0.15231917111668736, 0.16753443807829171, 0.1859432179480791, 0.20237055886536837, 0.2177448869915679, 0.23591575771570206, 0.2525994398165494, 0.2675539281917736, 0.285902974777855, 0.30241394229233265, 0.31774526240769774, 0.3358553758589551, 0.3523028554627672, 0.36773725820239633, 0.3857825183076784, 0.40255665371660143, 0.4177828432293609, 0.43582605535630137, 0.4524998387787491, 0.46750757505651563, 0.4859607283724472, 0.5024990024976432, 0.5177292880835012, 0.5356079775374383, 0.5524514035787433, 0.5677383504807949, 0.5859692958183587, 0.6026229405542836, 0.6178061221726239, 0.6359124808805063, 0.6526309789624065, 0.6677721765590832, 0.6858816073508933, 0.702347518876195, 0.7177798736374825, 0.735671533853747, 0.7525716212112457, 0.7677701626671478, 0.7856939082266763, 0.802631200873293, 0.8176730704726651, 0.8358593011507764, 0.8526030579814687, 0.8678200314752758, 0.8859919261885807, 0.9025800350354984, 0.9177888166159391, 0.9360095219453797, 0.9523344628978521, 0.9677791056456044, 0.9859428083291277, 1.0024193011922762, 1.0178007973590866, 1.035886334720999, 1.0525829875841737, 1.0677781157428399, 1.0859858504263684, 1.1023449247004464, 1.117859540740028, 1.1357959156157449, 1.1523789044003934, 1.1677877071779221, 1.1859357085777447, 1.2023715828545392, 1.2177964282454923, 1.2359256563941017, 1.2526035357732326, 1.267810952034779, 1.2858534815022722, 1.3023873183410615, 1.3178145530400798, 1.3359567518346012, 1.3523598581086844, 1.3677932368591428]
27	骆驼	True	inanimate	animate	right	1.166	[0.0, 0.0, 0.0, 1.0, 1.0, 3.0, 4.0, 6.0, 8.0, 16.0, 24.0, 33.0, 50.0, 105.0, 168.0, 203.0, 338.0, 432.0, 522.0, 586.0, 642.0, 679.0, 714.0, 739.0, 760.0, 777.0, 784.0, 784.0, 785.0, 785.0, 785.0, 785.0, 785.0, 785.0, 785.0, 785.0, 785.0, 785.0, 785.0, 785.0, 785.0, 785.0, 785.0, 785.0, 785.0, 785.0, 780.0, 737.0, 705.0, 505.0, 305.0, 192.0, -140.0, -286.0, -362.0, -373.0, -373.0, -364.0, -286.0, -159.0, -80.0, 208.0, 421.0, 605.0, 761.0, 864.0, 897.0, 900.0, 900.0, 900.0, 900.0]	[-490.0, -491.0, -491.0, -491.0, -491.0, -491.0, -490.0, -479.0, -457.0, -424.0, -382.0, -332.0, -273.0, -165.0, -83.0, -41.0, 88.0, 167.0, 238.0, 289.0, 332.0, 362.0, 390.0, 409.0, 423.0, 435.0, 438.0, 439.0, 440.0, 440.0, 440.0, 440.0, 440.0, 440.0, 440.0, 440.0, 440.0, 440.0, 440.0, 440.0, 440.0, 440.0, 440.0, 440.0, 440.0, 440.0, 441.0, 442.0, 442.0, 442.0, 442.0, 442.0, 442.0, 444.0, 444.0, 443.0, 443.0, 442.0, 442.0, 442.0, 442.0, 442.0, 442.0, 442.0, 442.0, 442.0, 442.0, 441.0, 441.0, 441.0, 441.0]	[0.015026782872155309, 0.020078513538464904, 0.02841591730248183, 0.046712398645468056, 0.06345752067863941, 0.07862773165106773, 0.09681601030752063, 0.11345190578140318, 0.12862279929686338, 0.14676124334800988, 0.16349680814892054, 0.1785011311294511, 0.19674368179403245, 0.21341029729228467, 0.2286129348212853, 0.24672373081557453, 0.2633688423084095, 0.2786656878888607, 0.2968126651830971, 0.3132970087463036, 0.32828289980534464, 0.3463421545457095, 0.36327296181116253, 0.37856468732934445, 0.3966143848374486, 0.4132458429085091, 0.42857033642940223, 0.44658453518059105, 0.4630842386977747, 0.47862172417808324, 0.49662261095363647, 0.5131028584437445, 0.5286144025158137, 0.5467197372345254, 0.5631395688978955, 0.578661011531949, 0.5968110609101132, 0.6134807483758777, 0.6287137645995244, 0.6468423099722713, 0.6634751334786415, 0.6787276057293639, 0.6966168765211478, 0.7134828305570409, 0.7287216493859887, 0.7468157201074064, 0.7634676583111286, 0.778469591983594, 0.7966831292724237, 0.813477062038146, 0.8286803822265938, 0.8468894822290167, 0.8637151590082794, 0.8788280258886516, 0.8970920805586502, 0.9137747386703268, 0.9286193177103996, 0.9470465296180919, 0.9637090490432456, 0.9788205507211387, 0.9970753893721849, 1.013748831464909, 1.0288866157643497, 1.0470434917369857, 1.063523739343509, 1.0788745154859498, 1.0969279675045982, 1.1134037778247148, 1.1285692100645974, 1.146689222077839, 1.1633261415408924]
28	黑板	False	animate	inanimate	right	0.802	[0.0, 1.0, 1.0, 1.0, 1.0, 1.0, 1.0, 5.0, 9.0, 9.0, 9.0, 9.0, 9.0, 7.0, -1.0, -7.0, -11.0, -11.0, -6.0, 25.0, 70.0, 129.0, 201.0, 287.0, 383.0, 487.0, 583.0, 632.0, 674.0, 701.0, 704.0, 705.0, 705.0, 700.0, 694.0, 692.0, 692.0, 692.0, 692.0, 689.0, 683.0, 682.0, 682.0, 691.0, 702.0, 711.0, 715.0, 715.0, 715.0]	[-490.0, -489.0, -489.0, -489.0, -489.0, -488.0, -488.0, -484.0, -475.0, -468.0, -461.0, -456.0, -452.0, -448.0, -440.0, -432.0, -417.0, -397.0, -364.0, -295.0, -230.0, -158.0, -75.0, -1.0, 82.0, 163.0, 231.0, 268.0, 299.0, 326.0, 331.0, 337.0, 338.0, 341.0, 341.0, 341.0, 342.0, 342.0, 343.0, 345.0, 345.0, 346.0, 346.0, 353.0, 358.0, 362.0, 364.0, 364.0, 364.0]	[0.010980278137139976, 0.015897182282060385, 0.022139141685329378, 0.038687997264787555, 0.05538430868182331, 0.07055110624060035, 0.08869467035401613, 0.10522338713053614, 0.12035229674074799, 0.13874025538098067, 0.15533655614126474, 0.17054636171087623, 0.18874146707821637, 0.20520601328462362, 0.22054723207838833, 0.23875394277274609, 0.2554372836602852, 0.2705791637999937, 0.2886595812160522, 0.3054804792627692, 0.32060153828933835, 0.33875022223219275, 0.3553854350466281, 0.3706542912404984, 0.38852239947300404, 0.4051849188981578, 0.4206118123838678, 0.4387983843917027, 0.45521753327921033, 0.47064613341353834, 0.4885818255133927, 0.5053713209927082, 0.5205377772217616, 0.5386782692512497, 0.5554015460656956, 0.5706362689379603, 0.5886480783810839, 0.6051498298766091, 0.6205801366595551, 0.6386738660512492, 0.6553749562008306, 0.6705874924082309, 0.6886993123916909, 0.7052181306062266, 0.7204613868379965, 0.7387070094700903, 0.7553627023007721, 0.7705878678243607, 0.7884767974028364]
29	牙齿	False	inanimate	animate	left	0.875	[0.0, 3.0, 4.0, 4.0, 8.0, 11.0, 14.0, 16.0, 18.0, 18.0, 18.0, 18.0, 18.0, 18.0, 18.0, 19.0, 24.0, 36.0, 58.0, 104.0, 170.0, 261.0, 364.0, 477.0, 568.0, 660.0, 685.0, 693.0, 701.0, 702.0, 702.0, 702.0, 702.0, 702.0, 703.0, 703.0, 701.0, 700.0, 699.0, 684.0, 633.0, 511.0, 341.0, 139.0, -66.0, -242.0, -406.0, -560.0, -684.0, -777.0, -833.0, -841.0, -851.0]	[-490.0, -490.0, -489.0, -488.0, -483.0, -476.0, -468.0, -460.0, -453.0, -450.0, -449.0, -448.0, -448.0, -448.0, -448.0, -446.0, -430.0, -401.0, -352.0, -270.0, -167.0, -55.0, 63.0, 178.0, 259.0, 335.0, 352.0, 358.0, 361.0, 361.0, 361.0, 361.0, 361.0, 361.0, 362.0, 363.0, 364.0, 364.0, 364.0, 364.0, 364.0, 364.0, 364.0, 364.0, 364.0, 364.0, 364.0, 364.0, 364.0, 364.0, 364.0, 364.0, 364.0]	[0.001712400233373046, 0.008476940798573196, 0.018419975647702813, 0.0365358917042613, 0.05304105661343783, 0.06853143800981343, 0.08659001009073108, 0.10319723363500088, 0.11842205782886595, 0.1365652804961428, 0.1532452079700306, 0.1681583949830383, 0.18658765486907214, 0.2032474436564371, 0.21849035855848342, 0.2366448452230543, 0.25329337012954056, 0.2684342262800783, 0.2865747184259817, 0.3032655684510246, 0.31826067552901804, 0.3363789808936417, 0.35323708422947675, 0.36848272976931185, 0.3865419845096767, 0.40326491999439895, 0.418565861415118, 0.4365821082610637, 0.45329070766456425, 0.4684667212422937, 0.48655089328531176, 0.503013732843101, 0.5184532556449994, 0.5363937264773995, 0.5532129178754985, 0.5684220407856628, 0.5865372740663588, 0.6032359749078751, 0.6184621644206345, 0.6365477018989623, 0.6532436719862744, 0.6684702028287575, 0.686580998939462, 0.7030192625243217, 0.7184908705530688, 0.7362797894747928, 0.7532068421132863, 0.7685473782476038, 0.7865253956988454, 0.8032862191321328, 0.8184280993882567, 0.8365351407555863, 0.8532580762403086]
30	鲨鱼	True	animate	inanimate	left	1.752	[0.0, 0.0, 0.0, 0.0, 0.0, 4.0, 4.0, 9.0, 12.0, 16.0, 22.0, 23.0, 24.0, 27.0, 30.0, 34.0, 47.0, 66.0, 76.0, 130.0, 181.0, 240.0, 304.0, 372.0, 443.0, 521.0, 593.0, 651.0, 724.0, 756.0, 767.0, 787.0, 791.0, 794.0, 794.0, 794.0, 794.0, 794.0, 794.0, 786.0, 731.0, 651.0, 533.0, 382.0, 209.0, 76.0, 6.0, -6.0, -6.0, 6.0, 55.0, 157.0, 346.0, 481.0, 552.0, 722.0, 770.0, 773.0, 758.0, 694.0, 572.0, 370.0, -32.0, -166.0, -560.0, -778.0, -859.0, -960.0, -960.0, -960.0, -960.0, -960.0, -960.0, -960.0, -960.0, -960.0, -960.0, -960.0, -960.0, -960.0, -960.0, -956.0, -931.0, -881.0, -797.0, -716.0, -650.0, -617.0, -601.0, -600.0, -600.0, -600.0, -600.0, -600.0, -600.0, -600.0, -600.0, -600.0, -603.0, -642.0, -753.0, -799.0, -811.0, -817.0, -817.0, -817.0]	[-490.0, -497.0, -499.0, -499.0, -500.0, -502.0, -502.0, -502.0, -502.0, -497.0, -488.0, -479.0, -467.0, -449.0, -428.0, -399.0, -333.0, -270.0, -240.0, -139.0, -76.0, -13.0, 40.0, 90.0, 141.0, 188.0, 231.0, 259.0, 299.0, 317.0, 324.0, 336.0, 339.0, 342.0, 342.0, 342.0, 342.0, 342.0, 343.0, 346.0, 351.0, 356.0, 364.0, 364.0, 366.0, 366.0, 366.0, 368.0, 368.0, 371.0, 379.0, 388.0, 404.0, 404.0, 404.0, 406.0, 406.0, 406.0, 409.0, 415.0, 417.0, 417.0, 417.0, 417.0, 417.0, 417.0, 417.0, 417.0, 417.0, 417.0, 417.0, 417.0, 417.0, 417.0, 417.0, 417.0, 417.0, 417.0, 417.0, 417.0, 417.0, 417.0, 417.0, 417.0, 417.0, 409.0, 399.0, 392.0, 387.0, 387.0, 387.0, 387.0, 387.0, 387.0, 387.0, 387.0, 387.0, 387.0, 387.0, 390.0, 407.0, 413.0, 415.0, 415.0, 415.0, 415.0]	[0.011383051169104874, 0.01626479800324887, 0.021154736867174506, 0.03953723411541432, 0.05624480952974409, 0.07143584184814245, 0.08964289375580847, 0.10607262409757823, 0.12150327221024781, 0.13968984421808273, 0.15623357973527163, 0.17156865447759628, 0.1896702345693484, 0.20628462603781372, 0.22146883164532483, 0.2396373130613938, 0.25623702723532915, 0.27148096601013094, 0.28969313809648156, 0.30634848948102444, 0.3215777510777116, 0.3397039071423933, 0.3563684745458886, 0.3713325202697888, 0.3896655242424458, 0.4063457930460572, 0.421580174472183, 0.43967561062891036, 0.4563241354189813, 0.47152847959659994, 0.48950649704784155, 0.506467341678217, 0.5215843046316877, 0.5396633567288518, 0.556163401575759, 0.5715370470425114, 0.5896935818018392, 0.6063264053082094, 0.6215519121615216, 0.6396753374719992, 0.6563323956215754, 0.6715056785615161, 0.6897175092017278, 0.7063626206945628, 0.7215577489696443, 0.7396600117208436, 0.756369635113515, 0.7713230994995683, 0.7896482527721673, 0.8063247668324038, 0.8213369405129924, 0.8396969097666442, 0.8563423625892028, 0.8715740134939551, 0.8897032415261492, 0.9063664436107501, 0.9215554278343916, 0.9397522398503497, 0.9563932553865016, 0.9713293117238209, 0.9896998623153195, 1.006341901840642, 1.0216732219560072, 1.0397068767342716, 1.056195657583885, 1.0715938790235668, 1.089700579061173, 1.106337157310918, 1.1215851921588182, 1.1398512948071584, 1.156313793035224, 1.1716212198371068, 1.1896760372910649, 1.206291452748701, 1.2216343781910837, 1.2398520115530118, 1.2564107658108696, 1.2715089553967118, 1.2895552394911647, 1.3062023989623412, 1.3214838844724, 1.3393171766074374, 1.3563418505946174, 1.371230120304972, 1.3896272948477417, 1.4062751369783655, 1.4214989371830598, 1.439595397328958, 1.456296828808263, 1.4714550930075347, 1.4896263050613925, 1.5062878004973754, 1.521520134061575, 1.5394749408587813, 1.5562337161973119, 1.5729296864010394, 1.5895986912073568, 1.6062021600082517, 1.6212887442670763, 1.6395599669776857, 1.6562330677406862, 1.6715169425588101, 1.6895734666613862, 1.7062434954568744, 1.7214126823237166, 1.7397234996315092]
31	奶牛	True	animate	inanimate	left	1.019	[0.0, 0.0, 0.0, 0.0, 0.0, 0.0, 0.0, 3.0, 5.0, 5.0, 5.0, 5.0, 11.0, 21.0, 46.0, 90.0, 183.0, 251.0, 290.0, 399.0, 472.0, 546.0, 615.0, 668.0, 715.0, 753.0, 779.0, 796.0, 805.0, 805.0, 805.0, 805.0, 805.0, 805.0, 805.0, 804.0, 803.0, 803.0, 802.0, 796.0, 740.0, 632.0, 562.0, 273.0, 102.0, -9.0, -44.0, -48.0, -48.0, -49.0, -62.0, -97.0, -232.0, -370.0, -532.0, -678.0, -798.0, -880.0, -916.0, -920.0, -920.0, -920.0]	[-490.0, -490.0, -490.0, -490.0, -490.0, -490.0, -490.0, -481.0, -462.0, -439.0, -413.0, -378.0, -337.0, -292.0, -235.0, -167.0, -61.0, 8.0, 41.0, 136.0, 199.0, 256.0, 308.0, 351.0, 383.0, 410.0, 427.0, 441.0, 447.0, 447.0, 447.0, 447.0, 447.0, 447.0, 447.0, 447.0, 447.0, 447.0, 447.0, 447.0, 447.0, 447.0, 447.0, 446.0, 437.0, 422.0, 414.0, 413.0, 413.0, 412.0, 411.0, 411.0, 411.0, 411.0, 412.0, 412.0, 420.0, 424.0, 424.0, 424.0, 424.0, 424.0]	[0.014887177501805127, 0.02014678018167615, 0.028070146800018847, 0.04647585470229387, 0.06312403816264123, 0.07821847312152386, 0.09624598384834826, 0.11309111653827131, 0.12821968481875956, 0.1464158141752705, 0.1628598803654313, 0.1779457819648087, 0.19631257792934775, 0.21278326818719506, 0.2282183535862714, 0.24636601365637034, 0.2629626558627933, 0.27825574669986963, 0.29631943872664124, 0.3130894781788811, 0.32829143304843456, 0.34630733844824135, 0.3630193512653932, 0.37797622894868255, 0.3964385981671512, 0.4131683602463454, 0.42828532319981605, 0.44648281787522137, 0.46311461739242077, 0.47832271619699895, 0.4964806162752211, 0.5129932904383168, 0.528314370661974, 0.5465077692642808, 0.5631737021030858, 0.5780848411377519, 0.5962939411401749, 0.6130923111923039, 0.6283075780374929, 0.6464767421130091, 0.6631150268949568, 0.6783640858484432, 0.6965185725130141, 0.7131271613761783, 0.7283332122024149, 0.7464262589346617, 0.7631259837653488, 0.7782736666267738, 0.796427811961621, 0.8130848701111972, 0.8283045743592083, 0.8464484796859324, 0.863140695146285, 0.8783621060429141, 0.8964626621454954, 0.9131101629463956, 0.928293003118597, 0.9464891324751079, 0.9631745213409886, 0.9780771270161495, 0.9964015976293012, 1.0129402132006362]
32	牙齿	False	animate	inanimate	right	0.805	[0.0, 0.0, 0.0, 0.0, 0.0, 0.0, 2.0, 5.0, 6.0, 6.0, 11.0, 26.0, 44.0, 83.0, 128.0, 177.0, 226.0, 284.0, 332.0, 388.0, 439.0, 497.0, 560.0, 613.0, 667.0, 719.0, 735.0, 744.0, 745.0, 746.0, 746.0, 746.0, 746.0, 746.0, 746.0, 746.0, 746.0, 746.0, 746.0, 746.0, 748.0, 748.0, 749.0, 749.0, 749.0, 749.0, 749.0, 749.0, 749.0]	[-490.0, -490.0, -490.0, -491.0, -491.0, -491.0, -482.0, -467.0, -449.0, -426.0, -395.0, -345.0, -293.0, -208.0, -135.0, -69.0, -3.0, 61.0, 123.0, 180.0, 233.0, 291.0, 356.0, 409.0, 458.0, 514.0, 536.0, 540.0, 540.0, 540.0, 540.0, 540.0, 540.0, 540.0, 540.0, 540.0, 540.0, 540.0, 540.0, 540.0, 539.0, 535.0, 529.0, 528.0, 528.0, 528.0, 528.0, 528.0, 528.0]	[0.016468915273435414, 0.02174524322617799, 0.03167974483221769, 0.04994857811834663, 0.06656023894902319, 0.0816703753080219, 0.09965692600235343, 0.11649386677891016, 0.13176306430250406, 0.14981344435364008, 0.16656778240576386, 0.18167109205387533, 0.19978700811043382, 0.21641846629790962, 0.2314535091863945, 0.249827814521268, 0.26639066473580897, 0.28140454494860023, 0.2997474475996569, 0.3164154284168035, 0.3314091700594872, 0.34972613130230457, 0.3663801174843684, 0.38167525629978627, 0.3997870763996616, 0.416160486638546, 0.4316631560213864, 0.44977190415374935, 0.4661289304494858, 0.48143738124053925, 0.49962361191865057, 0.5162659927736968, 0.5317120008403435, 0.5498937942320481, 0.566524910973385, 0.5817592925159261, 0.5998298112535849, 0.6166176000842825, 0.6317468509078026, 0.649853551061824, 0.6662829399574548, 0.6817504520295188, 0.6998598827049136, 0.7162698156898841, 0.7317001224728301, 0.7498300331644714, 0.7662996994331479, 0.7817057714564726, 0.7998568448238075]
33	皇帝	True	inanimate	animate	right	0.731	[0.0, 0.0, 0.0, 0.0, 0.0, 0.0, 0.0, 0.0, 0.0, 0.0, 0.0, -1.0, -1.0, -1.0, 1.0, 6.0, 20.0, 42.0, 83.0, 135.0, 209.0, 300.0, 393.0, 490.0, 582.0, 691.0, 734.0, 754.0, 765.0, 771.0, 771.0, 771.0, 771.0, 771.0, 771.0, 771.0, 771.0, 771.0, 771.0, 771.0, 771.0, 771.0, 771.0, 773.0, 773.0]	[-490.0, -494.0, -494.0, -495.0, -495.0, -495.0, -495.0, -495.0, -495.0, -486.0, -478.0, -464.0, -462.0, -448.0, -434.0, -414.0, -384.0, -342.0, -290.0, -233.0, -174.0, -99.0, -28.0, 54.0, 136.0, 233.0, 284.0, 312.0, 331.0, 343.0, 345.0, 346.0, 346.0, 346.0, 346.0, 346.0, 346.0, 346.0, 346.0, 346.0, 346.0, 346.0, 346.0, 349.0, 350.0]	[0.009212855016812682, 0.013857375364750624, 0.018916956731118262, 0.03511116711888462, 0.05176105722784996, 0.06697939615696669, 0.08496082690544426, 0.10158545838203281, 0.11691985058132559, 0.13521121186204255, 0.15165903279557824, 0.16699752095155418, 0.18520389031618834, 0.20171690580900759, 0.2170082899974659, 0.2351610700134188, 0.2517754614818841, 0.2669385044137016, 0.2850916257593781, 0.3015486627118662, 0.3169639507541433, 0.3350948855513707, 0.35176457301713526, 0.36701158387586474, 0.3849233826622367, 0.4017333580413833, 0.416990608908236, 0.43486656772438437, 0.451639337814413, 0.467019468662329, 0.484901912859641, 0.5017647948116064, 0.5170394537271932, 0.5348693325649947, 0.5515762253198773, 0.5670263294596225, 0.585153509513475, 0.6018327543279156, 0.6170217385515571, 0.6351270732702687, 0.6517766220495105, 0.6668102997355163, 0.6849989197216928, 0.701536169857718, 0.7170135806081817]
34	猴子	True	animate	inanimate	left	0.85	[0.0, 0.0, 0.0, 0.0, 0.0, 0.0, 0.0, 0.0, 1.0, 2.0, 7.0, 11.0, 22.0, 36.0, 67.0, 115.0, 170.0, 251.0, 339.0, 476.0, 551.0, 586.0, 668.0, 705.0, 730.0, 742.0, 747.0, 748.0, 748.0, 748.0, 748.0, 748.0, 748.0, 748.0, 748.0, 748.0, 748.0, 748.0, 748.0, 747.0, 696.0, 559.0, 356.0, 1.0, -237.0, -343.0, -579.0, -687.0, -744.0, -761.0, -765.0, -765.0]	[-490.0, -492.0, -492.0, -492.0, -492.0, -492.0, -492.0, -492.0, -491.0, -486.0, -472.0, -462.0, -442.0, -414.0, -365.0, -297.0, -226.0, -146.0, -58.0, 68.0, 149.0, 186.0, 289.0, 343.0, 381.0, 405.0, 419.0, 428.0, 429.0, 430.0, 430.0, 430.0, 430.0, 430.0, 430.0, 430.0, 430.0, 430.0, 430.0, 432.0, 438.0, 438.0, 441.0, 471.0, 505.0, 516.0, 540.0, 540.0, 540.0, 540.0, 538.0, 538.0]	[0.011525045847520232, 0.016573022003285587, 0.021477979491464794, 0.039779922110028565, 0.05624651629477739, 0.07173348439391702, 0.0897784031694755, 0.10621939739212394, 0.12142613099422306, 0.1398151135072112, 0.15623665181919932, 0.17163487325888127, 0.1898794719018042, 0.2064723593648523, 0.2215241277590394, 0.2395768971182406, 0.25615203531924635, 0.27156595804262906, 0.2897416074993089, 0.30621263897046447, 0.32138353260234, 0.33976125123444945, 0.3561268107732758, 0.3716752188047394, 0.38946994044817984, 0.4063768544001505, 0.4213705960428342, 0.43977801059372723, 0.45630024222191423, 0.4713912637671456, 0.489673750475049, 0.5063065738650039, 0.5213361555943266, 0.5395015649264678, 0.5563504522433504, 0.5713895912049338, 0.5896277045831084, 0.6063762400299311, 0.6216990267857909, 0.6394606390967965, 0.6562719797948375, 0.6713978173211217, 0.691451481776312, 0.7080133080016822, 0.721835594275035, 0.7397405663505197, 0.7563348192488775, 0.7716818406479433, 0.7894878262886778, 0.8062937055947259, 0.8216356071643531, 0.839400973985903]
35	乌鸦	True	inanimate	animate	right	1.351	[0.0, 0.0, 0.0, 0.0, 0.0, 0.0, 0.0, 0.0, 0.0, 0.0, 0.0, 6.0, 15.0, 18.0, 18.0, 18.0, 18.0, 18.0, 18.0, 18.0, 18.0, 18.0, 18.0, 18.0, 18.0, 18.0, 18.0, 18.0, 18.0, 18.0, 18.0, 18.0, 18.0, 18.0, 18.0, 18.0, 18.0, 18.0, 18.0, 18.0, 63.0, 107.0, 188.0, 318.0, 499.0, 718.0, 922.0, 959.0, 959.0, 959.0, 959.0, 958.0, 940.0, 925.0, 908.0, 887.0, 866.0, 846.0, 822.0, 803.0, 787.0, 780.0, 779.0, 779.0, 779.0, 779.0, 779.0, 781.0, 781.0, 781.0, 781.0, 781.0, 781.0, 780.0, 780.0, 780.0, 780.0, 780.0, 780.0, 780.0, 780.0, 779.0]	[-490.0, -490.0, -490.0, -490.0, -490.0, -490.0, -490.0, -490.0, -490.0, -490.0, -486.0, -475.0, -456.0, -442.0, -442.0, -442.0, -442.0, -442.0, -442.0, -442.0, -442.0, -442.0, -442.0, -442.0, -442.0, -442.0, -442.0, -442.0, -442.0, -442.0, -442.0, -442.0, -442.0, -442.0, -442.0, -442.0, -442.0, -442.0, -442.0, -442.0, -447.0, -416.0, -396.0, -358.0, -303.0, -229.0, -149.0, -85.0, -47.0, -31.0, -31.0, -29.0, -26.0, -23.0, -17.0, -7.0, 6.0, 26.0, 59.0, 87.0, 124.0, 169.0, 190.0, 199.0, 225.0, 238.0, 249.0, 264.0, 277.0, 281.0, 282.0, 284.0, 285.0, 298.0, 317.0, 327.0, 354.0, 372.0, 389.0, 406.0, 418.0, 421.0]	[0.011367350001819432, 0.01591185969300568, 0.021161222248338163, 0.039531772839836776, 0.0561243190895766, 0.07129077531863004, 0.08955448865890503, 0.10608627751935273, 0.12128345365636051, 0.13944544969126582, 0.156115478486754, 0.1712996840942651, 0.18944290676154196, 0.20616413559764624, 0.2212783677969128, 0.23953388910740614, 0.25610151805449277, 0.27114168100524694, 0.28994947928003967, 0.30724858515895903, 0.32139957521576434, 0.3397807071451098, 0.3565046666190028, 0.3713823549915105, 0.3895583456614986, 0.40622018242720515, 0.4215327292913571, 0.43968994671013206, 0.4563736288109794, 0.47153974371030927, 0.489835542277433, 0.50651444576215, 0.5216146834427491, 0.539841874036938, 0.556472308235243, 0.5717483323533088, 0.5899215923855081, 0.6065506612649187, 0.6216693308670074, 0.6399019828531891, 0.6565433396026492, 0.6716927292291075, 0.6896977119613439, 0.7065629833377898, 0.721670730272308, 0.7397214517695829, 0.7565403017215431, 0.7716828646371141, 0.7896922847721726, 0.8065520948730409, 0.8216891963966191, 0.8398665525019169, 0.8565311199054122, 0.8716839228291065, 0.8899333000881597, 0.9065152650000528, 0.921587513294071, 0.9397136693587527, 0.9565048713702708, 0.9717013649642467, 0.9898838410153985, 1.0064934537513182, 1.021674587391317, 1.039910311345011, 1.056521630845964, 1.071685015107505, 1.0898220938397571, 1.1063422773731872, 1.1216589201940224, 1.1395970016019419, 1.1565182516351342, 1.171497315983288, 1.1898897119099274, 1.2062347915489227, 1.221581471618265, 1.239534913096577, 1.2562981259543449, 1.2712911849375814, 1.2893681889399886, 1.3062594016082585, 1.3216101777506992, 1.339414797956124]
36	核桃	False	inanimate	animate	left	1.333	[0.0, 0.0, 0.0, 0.0, 0.0, 0.0, 0.0, -5.0, -17.0, -33.0, -48.0, -57.0, -61.0, -61.0, -61.0, -51.0, -30.0, 37.0, 72.0, 201.0, 310.0, 418.0, 517.0, 600.0, 639.0, 651.0, 652.0, 652.0, 652.0, 652.0, 652.0, 652.0, 652.0, 652.0, 652.0, 652.0, 652.0, 652.0, 653.0, 656.0, 658.0, 658.0, 654.0, 636.0, 622.0, 606.0, 599.0, 597.0, 588.0, 556.0, 451.0, 276.0, -75.0, -296.0, -382.0, -581.0, -670.0, -714.0, -735.0, -740.0, -740.0, -740.0, -740.0, -740.0, -740.0, -740.0, -740.0, -740.0, -741.0, -738.0, -734.0, -734.0, -734.0, -734.0, -734.0, -734.0, -733.0, -732.0, -732.0, -729.0, -729.0]	[-490.0, -490.0, -490.0, -490.0, -490.0, -490.0, -488.0, -474.0, -461.0, -443.0, -423.0, -409.0, -397.0, -379.0, -354.0, -315.0, -259.0, -137.0, -90.0, 45.0, 129.0, 199.0, 256.0, 294.0, 312.0, 317.0, 318.0, 318.0, 318.0, 318.0, 318.0, 318.0, 318.0, 318.0, 318.0, 318.0, 318.0, 318.0, 320.0, 322.0, 324.0, 327.0, 327.0, 330.0, 333.0, 336.0, 337.0, 338.0, 340.0, 348.0, 357.0, 362.0, 362.0, 362.0, 362.0, 357.0, 346.0, 340.0, 338.0, 337.0, 337.0, 337.0, 337.0, 337.0, 337.0, 337.0, 337.0, 337.0, 337.0, 342.0, 347.0, 350.0, 352.0, 354.0, 355.0, 355.0, 357.0, 357.0, 357.0, 360.0, 360.0]	[0.013516383478417993, 0.018884530174545944, 0.025843289215117693, 0.04391073598526418, 0.060351730207912624, 0.0757475623395294, 0.09395188372582197, 0.11052838724572212, 0.12584468873683363, 0.1438762954203412, 0.16053881496191025, 0.1756038952153176, 0.19364915532059968, 0.2105116960592568, 0.22578737884759903, 0.24391114560421556, 0.26050539838615805, 0.2757305639097467, 0.2939109919825569, 0.31060525542125106, 0.3257809276692569, 0.3439494089689106, 0.36053546983748674, 0.375961339334026, 0.393643420888111, 0.4103581643430516, 0.4255812818882987, 0.44392418453935534, 0.4605464267078787, 0.4757681788178161, 0.4939537268364802, 0.5105353504186496, 0.5258608679287136, 0.5439132959581912, 0.5603457569377497, 0.5757071143016219, 0.5939373769797385, 0.6105384564725682, 0.6258639739826322, 0.6438904608367011, 0.6604539935942739, 0.6757774631259963, 0.6938882592367008, 0.7103152588242665, 0.7257373735774308, 0.7438870816258714, 0.7605117131024599, 0.7757293692557141, 0.7936503840610385, 0.8105538848321885, 0.8257780263666064, 0.843959478312172, 0.8605605578050017, 0.8758021073881537, 0.8936941089341417, 0.9105668895645067, 0.9257865938125178, 0.9439810165204108, 0.9602779680863023, 0.9757816615747288, 0.9939282975392416, 1.0105710197240114, 1.0257838972611353, 1.0439796852879226, 1.0605599434347823, 1.075852692942135, 1.0939863583771512, 1.1105365791590884, 1.125833083409816, 1.1437022155150771, 1.1604568950133398, 1.175768076442182, 1.1935720139881596, 1.2104325067484751, 1.2255504936911166, 1.243851070990786, 1.2604374730726704, 1.275735683972016, 1.2940635678824037, 1.3106677193427458, 1.3257781970314682]
37	电视	False	animate	inanimate	right	1.129	[0.0, 0.0, 0.0, 0.0, 0.0, 0.0, 1.0, 2.0, 3.0, 8.0, 13.0, 34.0, 61.0, 110.0, 214.0, 264.0, 417.0, 522.0, 628.0, 707.0, 755.0, 773.0, 777.0, 777.0, 777.0, 777.0, 775.0, 773.0, 772.0, 772.0, 772.0, 772.0, 772.0, 772.0, 772.0, 769.0, 765.0, 753.0, 734.0, 727.0, 703.0, 699.0, 699.0, 699.0, 699.0, 699.0, 699.0, 702.0, 702.0, 702.0, 702.0, 694.0, 578.0, 459.0, 377.0, 355.0, 355.0, 376.0, 452.0, 579.0, 722.0, 919.0, 959.0, 959.0, 959.0, 958.0, 953.0, 952.0]	[-490.0, -490.0, -490.0, -490.0, -490.0, -490.0, -488.0, -485.0, -479.0, -465.0, -442.0, -398.0, -338.0, -253.0, -89.0, -23.0, 176.0, 309.0, 430.0, 522.0, 540.0, 540.0, 540.0, 540.0, 540.0, 540.0, 540.0, 540.0, 540.0, 540.0, 540.0, 540.0, 540.0, 540.0, 538.0, 533.0, 525.0, 510.0, 498.0, 493.0, 479.0, 476.0, 475.0, 475.0, 475.0, 475.0, 474.0, 474.0, 474.0, 474.0, 474.0, 474.0, 464.0, 447.0, 437.0, 432.0, 432.0, 432.0, 450.0, 468.0, 489.0, 504.0, 504.0, 504.0, 504.0, 503.0, 502.0, 501.0]	[0.005620323587208986, 0.011353696580044925, 0.026447448879480362, 0.04463436221703887, 0.06131838576402515, 0.07640019129030406, 0.09466424596030265, 0.111360898707062, 0.12661678425502032, 0.14457944175228477, 0.161341289174743, 0.17651559610385448, 0.19448542152531445, 0.21130324760451913, 0.226490183849819, 0.2446535452036187, 0.26125325937755406, 0.2762708943337202, 0.2946417862549424, 0.311274268431589, 0.3266025165794417, 0.34467678994406015, 0.3613147333962843, 0.37648835766594857, 0.39468175638467073, 0.4112886384828016, 0.4265144867822528, 0.44477103208191693, 0.46135026623960584, 0.4762706212932244, 0.494618643890135, 0.5112408860586584, 0.526551726157777, 0.544359759776853, 0.5612714524613693, 0.5766355405794457, 0.594597173971124, 0.6110077896155417, 0.626312144449912, 0.644658119068481, 0.6612834332045168, 0.6765304440632463, 0.6945234801387414, 0.7112911302829161, 0.7262804346391931, 0.7444120519794524, 0.7613158939639106, 0.7766851021442562, 0.7948078447952867, 0.8114809456747025, 0.8263948153471574, 0.8447936965385452, 0.861129560158588, 0.8764373284066096, 0.8944563057739288, 0.9109874119749293, 0.9265535693848506, 0.944217219017446, 0.9611603143857792, 0.9764452131930739, 0.994559763930738, 1.0113045446341857, 1.0264433529227972, 1.044680100865662, 1.0613631003070623, 1.0764769912930205, 1.0946659526089206, 1.1113199387909845]
38	蚂蚁	True	inanimate	animate	right	0.78	[0.0, -2.0, -3.0, -7.0, -13.0, -16.0, -17.0, -17.0, -18.0, -18.0, -18.0, -18.0, -18.0, -18.0, -19.0, -19.0, -15.0, -8.0, -1.0, 7.0, 45.0, 64.0, 187.0, 296.0, 425.0, 544.0, 646.0, 706.0, 734.0, 742.0, 742.0, 742.0, 742.0, 742.0, 737.0, 736.0, 736.0, 735.0, 735.0, 733.0, 726.0, 720.0, 716.0, 716.0, 716.0, 717.0, 717.0]	[-490.0, -482.0, -479.0, -469.0, -460.0, -455.0, -451.0, -449.0, -447.0, -447.0, -447.0, -447.0, -447.0, -447.0, -445.0, -438.0, -424.0, -400.0, -367.0, -315.0, -208.0, -166.0, -10.0, 104.0, 213.0, 318.0, 404.0, 460.0, 489.0, 498.0, 498.0, 498.0, 498.0, 498.0, 497.0, 497.0, 497.0, 497.0, 497.0, 495.0, 488.0, 480.0, 470.0, 456.0, 451.0, 448.0, 448.0]	[0.006049379357136786, 0.012327520176768303, 0.027081304579041898, 0.045127588673494756, 0.06189387338235974, 0.07680398842785507, 0.095211744424887, 0.11201898916624486, 0.12683318951167166, 0.14526006008964032, 0.16188469156622887, 0.17705490242224187, 0.19528175180312246, 0.21166949812322855, 0.22711106890346855, 0.24523961427621543, 0.2620335469255224, 0.27685320866294205, 0.29532547655981034, 0.3120006254175678, 0.3272203295491636, 0.3453324909787625, 0.36180113325826824, 0.3771850187331438, 0.39531731873285025, 0.4120385474525392, 0.4271500491304323, 0.44542024773545563, 0.46205136459320784, 0.4771778847789392, 0.49532383820042014, 0.5117832644609734, 0.527131651295349, 0.5453318766085431, 0.5619544601067901, 0.5772031776141375, 0.5951897284248844, 0.6120010691229254, 0.6272067786194384, 0.6450960495276377, 0.6617766596609727, 0.6769414092414081, 0.6953047917922959, 0.7117567086825147, 0.7272006687708199, 0.7452827928354964, 0.7619896857067943]
39	青蛙	True	animate	inanimate	left	1.332	[0.0, 4.0, 6.0, 6.0, 6.0, 6.0, 7.0, 6.0, 2.0, 2.0, 2.0, 2.0, 2.0, 2.0, 2.0, 2.0, 15.0, 29.0, 59.0, 109.0, 195.0, 303.0, 427.0, 547.0, 648.0, 710.0, 780.0, 789.0, 795.0, 795.0, 794.0, 794.0, 794.0, 792.0, 787.0, 783.0, 782.0, 781.0, 781.0, 779.0, 773.0, 771.0, 771.0, 771.0, 771.0, 771.0, 771.0, 771.0, 771.0, 771.0, 766.0, 764.0, 754.0, 749.0, 747.0, 747.0, 747.0, 747.0, 748.0, 751.0, 754.0, 754.0, 754.0, 754.0, 754.0, 754.0, 724.0, 621.0, 416.0, 141.0, -180.0, -463.0, -663.0, -798.0, -814.0, -818.0, -818.0, -818.0, -818.0, -818.0, -818.0]	[-490.0, -488.0, -487.0, -487.0, -487.0, -487.0, -487.0, -487.0, -489.0, -495.0, -498.0, -501.0, -503.0, -504.0, -504.0, -505.0, -487.0, -467.0, -431.0, -372.0, -280.0, -180.0, -64.0, 58.0, 176.0, 266.0, 391.0, 416.0, 457.0, 466.0, 468.0, 468.0, 468.0, 468.0, 468.0, 468.0, 467.0, 467.0, 467.0, 467.0, 465.0, 464.0, 463.0, 463.0, 463.0, 463.0, 463.0, 463.0, 463.0, 463.0, 461.0, 459.0, 453.0, 449.0, 449.0, 448.0, 448.0, 447.0, 446.0, 446.0, 446.0, 446.0, 446.0, 446.0, 446.0, 446.0, 446.0, 446.0, 446.0, 452.0, 464.0, 466.0, 466.0, 466.0, 466.0, 466.0, 466.0, 465.0, 464.0, 464.0, 464.0]	[0.010735883610323071, 0.015900254249572754, 0.02207224047742784, 0.03812548017594963, 0.05482895963359624, 0.0699814212275669, 0.08814136928413063, 0.10467349947430193, 0.12006079824641347, 0.13790637848433107, 0.1547037245472893, 0.16980498610064387, 0.18811853404622525, 0.20478685619309545, 0.21996150445193052, 0.2381904018111527, 0.2548809106228873, 0.27002483885735273, 0.2882025361759588, 0.3049206929281354, 0.32000079192221165, 0.3379221480572596, 0.3547529447823763, 0.37001326761674136, 0.3880895890761167, 0.40480876981746405, 0.41978442075196654, 0.4379631421761587, 0.4547086055390537, 0.46997234178707004, 0.48800975119229406, 0.5046978706959635, 0.519980380195193, 0.5379126589978114, 0.5547236583661288, 0.5700027545681223, 0.5881265213247389, 0.6047682194039226, 0.619813502416946, 0.6382185276597738, 0.6548028817633167, 0.6700355566572398, 0.6881176807219163, 0.7048481254605576, 0.7200125337112695, 0.7381045564543456, 0.7547643452417105, 0.7700489028356969, 0.7880883602192625, 0.8047699943417683, 0.820075714495033, 0.838137699989602, 0.8546609554905444, 0.8700649795355275, 0.8880689383950084, 0.904516076669097, 0.9199900740059093, 0.9378650088328868, 0.9547770428471267, 0.9701162136625499, 0.9881082258652896, 1.0047523132525384, 1.0199853294761851, 1.0380660882219672, 1.0547583036823198, 1.0699817625572905, 1.0881400039652362, 1.1047967207850888, 1.1200450969627127, 1.137913205078803, 1.1547788177849725, 1.1700278766220436, 1.1881929447408766, 1.2047916349256411, 1.2200584430247545, 1.2379603432491422, 1.2547907986445352, 1.2698272069683298, 1.288156456197612, 1.3047073597554117, 1.3200816878816113]
40	石头	False	animate	inanimate	right	0.666	[0.0, 1.0, 1.0, 1.0, 1.0, 2.0, 3.0, 7.0, 11.0, 13.0, 19.0, 30.0, 52.0, 97.0, 143.0, 164.0, 242.0, 299.0, 369.0, 447.0, 531.0, 618.0, 699.0, 771.0, 829.0, 884.0, 899.0, 904.0, 904.0, 904.0, 904.0, 904.0, 904.0, 902.0, 897.0, 894.0, 893.0, 893.0, 893.0, 893.0, 893.0]	[-490.0, -490.0, -490.0, -490.0, -490.0, -490.0, -483.0, -473.0, -456.0, -435.0, -408.0, -369.0, -318.0, -231.0, -163.0, -133.0, -31.0, 31.0, 98.0, 164.0, 223.0, 278.0, 336.0, 388.0, 434.0, 480.0, 494.0, 499.0, 499.0, 499.0, 499.0, 499.0, 499.0, 499.0, 499.0, 499.0, 499.0, 499.0, 499.0, 499.0, 499.0]	[0.015061257407069206, 0.019745372352190316, 0.02848759724292904, 0.04681787046138197, 0.06367221917025745, 0.07852055295370519, 0.09701022878289223, 0.11361164960544556, 0.12857979128602892, 0.14686432597227395, 0.16370126663241535, 0.1788438295479864, 0.19697237492073327, 0.21360451576765627, 0.2288313879398629, 0.2469455973478034, 0.26342550362460315, 0.2785909358644858, 0.2967662438750267, 0.3136543845757842, 0.32863276614807546, 0.3469015995506197, 0.3633716070326045, 0.3786466072779149, 0.3970287631964311, 0.4137790052918717, 0.4289055254776031, 0.446885249693878, 0.463745059678331, 0.47888864658307284, 0.4970666852314025, 0.5137428580783308, 0.5286567277507856, 0.5470515129854903, 0.5636464485432953, 0.5786487235454842, 0.5970431674504653, 0.6137439162703231, 0.6285792792914435, 0.6469122832641006, 0.6635799227515236]
41	警察	True	inanimate	animate	right	0.653	[0.0, 1.0, 1.0, 1.0, 1.0, 1.0, 1.0, 3.0, 4.0, 1.0, -6.0, -9.0, -9.0, 8.0, 76.0, 98.0, 219.0, 311.0, 365.0, 511.0, 604.0, 693.0, 760.0, 814.0, 844.0, 859.0, 865.0, 865.0, 865.0, 865.0, 865.0, 865.0, 865.0, 865.0, 864.0, 863.0, 863.0, 863.0, 863.0, 863.0]	[-490.0, -491.0, -491.0, -491.0, -491.0, -491.0, -491.0, -489.0, -476.0, -456.0, -427.0, -398.0, -365.0, -320.0, -227.0, -204.0, -110.0, -42.0, -11.0, 65.0, 121.0, 172.0, 218.0, 261.0, 296.0, 325.0, 360.0, 370.0, 391.0, 397.0, 398.0, 400.0, 400.0, 401.0, 401.0, 401.0, 401.0, 401.0, 401.0, 401.0]	[0.012122378800995648, 0.0168266324326396, 0.02251426677685231, 0.04108483868185431, 0.05771766207180917, 0.07292098237667233, 0.09086350118741393, 0.10751168464776129, 0.12287782074417919, 0.14109135803300887, 0.15754327503964305, 0.17288210452534258, 0.19107311381958425, 0.20763016131240875, 0.22293963620904833, 0.24106237886007875, 0.2577242157422006, 0.27274389867670834, 0.2909342253115028, 0.30768412607721984, 0.3230714249657467, 0.3410224770195782, 0.35751603660173714, 0.3729241567198187, 0.39085131557658315, 0.40767562692053616, 0.4229069364955649, 0.4409088472602889, 0.45774169196374714, 0.4729064415441826, 0.49086807505227625, 0.5077149143908173, 0.5229431518819183, 0.5410495105898008, 0.5577250007772818, 0.5729505076305941, 0.5910691543249413, 0.6077818498015404, 0.6229721993440762, 0.6410963074304163]
42	军队	True	inanimate	animate	right	0.803	[0.0, 0.0, 0.0, 0.0, 0.0, 1.0, 3.0, 6.0, 6.0, 6.0, 7.0, 7.0, 7.0, 7.0, 12.0, 20.0, 42.0, 73.0, 109.0, 164.0, 228.0, 307.0, 433.0, 517.0, 583.0, 626.0, 647.0, 654.0, 654.0, 654.0, 654.0, 654.0, 654.0, 654.0, 654.0, 654.0, 654.0, 654.0, 654.0, 656.0, 664.0, 676.0, 689.0, 694.0, 695.0, 695.0, 695.0, 695.0, 695.0]	[-490.0, -489.0, -489.0, -489.0, -487.0, -484.0, -479.0, -472.0, -463.0, -449.0, -424.0, -408.0, -395.0, -380.0, -361.0, -339.0, -299.0, -248.0, -194.0, -127.0, -63.0, 16.0, 146.0, 228.0, 301.0, 354.0, 387.0, 400.0, 404.0, 405.0, 405.0, 405.0, 405.0, 405.0, 405.0, 405.0, 405.0, 405.0, 405.0, 406.0, 409.0, 411.0, 414.0, 414.0, 415.0, 415.0, 415.0, 415.0, 415.0]	[0.013775455416180193, 0.018238727818243206, 0.025855235988274217, 0.044033957296051085, 0.060553116840310395, 0.07588443695567548, 0.09405735565815121, 0.11067516054026783, 0.1258873554179445, 0.1439032608177513, 0.16069719358347356, 0.17602612439077348, 0.19391027523670346, 0.21057723206467927, 0.2259368827799335, 0.24394732690416276, 0.26064193178899586, 0.27609544910956174, 0.2941570932744071, 0.31081585807260126, 0.3260287356097251, 0.3440088010393083, 0.3607365151401609, 0.3759831846691668, 0.39411377802025527, 0.4105578443268314, 0.4257871058071032, 0.44397231249604374, 0.46064985066186637, 0.47610439208801836, 0.49404588690958917, 0.510804662364535, 0.5259929639287293, 0.5442105971742421, 0.5607731060590595, 0.5757784530287609, 0.5941254516365007, 0.6108265417860821, 0.6258667047368363, 0.6439607754582539, 0.6606509429402649, 0.6759092177962884, 0.6941203657770529, 0.710857295896858, 0.7259930321015418, 0.7441028042230755, 0.7606031903997064, 0.7760311078745872, 0.7942371359094977]
