trialIndex	left_option	right_option	response	response_time	xTrajectory	yTrajectory	tTrajectory
0	images/0081.jpg	images/0393.jpg	right	2.134	[0.0, 0.0, 0.0, 0.0, 0.0, 0.0, 0.0, 0.0, 0.0, 0.0, 0.0, 0.0, 0.0, 0.0, 0.0, 0.0, 0.0, 0.0, 0.0, 0.0, 0.0, 0.0, 0.0, 0.0, -1.0, -4.0, -11.0, -16.0, -21.0, -27.0, -41.0, -57.0, -73.0, -97.0, -106.0, -113.0, -118.0, -122.0, -123.0, -123.0, -123.0, -123.0, -123.0, -121.0, -108.0, -86.0, -54.0, 3.0, 71.0, 147.0, 219.0, 290.0, 347.0, 371.0, 399.0, 404.0, 411.0, 411.0, 409.0, 400.0, 333.0, 300.0, 98.0, 98.0, -18.0, -137.0, -272.0, -308.0, -381.0, -417.0, -446.0, -480.0, -517.0, -532.0, -579.0, -595.0, -629.0, -663.0, -704.0, -709.0, -714.0, -714.0, -714.0, -714.0, -714.0, -714.0, -714.0, -714.0, -714.0, -714.0, -714.0, -714.0, -701.0, -683.0, -638.0, -548.0, -456.0, -335.0, -208.0, -84.0, 33.0, 142.0, 291.0, 335.0, 448.0, 503.0, 539.0, 554.0, 556.0, 556.0, 556.0, 556.0, 556.0, 556.0, 556.0, 556.0, 558.0, 580.0, 663.0, 774.0, 856.0, 886.0, 890.0, 890.0, 890.0, 890.0, 890.0]	[-490.0, -490.0, -490.0, -490.0, -490.0, -490.0, -490.0, -490.0, -490.0, -490.0, -490.0, -490.0, -490.0, -490.0, -490.0, -490.0, -490.0, -490.0, -490.0, -490.0, -490.0, -490.0, -489.0, -487.0, -480.0, -469.0, -449.0, -429.0, -407.0, -379.0, -332.0, -278.0, -233.0, -184.0, -162.0, -145.0, -132.0, -120.0, -115.0, -112.0, -108.0, -106.0, -103.0, -99.0, -92.0, -84.0, -75.0, -58.0, -39.0, -16.0, 13.0, 44.0, 71.0, 83.0, 101.0, 103.0, 110.0, 110.0, 113.0, 117.0, 137.0, 140.0, 175.0, 175.0, 208.0, 241.0, 279.0, 291.0, 309.0, 322.0, 329.0, 339.0, 345.0, 347.0, 347.0, 347.0, 347.0, 345.0, 334.0, 331.0, 327.0, 327.0, 327.0, 327.0, 327.0, 327.0, 327.0, 327.0, 327.0, 327.0, 327.0, 327.0, 332.0, 335.0, 342.0, 355.0, 368.0, 385.0, 399.0, 417.0, 435.0, 455.0, 480.0, 486.0, 504.0, 512.0, 514.0, 518.0, 518.0, 518.0, 518.0, 518.0, 518.0, 518.0, 518.0, 518.0, 518.0, 511.0, 479.0, 432.0, 402.0, 393.0, 393.0, 393.0, 393.0, 393.0, 393.0]	[0.014068382675759494, 0.018622106756083667, 0.02737013134174049, 0.04384252260206267, 0.060737825522664934, 0.07715594483306631, 0.0943096368573606, 0.112058955070097, 0.12730357138207182, 0.14440572209423408, 0.16056203900370747, 0.1773870273027569, 0.19367270939983428, 0.21114759583724663, 0.2282777358777821, 0.2438298932975158, 0.263241162057966, 0.27754813648061827, 0.29920879000565037, 0.31085063610225916, 0.32903617789270356, 0.344166447641328, 0.36090405471622944, 0.37712112884037197, 0.39571217430057004, 0.41083527606679127, 0.42846683436073363, 0.44420535961398855, 0.4615839901380241, 0.47761776845436543, 0.493944410525728, 0.5104430844075978, 0.5270810222136788, 0.5437899573007599, 0.5624905706499703, 0.5770958702196367, 0.5955254651489668, 0.6105536763207056, 0.6287013301625848, 0.6438609545584768, 0.6621833709650673, 0.6771870061638765, 0.6944052100880072, 0.7104611750692129, 0.727967805461958, 0.7438326239353046, 0.7610521932365373, 0.7770654915948398, 0.7943106608581729, 0.8107042041956447, 0.827374910004437, 0.8438735838863067, 0.860999627970159, 0.8773740566684864, 0.894148186314851, 0.9202038440853357, 0.9272134594502859, 0.9480245350277983, 0.9605395109974779, 0.9812553546507843, 0.9940290611120872, 1.0147264727856964, 1.0309302349342033, 1.0437015520292334, 1.0608586574089713, 1.084293560066726, 1.0938440585741773, 1.1173154839198105, 1.1274571712128818, 1.1437104266951792, 1.1608907427289523, 1.1833518221974373, 1.1941618396667764, 1.216393884678837, 1.2274476138991304, 1.2436711734044366, 1.2608866466907784, 1.2808853496680968, 1.2940666077192873, 1.3134713911567815, 1.3274680938920937, 1.3455293904989958, 1.3607955108163878, 1.3790462472243235, 1.394152964989189, 1.411793056584429, 1.4274431765661575, 1.4451170601532795, 1.4608211107552052, 1.4774972778977826, 1.494088111736346, 1.5110380279365927, 1.5274001686484553, 1.543852762610186, 1.5608688974170946, 1.57710303820204, 1.5938242612755857, 1.6120927470037714, 1.6271871767821722, 1.644723161822185, 1.6605012817308307, 1.6782731278799474, 1.6940754823735915, 1.7113097290275618, 1.727365352679044, 1.7441968263010494, 1.7606309882830828, 1.7774194539524615, 1.7939782024477609, 1.810916172049474, 1.8273066433612257, 1.844479791354388, 1.860676726908423, 1.877468264545314, 1.8939966344623826, 1.9109011533437297, 1.927240083401557, 1.9442408582544886, 1.9606668282067403, 1.9775491604814306, 1.9938645385554992, 2.0110195959568955, 2.0272991340607405, 2.044278063578531, 2.060381132469047, 2.0775836351094767, 2.0940020958078094]
1	images/0564.jpg	images/0443.jpg	left	1.076	[0.0, 1.0, 1.0, 1.0, 1.0, 1.0, 1.0, 1.0, 1.0, 1.0, 1.0, 1.0, 1.0, 1.0, 1.0, 1.0, 1.0, 1.0, 1.0, 1.0, 1.0, 1.0, 1.0, 1.0, 0.0, -1.0, -4.0, -4.0, -5.0, -6.0, -9.0, -10.0, -13.0, -13.0, -14.0, -18.0, -26.0, -44.0, -70.0, -101.0, -140.0, -218.0, -279.0, -309.0, -404.0, -475.0, -550.0, -649.0, -660.0, -669.0, -682.0, -693.0, -707.0, -727.0, -745.0, -770.0, -781.0, -791.0, -804.0, -816.0, -826.0, -832.0, -832.0, -832.0, -832.0]	[-490.0, -491.0, -491.0, -491.0, -491.0, -491.0, -491.0, -491.0, -491.0, -491.0, -491.0, -491.0, -491.0, -491.0, -491.0, -491.0, -491.0, -491.0, -491.0, -491.0, -491.0, -491.0, -488.0, -484.0, -478.0, -474.0, -462.0, -462.0, -456.0, -448.0, -433.0, -422.0, -409.0, -401.0, -391.0, -379.0, -359.0, -330.0, -294.0, -252.0, -200.0, -105.0, -35.0, 4.0, 108.0, 175.0, 236.0, 318.0, 328.0, 333.0, 342.0, 349.0, 355.0, 362.0, 367.0, 375.0, 377.0, 381.0, 386.0, 391.0, 397.0, 400.0, 400.0, 400.0, 400.0]	[0.01620683417422697, 0.02443398447940126, 0.032442340336274356, 0.056554789072833955, 0.06521270168013871, 0.08262239350005984, 0.0993306459276937, 0.11590680241351947, 0.1323986497009173, 0.1532571705756709, 0.16594622639240697, 0.18586335075087845, 0.19939549919217825, 0.22606726310914382, 0.23238294839393348, 0.26002546347444877, 0.26614283421076834, 0.282682468125131, 0.29915588337462395, 0.32652055338257924, 0.3337670538458042, 0.3496083203353919, 0.3657892132177949, 0.3845840345020406, 0.3994798084604554, 0.4275196351809427, 0.43266557215247303, 0.44959603232564405, 0.4656885199365206, 0.48390000307699665, 0.4992599899414927, 0.5166399857844226, 0.5325454229023308, 0.5496694189496338, 0.565728455898352, 0.5845703811501153, 0.5993845765478909, 0.6154804774560034, 0.6322890817536972, 0.6491666353540495, 0.6666954524116591, 0.6824909802526236, 0.6992709126207046, 0.7154842321178876, 0.7321931672049686, 0.7495042137452401, 0.7669756868272088, 0.7874556693714112, 0.7992678406299092, 0.8156071120174602, 0.8323576897382736, 0.8488410036661662, 0.865508978778962, 0.8821929965051822, 0.8989022729219869, 0.9156071119941771, 0.9325498602120206, 0.9490553608047776, 0.9659192610997707, 0.9821400899090804, 0.9993139205616899, 1.0158361464855261, 1.0328123453073204, 1.0489860702073202, 1.0660629622871056]
2	images/0355.jpg	images/0204.jpg	right	1.079	[0.0, 0.0, 0.0, 0.0, 0.0, 0.0, 0.0, 0.0, 0.0, 0.0, 0.0, 0.0, 0.0, 0.0, 0.0, 0.0, 0.0, 0.0, 0.0, 0.0, 0.0, 0.0, 0.0, 0.0, 0.0, 0.0, 0.0, 0.0, 0.0, 0.0, 0.0, 0.0, 0.0, 0.0, 0.0, 0.0, 0.0, 10.0, 33.0, 91.0, 149.0, 214.0, 287.0, 355.0, 424.0, 491.0, 561.0, 610.0, 651.0, 683.0, 697.0, 704.0, 704.0, 704.0, 704.0, 703.0, 703.0, 703.0, 703.0, 703.0, 703.0, 703.0, 703.0, 703.0, 703.0]	[-490.0, -490.0, -490.0, -490.0, -490.0, -490.0, -490.0, -490.0, -490.0, -490.0, -490.0, -490.0, -490.0, -490.0, -490.0, -490.0, -490.0, -490.0, -490.0, -490.0, -490.0, -490.0, -490.0, -490.0, -490.0, -490.0, -490.0, -490.0, -490.0, -490.0, -490.0, -490.0, -490.0, -490.0, -490.0, -487.0, -478.0, -448.0, -397.0, -291.0, -217.0, -153.0, -92.0, -30.0, 42.0, 112.0, 184.0, 240.0, 293.0, 347.0, 383.0, 408.0, 435.0, 446.0, 450.0, 450.0, 450.0, 450.0, 450.0, 450.0, 450.0, 450.0, 450.0, 450.0, 450.0]	[0.00044748763320967555, 0.005293051479384303, 0.017572507669683546, 0.03400052565848455, 0.05107502843020484, 0.067313265230041, 0.08443077595438808, 0.10070519405417144, 0.11765340360580012, 0.1338957364205271, 0.15080708201276138, 0.16744945710524917, 0.18430721340700984, 0.20077892200788483, 0.21774215018376708, 0.23389437107834965, 0.2508193699759431, 0.26748495578067377, 0.2843628507107496, 0.30057446350110695, 0.31765203829854727, 0.33414081356022507, 0.35116240970091894, 0.3674859797465615, 0.384367288032081, 0.40055022889282554, 0.41771450225496665, 0.4341356935328804, 0.45104874577373266, 0.46744092379231006, 0.4843116507399827, 0.5007058767369017, 0.5176817342289723, 0.5340196402976289, 0.5510197324911132, 0.5674709610757418, 0.5844038106733933, 0.6008642552769743, 0.6177418088773265, 0.6342138588079251, 0.6510340684908442, 0.667272646620404, 0.6843461253447458, 0.7005710501689464, 0.7177513662027195, 0.73385204578517, 0.7510395298013464, 0.7674798357766122, 0.7843410053756088, 0.8008075939724222, 0.8176312169525772, 0.8341148722101934, 0.8510234871646389, 0.8674781291047111, 0.8843587546725757, 0.9008058873005211, 0.9178506940952502, 0.9341691441950388, 0.9509787724819034, 0.9671879960224032, 0.9843447600142099, 1.0007789219962433, 1.0176537449588068, 1.0341138482326642, 1.05107741773827]
3	images/0546.jpg	images/0489.jpg	left	1.778	[0.0, 0.0, 0.0, 0.0, 0.0, 0.0, 0.0, 0.0, 0.0, 0.0, 0.0, 0.0, 0.0, 0.0, 0.0, 0.0, 0.0, 0.0, 0.0, 0.0, 0.0, 0.0, 0.0, 0.0, 0.0, 0.0, 0.0, 0.0, 0.0, 0.0, 0.0, 0.0, -5.0, -15.0, -30.0, -47.0, -68.0, -82.0, -87.0, -100.0, -119.0, -152.0, -204.0, -304.0, -377.0, -466.0, -560.0, -654.0, -733.0, -807.0, -863.0, -898.0, -915.0, -924.0, -931.0, -935.0, -935.0, -942.0, -955.0, -960.0, -960.0, -960.0, -960.0, -960.0, -960.0, -960.0, -960.0, -960.0, -960.0, -960.0, -960.0, -960.0, -960.0, -960.0, -960.0, -960.0, -960.0, -954.0, -932.0, -907.0, -865.0, -838.0, -815.0, -784.0, -744.0, -695.0, -658.0, -624.0, -601.0, -584.0, -570.0, -563.0, -563.0, -563.0, -563.0, -563.0, -563.0, -570.0, -592.0, -619.0, -655.0, -687.0, -707.0, -713.0, -713.0, -713.0, -713.0]	[-490.0, -490.0, -490.0, -490.0, -490.0, -490.0, -490.0, -490.0, -490.0, -490.0, -490.0, -490.0, -490.0, -490.0, -490.0, -490.0, -490.0, -490.0, -490.0, -490.0, -490.0, -490.0, -490.0, -490.0, -490.0, -490.0, -490.0, -490.0, -490.0, -490.0, -490.0, -490.0, -477.0, -447.0, -403.0, -365.0, -318.0, -267.0, -203.0, -121.0, -30.0, 43.0, 111.0, 177.0, 210.0, 246.0, 288.0, 327.0, 366.0, 421.0, 467.0, 496.0, 510.0, 516.0, 517.0, 517.0, 517.0, 513.0, 499.0, 482.0, 466.0, 450.0, 436.0, 435.0, 435.0, 435.0, 435.0, 435.0, 435.0, 435.0, 435.0, 435.0, 435.0, 435.0, 435.0, 435.0, 435.0, 434.0, 434.0, 434.0, 428.0, 422.0, 416.0, 405.0, 387.0, 366.0, 346.0, 325.0, 309.0, 294.0, 280.0, 271.0, 271.0, 271.0, 271.0, 271.0, 271.0, 274.0, 288.0, 305.0, 329.0, 347.0, 359.0, 363.0, 363.0, 363.0, 363.0]	[0.01609555957838893, 0.021459949668496847, 0.03224027116084471, 0.0484573453431949, 0.06560489337425679, 0.08186292747268453, 0.09893231024034321, 0.1153012776048854, 0.13232765241991729, 0.14845120132667944, 0.1655581307131797, 0.1818718021386303, 0.1988841823185794, 0.21538900019368157, 0.23236588173313066, 0.24869798513827845, 0.2656089893425815, 0.28209912992315367, 0.29892172891413793, 0.3153040082543157, 0.3321900952141732, 0.3487102731014602, 0.36562810401665047, 0.38205987663241103, 0.39893333427608013, 0.4154074321850203, 0.43229761510156095, 0.4487584010930732, 0.4655874853488058, 0.4819793220376596, 0.49890022492036223, 0.5150995497824624, 0.5321136366110295, 0.5487310944008641, 0.5655857787351124, 0.582064313988667, 0.5989841928821988, 0.6150903337984346, 0.6322255938430317, 0.6486867211060598, 0.6655830480158329, 0.6818946714629419, 0.6988971529644914, 0.7153603282058612, 0.7322426604805514, 0.7487386037246324, 0.7655973840155639, 0.7818441541749053, 0.7989323102519847, 0.8150995497708209, 0.832121828570962, 0.848691841121763, 0.8655437947600149, 0.8820035567041487, 0.8988971529761329, 0.9154091388336383, 0.9323245804407634, 0.9487539637484588, 0.965594312059693, 0.9821138072875328, 0.9989575688960031, 1.0150701951351948, 1.0322556311730295, 1.0486880864482373, 1.0655591547256336, 1.0820349593413994, 1.0989340168889612, 1.1153395069413818, 1.132310927088838, 1.1486737504601479, 1.1655526693793945, 1.1821684205788188, 1.1990036488277838, 1.215078728448134, 1.2320617539808154, 1.2484914786182344, 1.2655666640494019, 1.282034959353041, 1.298886230273638, 1.315167133754585, 1.3321890712250024, 1.3486713611637242, 1.3655717840301804, 1.3817936368868686, 1.39893026225036, 1.4151357311056927, 1.4322320791543461, 1.4487102730781771, 1.4655878266785294, 1.4820513433078304, 1.4988903263001703, 1.5153545255889185, 1.5322146711987443, 1.5486686304793693, 1.5655680294148624, 1.582061241962947, 1.5990244701970369, 1.6150667818146758, 1.6322552898200229, 1.6485034252982587, 1.6655338960699737, 1.6820236953208223, 1.6989521075738594, 1.7151773737277836, 1.7321900951792486, 1.748412630695384, 1.7655069307656959]
4	images/0388.jpg	images/0346.jpg	right	1.129	[0.0, 0.0, 0.0, 0.0, 0.0, 0.0, 0.0, 0.0, 0.0, 0.0, 0.0, 0.0, 0.0, 0.0, 0.0, 0.0, 0.0, 0.0, 0.0, 0.0, 0.0, 0.0, 1.0, 4.0, 13.0, 29.0, 62.0, 105.0, 166.0, 229.0, 280.0, 337.0, 405.0, 436.0, 456.0, 465.0, 470.0, 472.0, 472.0, 472.0, 472.0, 472.0, 470.0, 470.0, 470.0, 470.0, 470.0, 470.0, 470.0, 470.0, 470.0, 470.0, 470.0, 470.0, 470.0, 474.0, 485.0, 493.0, 506.0, 515.0, 526.0, 540.0, 554.0, 565.0, 572.0, 574.0, 575.0, 575.0]	[-490.0, -490.0, -490.0, -490.0, -490.0, -490.0, -490.0, -490.0, -490.0, -490.0, -490.0, -490.0, -490.0, -490.0, -490.0, -490.0, -490.0, -490.0, -490.0, -490.0, -490.0, -490.0, -490.0, -488.0, -479.0, -458.0, -414.0, -349.0, -252.0, -152.0, -62.0, 25.0, 125.0, 188.0, 236.0, 272.0, 295.0, 310.0, 320.0, 329.0, 334.0, 336.0, 339.0, 339.0, 339.0, 339.0, 339.0, 339.0, 339.0, 339.0, 339.0, 339.0, 335.0, 332.0, 332.0, 332.0, 340.0, 347.0, 355.0, 361.0, 364.0, 368.0, 371.0, 374.0, 376.0, 377.0, 377.0, 377.0]	[0.01631503674434498, 0.020863299490883946, 0.032150159240700305, 0.04903590481262654, 0.06540862686233595, 0.08247357228538021, 0.09873570239869878, 0.11571087723132223, 0.13207847927697003, 0.1489113182760775, 0.1655158054200001, 0.18243841495132074, 0.19865890248911455, 0.21560745331225917, 0.2320938392658718, 0.24915298202540725, 0.26550932007376105, 0.28249098028754815, 0.2987292170873843, 0.31554737873375416, 0.3322382231708616, 0.3491379633778706, 0.36555710673565045, 0.38237390300491825, 0.398659243772272, 0.4158115704776719, 0.4320166980032809, 0.4490447794669308, 0.465533213398885, 0.4823397697182372, 0.49885653430828825, 0.5156320293317549, 0.5321675672312267, 0.5490792540949769, 0.5655042001162656, 0.582385849673301, 0.5985431905719452, 0.6157593465177342, 0.6318552474840544, 0.6489645661786199, 0.6654079441796057, 0.6823230443987995, 0.698797483695671, 0.71573272254318, 0.7321293379063718, 0.7490908594336361, 0.7654212561319582, 0.7823670763755217, 0.7986008758307435, 0.8156521679484285, 0.8321501592290588, 0.8490785714238882, 0.8654652881086804, 0.8824350016657263, 0.8988251316477545, 0.9156470479792915, 0.9323204844258726, 0.94904068345204, 0.9654489041422494, 0.9823629803722724, 0.9988357129623182, 1.0156999545870349, 1.0318934767856263, 1.048931456869468, 1.0654823547811247, 1.0824008683557622, 1.0988019210053608, 1.1156443172949366]
5	images/0255.jpg	images/0450.jpg	left	1.161	[0.0, 0.0, 0.0, 0.0, 0.0, 0.0, 0.0, 0.0, 0.0, 0.0, 0.0, 0.0, 0.0, 0.0, 0.0, 0.0, 0.0, 0.0, 0.0, 0.0, 0.0, 0.0, 0.0, 0.0, 0.0, 0.0, 0.0, 0.0, 1.0, -5.0, -20.0, -49.0, -145.0, -223.0, -316.0, -414.0, -513.0, -597.0, -659.0, -695.0, -709.0, -719.0, -727.0, -740.0, -761.0, -771.0, -779.0, -784.0, -789.0, -797.0, -797.0, -798.0, -798.0, -798.0, -798.0, -798.0, -798.0, -798.0, -798.0, -798.0, -798.0, -797.0, -794.0, -787.0, -783.0, -782.0, -782.0, -782.0, -782.0, -782.0]	[-490.0, -490.0, -490.0, -490.0, -490.0, -490.0, -490.0, -490.0, -490.0, -490.0, -490.0, -490.0, -490.0, -490.0, -490.0, -490.0, -490.0, -490.0, -490.0, -490.0, -490.0, -490.0, -490.0, -490.0, -490.0, -490.0, -490.0, -490.0, -490.0, -481.0, -459.0, -406.0, -258.0, -141.0, -14.0, 102.0, 207.0, 281.0, 338.0, 376.0, 396.0, 409.0, 418.0, 430.0, 449.0, 459.0, 466.0, 471.0, 477.0, 486.0, 487.0, 489.0, 489.0, 491.0, 491.0, 491.0, 491.0, 491.0, 491.0, 491.0, 487.0, 471.0, 456.0, 443.0, 437.0, 436.0, 436.0, 436.0, 436.0, 436.0]	[0.016267591388896108, 0.020043417520355433, 0.03211739123798907, 0.04909632069757208, 0.06529325625160709, 0.08242783363675699, 0.09863773977849633, 0.11563885596115142, 0.13210851658368483, 0.1491365980473347, 0.16549634939292446, 0.1823561536730267, 0.19865617179311812, 0.21571838652016595, 0.23212694854009897, 0.24908300873357803, 0.2654588027507998, 0.28239199361996725, 0.29881489160470665, 0.3157518371590413, 0.3320136259426363, 0.3490355634712614, 0.3654246694641188, 0.38248722557909787, 0.398828886274714, 0.4158098637708463, 0.4319398980587721, 0.44897992617916316, 0.4654789413907565, 0.4823868736275472, 0.4988486836082302, 0.515733063861262, 0.5321743938256986, 0.5489734408329241, 0.5655298000201583, 0.5824090603273362, 0.5988015796174295, 0.615776413178537, 0.63190098607447, 0.648984704806935, 0.6655171707388945, 0.6823619563365355, 0.6988387849414721, 0.7156996132107452, 0.7322467564372346, 0.748979584837798, 0.7654656294034794, 0.7823527403525077, 0.7987138570751995, 0.815771293186117, 0.8318729967577383, 0.8489178035524674, 0.8654816720518284, 0.8823756096535362, 0.8987985076382756, 0.9157101945602335, 0.9321894124732353, 0.9491782406694256, 0.9654861094313674, 0.9823506923276, 0.9987312650191598, 1.0158180557773449, 1.0318590020760894, 1.0490075741545297, 1.0655222907080315, 1.0823882389813662, 1.09872375568375, 1.1156671865610406, 1.1321085165836848, 1.149052288790699]
6	images/0398.jpg	images/0581.jpg	right	1.574	[0.0, 0.0, 0.0, 0.0, 0.0, 0.0, 0.0, 0.0, 0.0, 0.0, 0.0, 0.0, 0.0, 0.0, 0.0, 0.0, 0.0, 0.0, 0.0, 0.0, 0.0, 0.0, 0.0, 0.0, 2.0, 4.0, 8.0, 20.0, 53.0, 115.0, 197.0, 282.0, 414.0, 487.0, 557.0, 610.0, 649.0, 665.0, 677.0, 684.0, 688.0, 690.0, 692.0, 692.0, 693.0, 693.0, 693.0, 693.0, 693.0, 693.0, 693.0, 693.0, 693.0, 693.0, 693.0, 693.0, 693.0, 693.0, 689.0, 686.0, 685.0, 685.0, 685.0, 684.0, 684.0, 684.0, 684.0, 689.0, 694.0, 699.0, 702.0, 706.0, 707.0, 708.0, 709.0, 709.0, 709.0, 709.0, 709.0, 709.0, 709.0, 709.0, 709.0, 709.0, 709.0, 709.0, 709.0, 709.0, 709.0, 709.0, 709.0, 709.0, 709.0, 709.0, 709.0]	[-490.0, -490.0, -490.0, -490.0, -490.0, -490.0, -490.0, -490.0, -490.0, -490.0, -490.0, -490.0, -490.0, -490.0, -490.0, -490.0, -490.0, -490.0, -490.0, -490.0, -490.0, -490.0, -490.0, -490.0, -488.0, -480.0, -468.0, -439.0, -388.0, -299.0, -202.0, -114.0, 5.0, 72.0, 133.0, 187.0, 233.0, 251.0, 264.0, 279.0, 288.0, 296.0, 302.0, 306.0, 309.0, 309.0, 311.0, 311.0, 311.0, 311.0, 311.0, 311.0, 311.0, 311.0, 311.0, 311.0, 311.0, 311.0, 313.0, 313.0, 315.0, 315.0, 315.0, 317.0, 319.0, 324.0, 328.0, 338.0, 345.0, 351.0, 354.0, 358.0, 360.0, 361.0, 362.0, 362.0, 362.0, 362.0, 362.0, 362.0, 362.0, 362.0, 362.0, 362.0, 362.0, 362.0, 362.0, 362.0, 362.0, 362.0, 362.0, 362.0, 362.0, 362.0, 362.0]	[0.014941853878553957, 0.02131522446870804, 0.029690513329114765, 0.04659127758350223, 0.06274452240904793, 0.0796934146201238, 0.09607091534417123, 0.11321095406310633, 0.12943212420213968, 0.14653120294678956, 0.16295068757608533, 0.17984360118862242, 0.19601220602635294, 0.21302287955768406, 0.22961883340030909, 0.24654519761679694, 0.26299847423797473, 0.2799128917977214, 0.29612450464628637, 0.3131307407747954, 0.3295758254243992, 0.3466871921555139, 0.36295649025123566, 0.37986339849885553, 0.3961470326175913, 0.4132822926621884, 0.42936931893927976, 0.4464711283217184, 0.46294590894831344, 0.47980980918509886, 0.4962951711495407, 0.5131717007607222, 0.5297225986141711, 0.5465199389727786, 0.5629537595668808, 0.5798046892159618, 0.6000143359415233, 0.6131600954104215, 0.6293259696103632, 0.6464561096508987, 0.6630131515557878, 0.6798251692089252, 0.696236461866647, 0.7131099194521084, 0.7296116653596982, 0.7464772723033093, 0.7629168956191279, 0.7798886571545154, 0.7960797899868339, 0.8131112848059274, 0.8294130095746368, 0.8465568029205315, 0.8629848209093325, 0.8798825131379999, 0.8961924298782833, 0.9131887673866004, 0.9293713669176213, 0.946531202935148, 0.9629476155969314, 0.9798459904850461, 0.9962572832009755, 1.0132430393714458, 1.0293191429809667, 1.0464055923512205, 1.0629281596047804, 1.079781137232203, 1.100112981221173, 1.113136202096939, 1.1296051800600253, 1.146501848299522, 1.1628889063140377, 1.179830971872434, 1.1961798005504534, 1.2131536100641824, 1.2296082520624623, 1.2465844508842565, 1.2627196051180363, 1.2798302891897038, 1.2962518218555488, 1.3132024207152426, 1.3293887748732232, 1.346419928362593, 1.3626950291218236, 1.379712870635558, 1.3963740190956742, 1.413171359396074, 1.4296632066834718, 1.4465339336311445, 1.462981748918537, 1.4798091265256517, 1.4961497632903047, 1.5132355300011113, 1.5295239427941851, 1.5465527069172822, 1.5629954022006132]
7	images/0543.jpg	images/0498.jpg	left	1.162	[0.0, 0.0, 0.0, 0.0, 0.0, 0.0, 0.0, 0.0, 0.0, 0.0, 0.0, -1.0, -1.0, -1.0, -1.0, -1.0, -1.0, -1.0, -1.0, -1.0, -3.0, -8.0, -13.0, -19.0, -28.0, -47.0, -82.0, -139.0, -204.0, -269.0, -343.0, -464.0, -534.0, -573.0, -600.0, -628.0, -654.0, -676.0, -696.0, -711.0, -721.0, -725.0, -731.0, -738.0, -743.0, -750.0, -755.0, -758.0, -760.0, -760.0, -760.0, -760.0, -760.0, -760.0, -760.0, -760.0, -760.0, -760.0, -760.0, -760.0, -760.0, -760.0, -760.0, -754.0, -751.0, -747.0, -743.0, -743.0, -743.0, -743.0]	[-490.0, -490.0, -490.0, -490.0, -490.0, -490.0, -490.0, -490.0, -490.0, -490.0, -491.0, -491.0, -491.0, -491.0, -491.0, -491.0, -491.0, -491.0, -491.0, -491.0, -487.0, -477.0, -464.0, -444.0, -417.0, -367.0, -286.0, -169.0, -19.0, 122.0, 245.0, 368.0, 415.0, 437.0, 451.0, 460.0, 467.0, 473.0, 476.0, 477.0, 477.0, 477.0, 472.0, 457.0, 445.0, 430.0, 415.0, 403.0, 394.0, 391.0, 389.0, 389.0, 389.0, 389.0, 389.0, 389.0, 389.0, 389.0, 389.0, 389.0, 389.0, 389.0, 388.0, 388.0, 387.0, 385.0, 385.0, 385.0, 385.0, 385.0]	[0.0003587410319596529, 0.005248678207863122, 0.017539057007525116, 0.03375578986015171, 0.05068829806987196, 0.06702791078714654, 0.08400513365631923, 0.10033109306823462, 0.11729124921839684, 0.13391109637450427, 0.15083063393831253, 0.16725796926766634, 0.18416863220045343, 0.2006048421608284, 0.21753735037054867, 0.23393430706346408, 0.2508156152907759, 0.2673586625023745, 0.2841730695217848, 0.3005836795200594, 0.31762985163368285, 0.33394966705236584, 0.35076919401763007, 0.3672142786672339, 0.3842819547280669, 0.4003624956822023, 0.41746942506870255, 0.4339353310642764, 0.4508118606172502, 0.467137478699442, 0.48406998690916225, 0.5005905061843805, 0.5175407637143508, 0.5339431816828437, 0.5508135673007928, 0.5671265560667962, 0.5841867228155024, 0.6003659089910798, 0.6174690837506205, 0.6339476190041751, 0.6508224419667386, 0.6670480494503863, 0.6841607815003954, 0.700686079391744, 0.7174588437774219, 0.733915192366112, 0.7508473592461087, 0.7672033559647389, 0.7841587334987707, 0.8005573968403041, 0.8176066409796476, 0.8339145097415894, 0.8508354126242921, 0.8673245292156935, 0.8841788721620105, 0.9004966395441443, 0.9175120916916057, 0.9336984459077939, 0.9508302925969474, 0.9672490946250036, 0.9841706801671535, 1.0004082343075424, 1.0175649983575568, 1.0339554696693085, 1.0507876260089688, 1.0673661718610674, 1.0842174427816644, 1.1006143994745798, 1.1175370090059005, 1.1339800456771627]
8	images/0375.jpg	images/0053.jpg	right	0.976	[0.0, 0.0, 0.0, 0.0, 0.0, 0.0, 0.0, 0.0, 0.0, -1.0, -1.0, -4.0, -6.0, -7.0, -7.0, -7.0, -5.0, 4.0, 22.0, 50.0, 84.0, 124.0, 192.0, 261.0, 343.0, 429.0, 501.0, 548.0, 595.0, 615.0, 621.0, 624.0, 624.0, 624.0, 624.0, 624.0, 624.0, 624.0, 624.0, 624.0, 624.0, 624.0, 624.0, 624.0, 624.0, 624.0, 624.0, 624.0, 624.0, 624.0, 624.0, 624.0, 624.0, 624.0, 624.0, 624.0, 624.0, 624.0, 624.0]	[-490.0, -490.0, -490.0, -490.0, -490.0, -490.0, -490.0, -490.0, -490.0, -485.0, -479.0, -472.0, -463.0, -454.0, -442.0, -428.0, -414.0, -389.0, -358.0, -315.0, -268.0, -213.0, -125.0, -37.0, 54.0, 128.0, 192.0, 224.0, 258.0, 273.0, 279.0, 282.0, 282.0, 282.0, 282.0, 282.0, 282.0, 282.0, 282.0, 282.0, 282.0, 282.0, 282.0, 282.0, 282.0, 282.0, 282.0, 282.0, 282.0, 282.0, 282.0, 282.0, 282.0, 282.0, 282.0, 282.0, 282.0, 282.0, 282.0]	[0.015201949689071625, 0.02165075484663248, 0.030203195521607995, 0.047077335766516626, 0.06322682602331042, 0.08045219798805192, 0.0968102426850237, 0.11368608963675797, 0.13011820358224213, 0.14702818385558203, 0.16319474071497098, 0.18043308332562447, 0.19680170936044306, 0.2136676576337777, 0.2301769128534943, 0.2469769839080982, 0.26337462320225313, 0.2804245500010438, 0.29680341604398564, 0.31365434563485906, 0.33003969700075686, 0.34707972512114793, 0.36358624970307574, 0.3803300007712096, 0.39682867465307936, 0.413657417637296, 0.43014346226118505, 0.4470749464817345, 0.4634343564976007, 0.4803187367506325, 0.49683481868123636, 0.5136639029951766, 0.5301526782568544, 0.5470080451923423, 0.5633619938744232, 0.5803596967016347, 0.5967832774040289, 0.6137553802109323, 0.6300612009945326, 0.6469384132651612, 0.6635763510712422, 0.6804146513459273, 0.696748461399693, 0.7147302274242975, 0.7301025022752583, 0.7470575384795666, 0.7633991991751827, 0.7803689127322286, 0.7968228720128536, 0.8136826762929559, 0.8299707476980984, 0.8469650372280739, 0.8632025913684629, 0.8802948434604332, 0.8967358320951462, 0.9137021322967485, 0.9301861288840882, 0.9470234051696025, 0.9634739511529915]
9	images/0258.jpg	images/0454.jpg	right	1.652	[0.0, 0.0, 0.0, 0.0, 0.0, 0.0, 0.0, 0.0, 0.0, 0.0, 0.0, 0.0, 0.0, 0.0, 0.0, 0.0, 0.0, 0.0, 0.0, 0.0, 0.0, 0.0, 0.0, 0.0, 0.0, 0.0, 0.0, -16.0, -47.0, -94.0, -190.0, -310.0, -505.0, -626.0, -723.0, -819.0, -900.0, -950.0, -960.0, -960.0, -960.0, -960.0, -960.0, -960.0, -958.0, -957.0, -954.0, -951.0, -944.0, -936.0, -928.0, -918.0, -905.0, -895.0, -885.0, -874.0, -853.0, -841.0, -828.0, -819.0, -809.0, -788.0, -764.0, -724.0, -672.0, -614.0, -538.0, -378.0, -259.0, -137.0, -29.0, 85.0, 187.0, 268.0, 315.0, 340.0, 358.0, 368.0, 375.0, 382.0, 386.0, 393.0, 406.0, 422.0, 444.0, 462.0, 484.0, 513.0, 562.0, 611.0, 660.0, 710.0, 737.0, 765.0, 785.0, 796.0, 798.0, 798.0, 798.0]	[-490.0, -490.0, -490.0, -490.0, -490.0, -490.0, -490.0, -490.0, -490.0, -490.0, -490.0, -490.0, -490.0, -490.0, -490.0, -490.0, -490.0, -490.0, -490.0, -490.0, -490.0, -490.0, -490.0, -490.0, -490.0, -490.0, -490.0, -487.0, -476.0, -449.0, -397.0, -327.0, -227.0, -148.0, -66.0, 32.0, 134.0, 219.0, 282.0, 332.0, 363.0, 383.0, 400.0, 415.0, 431.0, 438.0, 446.0, 452.0, 461.0, 468.0, 474.0, 479.0, 483.0, 485.0, 488.0, 489.0, 489.0, 489.0, 489.0, 489.0, 488.0, 481.0, 470.0, 459.0, 450.0, 447.0, 447.0, 447.0, 447.0, 447.0, 462.0, 476.0, 487.0, 496.0, 501.0, 502.0, 503.0, 503.0, 503.0, 502.0, 501.0, 498.0, 492.0, 485.0, 475.0, 469.0, 464.0, 457.0, 451.0, 451.0, 451.0, 451.0, 451.0, 451.0, 451.0, 451.0, 451.0, 451.0, 451.0]	[0.004656465374864638, 0.008678051293827593, 0.03219111921498552, 0.04277449153596535, 0.05897859501419589, 0.07618724170606583, 0.09254699305165559, 0.10948154929792508, 0.12588260194752365, 0.14284890214912593, 0.1593352880445309, 0.17618894833140075, 0.1922886039246805, 0.20946175197605044, 0.2260269857943058, 0.2428454888286069, 0.25921343214577064, 0.27626643097028136, 0.29258112638490275, 0.3095402585458942, 0.32590376457665116, 0.34281954751349986, 0.3591786161996424, 0.3761626657214947, 0.3925930730183609, 0.40951090393355116, 0.42587270331569016, 0.4427806355524808, 0.4591502855764702, 0.47611453774152324, 0.49255825707223266, 0.5094139653374441, 0.5258873805869371, 0.5427533288602717, 0.5591816881787963, 0.5761258017155342, 0.5924428864964284, 0.6093968986533582, 0.6256204581586644, 0.6427195369033143, 0.6592284508515149, 0.6761462817084976, 0.6925053504528478, 0.709434786636848, 0.7256272848462686, 0.7427953128353693, 0.7590448136324994, 0.7761592523893341, 0.792730288929306, 0.809460386633873, 0.8256873594364151, 0.842784731532447, 0.8592059228685685, 0.8761148790945299, 0.89234355854569, 0.9092603654717095, 0.9258645112859085, 0.942707248905208, 0.9592342535033822, 0.976084841764532, 0.9926302783424035, 1.009376077388879, 1.0258645113208331, 1.0426580969360657, 1.0592089948477224, 1.076220350980293, 1.0924872597679496, 1.1093566213967279, 1.1259829538757913, 1.1426953022601083, 1.1590779229300097, 1.1761206817463972, 1.1923456065705977, 1.2093887066585012, 1.225793513993267, 1.2427772221853957, 1.2592216241755523, 1.2761899723554961, 1.2924927211133763, 1.3093767600366846, 1.3258307193173096, 1.3427079315879382, 1.3592270854860544, 1.3760578764486127, 1.3925715690129437, 1.4093917786958627, 1.425873727304861, 1.4426898409146816, 1.4590103389928117, 1.4759995085187256, 1.4925524544087239, 1.5094443439738825, 1.5256518608075567, 1.542779611540027, 1.5591595015721396, 1.5762063563452102, 1.5924084118450992, 1.6093893893412314, 1.6256719994707964]
10	images/0317.jpg	images/0072.jpg	left	0.961	[0.0, 0.0, 0.0, 0.0, 0.0, 0.0, 0.0, 0.0, 0.0, 0.0, 1.0, 2.0, 5.0, 5.0, 9.0, 11.0, 14.0, 18.0, 22.0, 25.0, 30.0, 51.0, 70.0, 87.0, 95.0, 98.0, 82.0, 47.0, -5.0, -85.0, -187.0, -293.0, -384.0, -457.0, -483.0, -501.0, -508.0, -512.0, -515.0, -520.0, -524.0, -531.0, -538.0, -540.0, -543.0, -554.0, -579.0, -633.0, -690.0, -735.0, -765.0, -777.0, -780.0, -780.0, -780.0, -780.0, -780.0, -780.0]	[-490.0, -490.0, -490.0, -490.0, -490.0, -490.0, -490.0, -490.0, -490.0, -490.0, -490.0, -487.0, -483.0, -479.0, -475.0, -467.0, -459.0, -447.0, -433.0, -417.0, -393.0, -314.0, -244.0, -179.0, -125.0, -80.0, -35.0, 17.0, 65.0, 130.0, 191.0, 242.0, 281.0, 299.0, 304.0, 304.0, 304.0, 303.0, 301.0, 298.0, 295.0, 294.0, 292.0, 292.0, 292.0, 292.0, 295.0, 311.0, 327.0, 342.0, 356.0, 362.0, 363.0, 363.0, 363.0, 363.0, 363.0, 363.0]	[0.0006584314396604896, 0.005901648313738406, 0.018075632629916072, 0.034541879897005856, 0.051569961360655725, 0.0678010301780887, 0.08483423164580017, 0.10122675099410117, 0.11810328060528263, 0.1346091224695556, 0.15138598287012428, 0.1679409767384641, 0.1848045356455259, 0.20124688965734094, 0.21807017124956474, 0.23452890920452774, 0.2514368414413184, 0.2679467793786898, 0.28481955430470407, 0.30118954565841705, 0.31811898190062493, 0.3344899972435087, 0.35149452672339976, 0.36784437944879755, 0.38487143692327663, 0.4012479135999456, 0.41809577122330666, 0.4345435865689069, 0.4514487881097011, 0.4678672487498261, 0.4847813250380568, 0.5010219511459582, 0.5181217125500552, 0.5344172933255322, 0.5514641480986029, 0.5677737235091627, 0.5847977090161294, 0.6009820151957683, 0.618121029867325, 0.6345340292318724, 0.6513911028159782, 0.6678409661399201, 0.6848216023063287, 0.7012107082991861, 0.7181179578765295, 0.7345353945274837, 0.7514276254805736, 0.7679088914301246, 0.7848332076100633, 0.8012929696124047, 0.8181111312587745, 0.834587277204264, 0.8514358174870722, 0.8678689554217272, 0.8848987435922027, 0.90123460162431, 0.9181223952327855, 0.9343538053799421]
11	images/0201.jpg	images/0378.jpg	right	1.629	[0.0, 0.0, 0.0, 0.0, 0.0, 0.0, 0.0, 0.0, 0.0, 0.0, 0.0, 0.0, 0.0, 0.0, 0.0, 0.0, 1.0, 2.0, 5.0, 14.0, 27.0, 46.0, 73.0, 148.0, 228.0, 316.0, 396.0, 476.0, 545.0, 593.0, 630.0, 658.0, 678.0, 694.0, 710.0, 727.0, 738.0, 744.0, 745.0, 745.0, 745.0, 745.0, 745.0, 745.0, 745.0, 750.0, 752.0, 757.0, 759.0, 760.0, 760.0, 760.0, 760.0, 760.0, 760.0, 760.0, 758.0, 748.0, 734.0, 682.0, 612.0, 538.0, 478.0, 416.0, 359.0, 286.0, 226.0, 175.0, 149.0, 142.0, 142.0, 142.0, 156.0, 182.0, 226.0, 279.0, 352.0, 434.0, 513.0, 567.0, 606.0, 636.0, 681.0, 705.0, 727.0, 749.0, 769.0, 782.0, 783.0, 783.0, 783.0, 783.0, 783.0, 783.0, 783.0, 783.0, 783.0, 783.0]	[-490.0, -490.0, -490.0, -490.0, -490.0, -490.0, -490.0, -490.0, -490.0, -490.0, -490.0, -490.0, -490.0, -490.0, -490.0, -490.0, -491.0, -491.0, -487.0, -475.0, -460.0, -441.0, -414.0, -324.0, -230.0, -138.0, -56.0, 26.0, 107.0, 175.0, 230.0, 277.0, 312.0, 340.0, 367.0, 399.0, 417.0, 427.0, 429.0, 429.0, 429.0, 429.0, 429.0, 429.0, 429.0, 420.0, 410.0, 396.0, 388.0, 385.0, 384.0, 383.0, 383.0, 383.0, 383.0, 382.0, 378.0, 373.0, 369.0, 361.0, 353.0, 342.0, 334.0, 326.0, 318.0, 311.0, 311.0, 311.0, 310.0, 309.0, 309.0, 309.0, 312.0, 319.0, 332.0, 341.0, 352.0, 364.0, 375.0, 383.0, 388.0, 391.0, 399.0, 402.0, 405.0, 405.0, 405.0, 405.0, 405.0, 405.0, 405.0, 405.0, 405.0, 405.0, 405.0, 405.0, 405.0, 405.0]	[0.016713031101971865, 0.021694104187190533, 0.03351207810919732, 0.049952725355979055, 0.06684017763473094, 0.08325659029651433, 0.10021367447916418, 0.11654168186942115, 0.13351856340887025, 0.14991483744233847, 0.16682959633180872, 0.1833323662285693, 0.20020548248430714, 0.21655704185832292, 0.23347145947627723, 0.24972266692202538, 0.26678863633424044, 0.28326853696489707, 0.3001699838787317, 0.3165877618594095, 0.33350456872722134, 0.3499168854323216, 0.3667859056731686, 0.3832391822943464, 0.4001491625676863, 0.4165113032795489, 0.4334168461500667, 0.4499298560549505, 0.46680775098502636, 0.4832217743387446, 0.5001041066134349, 0.5163873993442394, 0.5335018381010741, 0.5499271253938787, 0.5667961456929334, 0.5833183715585619, 0.6001761278603226, 0.6165993671747856, 0.6335277794278227, 0.6499513600720093, 0.6668200389831327, 0.6833098382339813, 0.7001884158235043, 0.7164065139950253, 0.733436984824948, 0.7499431680771522, 0.7668285723193549, 0.7832808249513619, 0.8001392639125697, 0.8166492017917335, 0.8335728353704326, 0.8499339520931244, 0.866825841658283, 0.883144291699864, 0.9001665705582127, 0.9163597513688728, 0.9334595127729699, 0.9498769494239241, 0.966801606991794, 0.9832702436251566, 1.0001491625444032, 1.0163996873307042, 1.0334465421619825, 1.050032597326208, 1.0667988763307221, 1.0830688571440987, 1.1001655465224758, 1.1166082418640144, 1.1335397260845639, 1.149905621423386, 1.1668582683196291, 1.1833081315853633, 1.2001553065492772, 1.2166478364961222, 1.2335660086828284, 1.2497663575340994, 1.2667411910369992, 1.2832384996581823, 1.3001160532585345, 1.3166106311837211, 1.3335373367299326, 1.3499093760619871, 1.3667804443393834, 1.3832634169375524, 1.4001331198960543, 1.4163802313851193, 1.433401144866366, 1.4496933122863993, 1.4667084231041372, 1.483263416972477, 1.5002007038565353, 1.5165819592075422, 1.5335564513807185, 1.549968768027611, 1.566814236342907, 1.5832275769789703, 1.600211285171099, 1.616353607387282]
12	images/0159.jpg	images/0068.jpg	right	1.113	[0.0, 0.0, 0.0, 0.0, 0.0, 0.0, 0.0, 5.0, 15.0, 23.0, 27.0, 27.0, 27.0, 27.0, 27.0, 27.0, 27.0, 27.0, 27.0, 27.0, 27.0, 27.0, 27.0, 27.0, 27.0, 27.0, 27.0, 25.0, 24.0, 23.0, 22.0, 22.0, 31.0, 44.0, 45.0, 45.0, 45.0, 47.0, 65.0, 104.0, 159.0, 260.0, 331.0, 388.0, 446.0, 491.0, 533.0, 564.0, 583.0, 598.0, 612.0, 626.0, 631.0, 631.0, 638.0, 658.0, 701.0, 748.0, 788.0, 813.0, 831.0, 835.0, 836.0, 836.0, 836.0, 836.0, 836.0]	[-490.0, -490.0, -490.0, -490.0, -490.0, -490.0, -490.0, -490.0, -501.0, -520.0, -532.0, -532.0, -532.0, -532.0, -532.0, -532.0, -532.0, -532.0, -532.0, -532.0, -532.0, -532.0, -532.0, -532.0, -532.0, -532.0, -535.0, -539.0, -539.0, -539.0, -539.0, -523.0, -453.0, -366.0, -284.0, -200.0, -132.0, -61.0, 17.0, 88.0, 153.0, 241.0, 293.0, 333.0, 375.0, 409.0, 443.0, 465.0, 470.0, 470.0, 464.0, 458.0, 455.0, 455.0, 439.0, 419.0, 393.0, 375.0, 372.0, 375.0, 382.0, 384.0, 386.0, 388.0, 389.0, 390.0, 390.0]	[0.000560127547942102, 0.005430608696769923, 0.017832262150477618, 0.03408551757456735, 0.0513477535569109, 0.06732828391250223, 0.08451713324757293, 0.1009113592444919, 0.11782031547045335, 0.13428792811464518, 0.15115592436632141, 0.16750509443227202, 0.1844901679432951, 0.20093218056717888, 0.2178554727579467, 0.23426096281036735, 0.2511927883606404, 0.26739074784563854, 0.2842747867689468, 0.3010175137897022, 0.3179390993900597, 0.33411999221425503, 0.3510917537496425, 0.36778328084619716, 0.3846222637803294, 0.40071543405065313, 0.4177786728250794, 0.4340435336343944, 0.4512456949451007, 0.4676033983123489, 0.48454000253695995, 0.5009799671825022, 0.5178622994571924, 0.5342411654419266, 0.5512255562935024, 0.5673982571461238, 0.5845099652069621, 0.6009898658376187, 0.6178476221393794, 0.6343288880307227, 0.6511665057041682, 0.667658694263082, 0.6845318105770275, 0.7009796258644201, 0.7178121234755963, 0.7342650587670505, 0.7512296523200348, 0.7673282839241438, 0.7843686533742584, 0.8010031778248958, 0.8178070035064593, 0.8344152453355491, 0.8512074656318873, 0.8676047636545263, 0.8845007492345758, 0.9009516365476884, 0.9178199741290882, 0.9341879175044596, 0.9512159989681095, 0.9673265772289596, 0.9844580825883895, 1.0009274018811993, 1.0178564967936836, 1.0341145308921114, 1.051193471008446, 1.0676436756039038, 1.0845765252015553]
13	images/0376.jpg	images/0066.jpg	right	1.378	[0.0, 0.0, 0.0, 0.0, 0.0, 0.0, 0.0, 0.0, 0.0, 0.0, 0.0, 0.0, 0.0, 0.0, 0.0, 0.0, 0.0, 0.0, 0.0, 0.0, 0.0, 0.0, 5.0, 10.0, 23.0, 39.0, 66.0, 111.0, 170.0, 225.0, 291.0, 365.0, 481.0, 562.0, 618.0, 649.0, 666.0, 679.0, 687.0, 687.0, 687.0, 687.0, 687.0, 688.0, 690.0, 695.0, 701.0, 705.0, 709.0, 711.0, 711.0, 712.0, 712.0, 712.0, 712.0, 714.0, 715.0, 715.0, 715.0, 715.0, 715.0, 715.0, 715.0, 715.0, 715.0, 715.0, 715.0, 715.0, 715.0, 713.0, 708.0, 702.0, 697.0, 692.0, 689.0, 688.0, 688.0, 687.0, 687.0, 687.0, 687.0, 687.0, 687.0]	[-490.0, -490.0, -490.0, -490.0, -490.0, -490.0, -490.0, -490.0, -490.0, -490.0, -490.0, -490.0, -490.0, -490.0, -490.0, -490.0, -490.0, -490.0, -490.0, -490.0, -490.0, -490.0, -490.0, -489.0, -481.0, -470.0, -450.0, -417.0, -367.0, -302.0, -209.0, -111.0, 39.0, 131.0, 198.0, 233.0, 253.0, 261.0, 264.0, 264.0, 264.0, 264.0, 264.0, 264.0, 264.0, 258.0, 249.0, 240.0, 233.0, 232.0, 232.0, 232.0, 232.0, 232.0, 232.0, 231.0, 230.0, 229.0, 229.0, 229.0, 229.0, 229.0, 229.0, 228.0, 228.0, 228.0, 228.0, 228.0, 228.0, 232.0, 257.0, 283.0, 302.0, 317.0, 326.0, 331.0, 334.0, 342.0, 353.0, 359.0, 361.0, 361.0, 361.0]	[0.0006536527653224766, 0.00564121117349714, 0.018046619254164398, 0.03438896260922775, 0.05147131608100608, 0.06775392615236342, 0.08492946351179853, 0.10099532711319625, 0.11812956316862255, 0.13451013586018234, 0.15140782808884978, 0.16793346736812964, 0.18473831698065624, 0.20121548691531643, 0.2181097658467479, 0.23454802384367213, 0.25140543875750154, 0.2678948967368342, 0.28484617825597525, 0.3009953271248378, 0.31808382453164086, 0.3345401731785387, 0.35139212681679055, 0.36787646473385394, 0.3847908822936006, 0.4010082978056744, 0.4180090726003982, 0.4345029678661376, 0.45138871343806386, 0.46790684334700927, 0.4846997463610023, 0.5012475722469389, 0.5178698087111115, 0.5342510640621185, 0.551384276128374, 0.5678645180887543, 0.5847861036309041, 0.6009782604523934, 0.6178820967325009, 0.6345128665561788, 0.6513907614862546, 0.6677382248453796, 0.6846594690578058, 0.7012110496289097, 0.7181715471670032, 0.7345739651354961, 0.7514225054183044, 0.7677160382154398, 0.7848400342627428, 0.8011584843043238, 0.8180558352614753, 0.8344893145258538, 0.8514412787626497, 0.8678358460892923, 0.8847106690518558, 0.90107485774206, 0.9181271738489158, 0.9344872665242292, 0.9514518600772135, 0.9676129556028172, 0.9846639063907787, 1.0011799883213826, 1.0181572111323476, 1.0345231065293774, 1.0514470814378, 1.0678969447035342, 1.0847444609971717, 1.1011038710130379, 1.1180664165876806, 1.134547682479024, 1.1513637961470522, 1.1676146622630768, 1.184677901037503, 1.2009243298671208, 1.2180476432549767, 1.234562018478755, 1.251356628141366, 1.2679065020056441, 1.2847168130101636, 1.3012567882542498, 1.3180657338816673, 1.3342677893815562, 1.3513685748330317]
14	images/0533.jpg	images/0359.jpg	left	1.075	[0.0, 0.0, 0.0, 0.0, 0.0, 0.0, 0.0, -5.0, -14.0, -19.0, -22.0, -24.0, -25.0, -28.0, -32.0, -34.0, -43.0, -49.0, -58.0, -68.0, -81.0, -105.0, -143.0, -191.0, -240.0, -299.0, -365.0, -443.0, -524.0, -615.0, -729.0, -794.0, -846.0, -876.0, -892.0, -898.0, -898.0, -898.0, -898.0, -898.0, -898.0, -898.0, -887.0, -869.0, -849.0, -831.0, -814.0, -802.0, -794.0, -791.0, -789.0, -789.0, -788.0, -788.0, -788.0, -787.0, -786.0, -785.0, -782.0, -778.0, -774.0, -771.0, -769.0, -768.0, -768.0]	[-490.0, -493.0, -493.0, -493.0, -495.0, -495.0, -495.0, -495.0, -495.0, -494.0, -493.0, -492.0, -491.0, -488.0, -484.0, -478.0, -462.0, -446.0, -425.0, -402.0, -375.0, -332.0, -282.0, -226.0, -162.0, -97.0, -19.0, 72.0, 166.0, 258.0, 374.0, 438.0, 485.0, 510.0, 523.0, 528.0, 528.0, 528.0, 528.0, 528.0, 528.0, 528.0, 511.0, 492.0, 473.0, 460.0, 450.0, 442.0, 435.0, 432.0, 430.0, 430.0, 429.0, 429.0, 428.0, 425.0, 423.0, 419.0, 414.0, 408.0, 403.0, 398.0, 395.0, 395.0, 395.0]	[0.01483023795299232, 0.021591362834442407, 0.029463868122547865, 0.04628066445002332, 0.06268786115106195, 0.0797671425389126, 0.09606613666983321, 0.11294710356742144, 0.12933177227387205, 0.14632367243757471, 0.16251582925906405, 0.17950465745525435, 0.19602005666820332, 0.21284265565918759, 0.22912151110358536, 0.24623492581304163, 0.2626694291247986, 0.2795992066967301, 0.2959855820517987, 0.31292013823986053, 0.3293614682042971, 0.3463403977220878, 0.3625028586247936, 0.37952035875059664, 0.39602790732169524, 0.4129167249193415, 0.4294218841823749, 0.44619737920584157, 0.462654069182463, 0.4795712173799984, 0.4960248353308998, 0.5129416422569193, 0.5292184496647678, 0.546277592482511, 0.5624922772985883, 0.5794619907974266, 0.5961241632467136, 0.6128614289918914, 0.6293822895386256, 0.6462301471619867, 0.6624711146578193, 0.6796783959725872, 0.6960316619952209, 0.712924575607758, 0.729397990857251, 0.7463827230385505, 0.7625735145411454, 0.7794275161577389, 0.7957985315588303, 0.8128177383332513, 0.8292716976138763, 0.8462321951519698, 0.8624485866748728, 0.879449020139873, 0.8957797582261264, 0.9129392529139295, 0.9291580337448977, 0.9462588191381656, 0.9625373332528397, 0.9795589293935336, 0.9960449740174226, 1.0128842982812785, 1.029123559128493, 1.0462847604649141, 1.0626738664577715]
15	images/0324.jpg	images/0157.jpg	left	3.105	[0.0, 0.0, 0.0, 0.0, 0.0, 0.0, 0.0, 0.0, 0.0, 0.0, 0.0, 0.0, 0.0, 0.0, 0.0, 0.0, 0.0, 0.0, 0.0, 0.0, 0.0, 0.0, 2.0, 10.0, 23.0, 45.0, 81.0, 156.0, 260.0, 361.0, 502.0, 571.0, 631.0, 685.0, 736.0, 785.0, 819.0, 848.0, 873.0, 891.0, 897.0, 900.0, 900.0, 893.0, 870.0, 818.0, 720.0, 593.0, 445.0, 288.0, 147.0, 9.0, -110.0, -208.0, -338.0, -411.0, -468.0, -496.0, -524.0, -540.0, -553.0, -570.0, -588.0, -601.0, -612.0, -617.0, -626.0, -633.0, -641.0, -645.0, -646.0, -644.0, -628.0, -599.0, -541.0, -464.0, -370.0, -270.0, -126.0, -26.0, 69.0, 166.0, 263.0, 345.0, 426.0, 502.0, 557.0, 606.0, 645.0, 676.0, 721.0, 748.0, 781.0, 809.0, 829.0, 848.0, 856.0, 856.0, 856.0, 856.0, 856.0, 856.0, 856.0, 851.0, 835.0, 817.0, 802.0, 791.0, 785.0, 783.0, 783.0, 783.0, 783.0, 783.0, 783.0, 783.0, 783.0, 783.0, 783.0, 783.0, 783.0, 783.0, 783.0, 783.0, 783.0, 783.0, 783.0, 783.0, 783.0, 783.0, 783.0, 780.0, 760.0, 717.0, 655.0, 573.0, 481.0, 362.0, 227.0, 82.0, -107.0, -210.0, -281.0, -333.0, -367.0, -385.0, -389.0, -404.0, -414.0, -433.0, -468.0, -486.0, -498.0, -512.0, -534.0, -560.0, -602.0, -658.0, -731.0, -813.0, -897.0, -944.0, -960.0, -960.0, -960.0, -960.0, -960.0, -960.0, -960.0, -960.0, -955.0, -939.0, -918.0, -893.0, -867.0, -846.0, -821.0, -807.0, -794.0, -775.0, -757.0, -745.0, -738.0, -736.0, -736.0, -736.0]	[-490.0, -490.0, -490.0, -490.0, -490.0, -490.0, -490.0, -490.0, -490.0, -490.0, -490.0, -490.0, -490.0, -490.0, -490.0, -490.0, -490.0, -490.0, -490.0, -490.0, -490.0, -490.0, -485.0, -474.0, -456.0, -431.0, -396.0, -331.0, -247.0, -171.0, -72.0, -24.0, 18.0, 54.0, 100.0, 142.0, 176.0, 206.0, 234.0, 256.0, 271.0, 279.0, 281.0, 285.0, 290.0, 296.0, 300.0, 300.0, 300.0, 299.0, 278.0, 259.0, 241.0, 227.0, 227.0, 227.0, 227.0, 227.0, 227.0, 227.0, 227.0, 233.0, 240.0, 247.0, 254.0, 261.0, 275.0, 288.0, 298.0, 307.0, 314.0, 323.0, 337.0, 350.0, 370.0, 382.0, 392.0, 392.0, 392.0, 392.0, 392.0, 392.0, 392.0, 392.0, 392.0, 392.0, 393.0, 393.0, 393.0, 393.0, 399.0, 403.0, 409.0, 411.0, 411.0, 413.0, 413.0, 413.0, 413.0, 413.0, 413.0, 413.0, 413.0, 409.0, 403.0, 398.0, 395.0, 394.0, 393.0, 393.0, 393.0, 393.0, 393.0, 393.0, 393.0, 393.0, 393.0, 393.0, 393.0, 393.0, 393.0, 393.0, 393.0, 393.0, 393.0, 393.0, 393.0, 393.0, 393.0, 393.0, 393.0, 392.0, 385.0, 374.0, 357.0, 344.0, 342.0, 342.0, 356.0, 392.0, 430.0, 443.0, 455.0, 463.0, 467.0, 467.0, 467.0, 461.0, 457.0, 453.0, 444.0, 442.0, 441.0, 439.0, 436.0, 432.0, 427.0, 424.0, 424.0, 424.0, 424.0, 417.0, 413.0, 412.0, 412.0, 412.0, 412.0, 412.0, 412.0, 412.0, 412.0, 412.0, 412.0, 412.0, 411.0, 406.0, 403.0, 401.0, 398.0, 396.0, 395.0, 395.0, 395.0, 395.0, 395.0, 395.0]	[0.00398062594467774, 0.008770211192313582, 0.024178667401429266, 0.0410524663166143, 0.05739890568656847, 0.07459219236625358, 0.09074236522428691, 0.1078288146527484, 0.12402404349995777, 0.14106987428385764, 0.15735009510535747, 0.1744365444756113, 0.1905559974256903, 0.20757144957315177, 0.22400015022139996, 0.24107806629035622, 0.257536121585872, 0.27441538183484226, 0.29084339982364327, 0.3077701053698547, 0.3241759366937913, 0.3410244770348072, 0.35755933221662417, 0.37443859252380207, 0.3905942267156206, 0.4075417536078021, 0.4241414620773867, 0.44101287168450654, 0.45751359360292554, 0.4743925125221722, 0.4908290638704784, 0.5077721533598378, 0.5241728647379205, 0.5410418849787675, 0.5574968683067709, 0.5743846618570387, 0.5905959333758801, 0.6076830654637888, 0.623906624969095, 0.6410022903583013, 0.6574712683213875, 0.6743658885825425, 0.6906648826552555, 0.7076349374838173, 0.7241271261009388, 0.7410490529728122, 0.7572999191470444, 0.7743419952457771, 0.7905833040713333, 0.8077141267713159, 0.8242124593816698, 0.8410715809441172, 0.8575350975734182, 0.8743611099198461, 0.8908126798341982, 0.9077871720655821, 0.9241185927530751, 0.9410234530223534, 0.9612027211114764, 0.9744406404788606, 0.9906645413138904, 1.0076711188303307, 1.0241837874054909, 1.0410176503355615, 1.057512228260748, 1.0744160645408556, 1.0909219064051285, 1.1077346067759208, 1.124202219361905, 1.1410511009744368, 1.1573483883985318, 1.174470677797217, 1.1906560079660267, 1.207685113477055, 1.2241967580630444, 1.241086940979585, 1.2575996095547453, 1.274453269841615, 1.2908614904736169, 1.307738361414522, 1.324221334012691, 1.34103847166989, 1.3575777641963214, 1.374417771177832, 1.3906631759600714, 1.4076793108251877, 1.423902187612839, 1.4409186637494713, 1.457563428208232, 1.4743276592344046, 1.490826333174482, 1.5077223187545314, 1.5239400755963288, 1.5409964877180755, 1.5575856148498133, 1.5744519045110792, 1.5906799013027921, 1.6077817106852308, 1.6241622833767906, 1.6411214155959897, 1.6574419136741199, 1.6743733978946693, 1.6908102905144915, 1.7077445054310374, 1.724163307400886, 1.7410732876160182, 1.757533049560152, 1.7744474671781063, 1.7905409787781537, 1.8076089961687103, 1.8241301981033757, 1.8410381303401664, 1.8573753537493758, 1.874290112638846, 1.8909106424544007, 1.907807652023621, 1.9239445129060186, 1.9408746318076737, 1.9574804843286984, 1.974383637891151, 1.9907969785272144, 2.007795364013873, 2.024108011450153, 2.0410685089882463, 2.0572599831502885, 2.0742283313302323, 2.090819847828243, 2.10774518805556, 2.1242059740470722, 2.1411121995770372, 2.1574794602929614, 2.1744747738121077, 2.1906188026769087, 2.2076547348406166, 2.224142827442847, 2.24104290897958, 2.2574582976521924, 2.274396267195698, 2.290929757116828, 2.3077694227104075, 2.323907990299631, 2.3409323170781136, 2.3573586284182966, 2.374410603195429, 2.3943113435525447, 2.4076718014548533, 2.424167062039487, 2.441011506365612, 2.4575378282461315, 2.4743372165830806, 2.4908212131704204, 2.5077260734396987, 2.524207339331042, 2.541022087680176, 2.5574514709878713, 2.5743392645963468, 2.5906167546636425, 2.607657124171965, 2.624134976766072, 2.6410224289866164, 2.6574832149781287, 2.6743413125514053, 2.6908365731942467, 2.707702180137858, 2.723965334240347, 2.741007069009356, 2.7575310015818104, 2.7744283524807543, 2.790798343892675, 2.8076878441497684, 2.8241950513911434, 2.841128924919758, 2.8575542122125626, 2.874349845922552, 2.890830429154448, 2.907724366756156, 2.9241595527273603, 2.94103096233448, 2.957442937651649, 2.9743341445573606, 2.9905546320951544, 3.0077513320720755, 3.0242052913527004, 3.041077724948991, 3.0572695404989645, 3.0743662298773415]
16	images/0586.jpg	images/0168.jpg	left	1.544	[0.0, 1.0, 1.0, 1.0, 1.0, 1.0, 1.0, 1.0, 3.0, 6.0, 14.0, 20.0, 25.0, 31.0, 33.0, 33.0, 34.0, 35.0, 36.0, 37.0, 40.0, 50.0, 59.0, 74.0, 92.0, 121.0, 167.0, 218.0, 294.0, 381.0, 476.0, 558.0, 641.0, 735.0, 786.0, 834.0, 882.0, 922.0, 948.0, 959.0, 959.0, 959.0, 958.0, 950.0, 932.0, 841.0, 730.0, 579.0, 408.0, 220.0, 20.0, -166.0, -325.0, -451.0, -544.0, -593.0, -610.0, -615.0, -615.0, -615.0, -616.0, -618.0, -621.0, -623.0, -626.0, -631.0, -640.0, -653.0, -677.0, -699.0, -723.0, -746.0, -762.0, -774.0, -779.0, -781.0, -781.0, -781.0, -781.0, -781.0, -781.0, -781.0, -781.0, -781.0, -781.0, -781.0, -781.0, -781.0, -781.0, -781.0, -781.0, -781.0, -781.0]	[-490.0, -490.0, -490.0, -490.0, -490.0, -490.0, -490.0, -490.0, -491.0, -493.0, -496.0, -498.0, -499.0, -501.0, -502.0, -502.0, -502.0, -503.0, -503.0, -503.0, -503.0, -503.0, -503.0, -503.0, -499.0, -488.0, -466.0, -437.0, -381.0, -320.0, -251.0, -191.0, -128.0, -28.0, 38.0, 104.0, 165.0, 222.0, 270.0, 302.0, 325.0, 342.0, 353.0, 369.0, 383.0, 410.0, 426.0, 447.0, 474.0, 494.0, 496.0, 496.0, 496.0, 489.0, 474.0, 466.0, 463.0, 461.0, 461.0, 459.0, 458.0, 454.0, 450.0, 448.0, 444.0, 439.0, 432.0, 425.0, 413.0, 408.0, 399.0, 393.0, 389.0, 388.0, 387.0, 387.0, 387.0, 387.0, 387.0, 387.0, 387.0, 387.0, 387.0, 387.0, 387.0, 387.0, 387.0, 387.0, 387.0, 387.0, 387.0, 387.0, 387.0]	[0.016671388468239456, 0.02063426503445953, 0.0329598012031056, 0.049932586727663875, 0.06598309037508443, 0.08312995574669912, 0.0995357870706357, 0.11650174594251439, 0.13283282530028373, 0.14983462414238602, 0.166215879493393, 0.18315999303013086, 0.19943987246369943, 0.2165703538339585, 0.23272223339881748, 0.24980868282727897, 0.2661274742567912, 0.28312517708400264, 0.2992989019257948, 0.3164266526582651, 0.33272394008236006, 0.34984793612966314, 0.3662233888171613, 0.3832187023363076, 0.3994685444631614, 0.41653383121592924, 0.4328270226251334, 0.4499179093982093, 0.4662356768385507, 0.48314190236851573, 0.4995828910032287, 0.5164655646076426, 0.53273656941019, 0.5498056108481251, 0.5662493301206268, 0.5831139130750671, 0.5996190723381005, 0.6165276872343384, 0.6327317907125689, 0.6498400854761712, 0.6661831115488894, 0.6830862651113421, 0.6996043950202875, 0.7165317832259461, 0.7328997266013175, 0.749826432147529, 0.76625137811061, 0.7830801210948266, 0.7996279469807632, 0.8165089139365591, 0.8327621693606488, 0.8497677228879184, 0.8662872181157582, 0.8830777317634784, 0.8995371523778886, 0.9164147059782408, 0.9329748198506422, 0.950095743930433, 0.9661967648426071, 0.9831736463820562, 0.9995545604033396, 1.016566940525081, 1.032727012061514, 1.0497445122455247, 1.0662640074733645, 1.0830729531007819, 1.099535445740912, 1.1164157299790531, 1.1329181586042978, 1.1498366721207276, 1.1662312395055778, 1.1830903610680252, 1.1995426137000322, 1.216571377881337, 1.232757390709594, 1.2497725015273318, 1.2662015435053036, 1.2830944571178406, 1.2993374725920148, 1.3164362099487334, 1.3329283985658549, 1.3498127788188867, 1.3661762848496437, 1.383120057056658, 1.3996695895912126, 1.416405490017496, 1.4327256467659026, 1.449652352312114, 1.4662022261763923, 1.4831606756779365, 1.4995132590993308, 1.5164058313239366, 1.5328427240019664]
17	images/0150.jpg	images/0223.jpg	right	1.995	[0.0, 0.0, 0.0, 0.0, 0.0, 0.0, 0.0, 0.0, 0.0, 0.0, 0.0, -3.0, -7.0, -15.0, -20.0, -22.0, -24.0, -24.0, -24.0, -24.0, -22.0, -17.0, -7.0, 11.0, 32.0, 62.0, 96.0, 137.0, 191.0, 254.0, 322.0, 386.0, 498.0, 569.0, 622.0, 655.0, 675.0, 687.0, 697.0, 704.0, 712.0, 718.0, 724.0, 728.0, 733.0, 736.0, 738.0, 741.0, 745.0, 755.0, 764.0, 772.0, 784.0, 798.0, 809.0, 821.0, 831.0, 837.0, 838.0, 838.0, 838.0, 838.0, 838.0, 838.0, 838.0, 838.0, 835.0, 834.0, 834.0, 833.0, 833.0, 832.0, 832.0, 832.0, 832.0, 832.0, 832.0, 832.0, 832.0, 832.0, 832.0, 832.0, 832.0, 832.0, 832.0, 832.0, 832.0, 832.0, 832.0, 832.0, 832.0, 832.0, 832.0, 832.0, 832.0, 832.0, 832.0, 832.0, 832.0, 832.0, 832.0, 832.0, 832.0, 832.0, 832.0, 832.0, 832.0, 832.0, 832.0, 832.0, 832.0, 832.0, 832.0, 832.0, 832.0, 832.0, 832.0, 832.0, 832.0, 832.0]	[-490.0, -490.0, -490.0, -490.0, -490.0, -490.0, -490.0, -490.0, -490.0, -490.0, -490.0, -489.0, -475.0, -459.0, -446.0, -439.0, -434.0, -431.0, -429.0, -424.0, -407.0, -390.0, -367.0, -341.0, -320.0, -296.0, -273.0, -244.0, -210.0, -161.0, -99.0, -43.0, 53.0, 103.0, 146.0, 176.0, 196.0, 210.0, 224.0, 238.0, 254.0, 267.0, 282.0, 291.0, 297.0, 301.0, 306.0, 313.0, 321.0, 337.0, 350.0, 362.0, 377.0, 393.0, 408.0, 421.0, 432.0, 439.0, 441.0, 441.0, 441.0, 441.0, 441.0, 441.0, 441.0, 439.0, 433.0, 426.0, 424.0, 419.0, 416.0, 415.0, 415.0, 415.0, 415.0, 415.0, 415.0, 415.0, 415.0, 415.0, 415.0, 415.0, 415.0, 415.0, 415.0, 415.0, 415.0, 415.0, 415.0, 415.0, 415.0, 415.0, 415.0, 415.0, 415.0, 415.0, 415.0, 415.0, 415.0, 415.0, 415.0, 415.0, 415.0, 415.0, 415.0, 415.0, 415.0, 415.0, 415.0, 415.0, 415.0, 415.0, 415.0, 415.0, 415.0, 415.0, 415.0, 415.0, 415.0, 415.0]	[0.015849117073230445, 0.020348569261841476, 0.03143438376719132, 0.048362796020228416, 0.06473620067117736, 0.08165130094857886, 0.09811311087105423, 0.1149838378187269, 0.13140912511153147, 0.14830920670647174, 0.16470309137366712, 0.18154958367813379, 0.1980247056344524, 0.21499817381845787, 0.23124016530346125, 0.2482815587427467, 0.2646921687410213, 0.28158883698051795, 0.29807419888675213, 0.3149124992196448, 0.3314275571028702, 0.34833412402076647, 0.36472254735417664, 0.3815622130059637, 0.39806020428659394, 0.4149282005382702, 0.43123094929615036, 0.4483805453055538, 0.4646641794242896, 0.48154173302464187, 0.49801548960385844, 0.5149254698771983, 0.5313186718849465, 0.5482170467730612, 0.5645866967970505, 0.581519546394702, 0.5980533775873482, 0.6149411711958237, 0.6310780320782214, 0.6481617508688942, 0.6646071767900139, 0.6815410503768362, 0.6978127377806231, 0.714779379311949, 0.7312947785831057, 0.7482354787643999, 0.7646372141316533, 0.7815024797455408, 0.7980465509463102, 0.8149080618750304, 0.831142544047907, 0.8481706255115569, 0.8646105901570991, 0.8814751730533317, 0.8979601936880499, 0.9147558273398317, 0.9312992158811539, 0.9482542520854622, 0.964715379406698, 0.9815820103394799, 0.9978755430784076, 1.01487734192051, 1.0313859144807793, 1.0482149987947196, 1.0646737367496826, 1.0815376370446756, 1.0980810255859978, 1.114895773876924, 1.1313524638535455, 1.148162774858065, 1.1646116141346283, 1.181503503699787, 1.1978461884427816, 1.2148411606322043, 1.231355877185706, 1.2482399161090143, 1.264650526107289, 1.2814519624225795, 1.2979840869666077, 1.3149070378858596, 1.331258938589599, 1.3482679054141045, 1.3646662274259143, 1.3815205703722313, 1.397750956530217, 1.4147059927345254, 1.4313319838838652, 1.4482190947746858, 1.4646180994459428, 1.4815103303990327, 1.4979629243607633, 1.514879048569128, 1.5312981918687, 1.548274390748702, 1.564486003597267, 1.5814686877420172, 1.5980175376171246, 1.6149527765228413, 1.631270543904975, 1.6482044174917974, 1.6646355074481107, 1.6815321756876074, 1.697999105672352, 1.7148872405523434, 1.731267130584456, 1.748264492081944, 1.7644054489792325, 1.7814447944401763, 1.797974871005863, 1.8148561792331748, 1.8312889758963138, 1.848184278816916, 1.8681290511158295, 1.881517498404719, 1.8979728230042383, 1.9148913365788758, 1.931043216085527, 1.9480535482871346, 1.9646293634432368, 1.9815444636624306]
18	images/0475.jpg	images/0528.jpg	left	1.212	[0.0, 0.0, 0.0, 0.0, 0.0, 0.0, 0.0, 0.0, 0.0, 0.0, 0.0, 0.0, -3.0, -5.0, -5.0, -5.0, -5.0, -5.0, -5.0, -5.0, -5.0, -5.0, -5.0, -5.0, -6.0, -6.0, -6.0, -2.0, -1.0, -3.0, -25.0, -71.0, -138.0, -231.0, -349.0, -470.0, -633.0, -677.0, -782.0, -835.0, -873.0, -902.0, -927.0, -935.0, -945.0, -947.0, -947.0, -947.0, -947.0, -943.0, -933.0, -922.0, -913.0, -904.0, -897.0, -889.0, -884.0, -877.0, -873.0, -863.0, -854.0, -832.0, -818.0, -801.0, -788.0, -782.0, -780.0, -780.0, -780.0, -780.0, -780.0, -780.0, -780.0]	[-490.0, -490.0, -490.0, -490.0, -490.0, -490.0, -490.0, -490.0, -490.0, -490.0, -490.0, -490.0, -491.0, -492.0, -492.0, -492.0, -492.0, -492.0, -492.0, -492.0, -492.0, -492.0, -492.0, -492.0, -484.0, -480.0, -461.0, -440.0, -424.0, -405.0, -378.0, -327.0, -269.0, -198.0, -97.0, 4.0, 143.0, 182.0, 294.0, 356.0, 399.0, 428.0, 451.0, 459.0, 471.0, 476.0, 477.0, 478.0, 480.0, 483.0, 490.0, 498.0, 502.0, 503.0, 503.0, 502.0, 500.0, 496.0, 492.0, 486.0, 479.0, 463.0, 453.0, 441.0, 433.0, 430.0, 429.0, 429.0, 429.0, 429.0, 429.0, 429.0, 429.0]	[0.015312882896978408, 0.021836439962498844, 0.030269755457993597, 0.04724561295006424, 0.06365280965110287, 0.08069556840928271, 0.0969133252510801, 0.11387928412295878, 0.13031003274954855, 0.14713331439998, 0.16368694294942543, 0.18048735527554527, 0.19683686667121947, 0.2138625587685965, 0.23031788342632353, 0.24718690366717055, 0.2635889803641476, 0.28054879524279386, 0.2968409626628272, 0.31379872950492427, 0.33024586213286966, 0.3472026049857959, 0.3635821536881849, 0.3805016912519932, 0.396971010544803, 0.41389566811267287, 0.43035577138653025, 0.4471435543964617, 0.46344732714351267, 0.48056449653813615, 0.4969006958999671, 0.5137966815382242, 0.5302987687755376, 0.547191682329867, 0.5633681378676556, 0.5804276219569147, 0.5969136665808037, 0.613915465422906, 0.6301376595511101, 0.6471725676674396, 0.6635859083617106, 0.6806092111510225, 0.6968757786089554, 0.7138669961132109, 0.7303069607587531, 0.7472094316617586, 0.7636295990087092, 0.7805938511737622, 0.796706477412954, 0.8138147721765563, 0.8302898940746672, 0.8471974849817343, 0.8635265164193697, 0.8805904378532432, 0.8968348186463118, 0.9137939508655109, 0.9302188968285918, 0.9471541357343085, 0.9635794230271131, 0.9804754086071625, 0.9968713413109072, 1.0138669961015694, 1.0302410834701732, 1.0471773463650607, 1.063603657647036, 1.0805040805716999, 1.0967105734162033, 1.113930142717436, 1.130401851318311, 1.147172226337716, 1.1636579296318814, 1.1805358245619573, 1.1969542852020822]
19	images/0396.jpg	images/0506.jpg	left	1.143	[0.0, 0.0, 0.0, 0.0, 0.0, 0.0, 0.0, 0.0, 0.0, 0.0, 0.0, 0.0, 0.0, 0.0, 0.0, 0.0, 0.0, 0.0, 0.0, 0.0, 0.0, 0.0, 11.0, 34.0, 76.0, 141.0, 225.0, 318.0, 415.0, 519.0, 612.0, 691.0, 737.0, 749.0, 745.0, 726.0, 641.0, 560.0, 455.0, 325.0, 166.0, 4.0, -165.0, -333.0, -473.0, -581.0, -660.0, -701.0, -727.0, -734.0, -735.0, -735.0, -735.0, -737.0, -737.0, -737.0, -737.0, -737.0, -737.0, -737.0, -737.0, -737.0, -738.0, -738.0, -738.0, -738.0, -738.0, -738.0, -738.0]	[-490.0, -490.0, -490.0, -490.0, -490.0, -490.0, -490.0, -490.0, -490.0, -490.0, -490.0, -490.0, -490.0, -490.0, -490.0, -490.0, -490.0, -490.0, -490.0, -490.0, -490.0, -490.0, -484.0, -472.0, -447.0, -408.0, -347.0, -272.0, -192.0, -113.0, -38.0, 37.0, 93.0, 126.0, 145.0, 158.0, 175.0, 188.0, 198.0, 198.0, 198.0, 200.0, 209.0, 215.0, 230.0, 232.0, 232.0, 232.0, 234.0, 236.0, 236.0, 236.0, 236.0, 237.0, 244.0, 263.0, 288.0, 309.0, 331.0, 366.0, 386.0, 401.0, 406.0, 406.0, 406.0, 406.0, 406.0, 406.0, 406.0]	[0.015666162595152855, 0.0222798315808177, 0.0312241226201877, 0.047979479015339166, 0.06433991307858378, 0.0813659465056844, 0.09770009788917378, 0.11472681403392926, 0.13107769074849784, 0.1479190630489029, 0.16438804101198912, 0.1812574026407674, 0.19763387931743637, 0.21456536353798583, 0.23092613887274638, 0.24795763369183987, 0.26435254234820604, 0.2813444425119087, 0.2977123858872801, 0.31466196075780317, 0.3311551733640954, 0.34791735641192645, 0.3642351237940602, 0.3812236106605269, 0.3976881512789987, 0.41458993952255696, 0.4308124749804847, 0.4479989350074902, 0.4642542384681292, 0.48122326930752024, 0.49772945255972445, 0.5146052995114587, 0.5308462669490837, 0.5479733350221068, 0.5643644890515134, 0.5812560372869484, 0.5976785939419642, 0.6146377261029556, 0.6310660854214802, 0.6480125883244909, 0.6643235290539451, 0.6812427252880298, 0.697698732605204, 0.7145503448555246, 0.7310770081239752, 0.7478685457608663, 0.7643375237239525, 0.7813359092106111, 0.7977553938399069, 0.8145554648945108, 0.8309572002035566, 0.84793237503618, 0.8643573210574687, 0.8813533171778545, 0.8976895165978931, 0.9145848195184954, 0.9310633547720499, 0.9480163429980166, 0.9643095344072208, 0.9812024480197579, 0.9976396819693036, 1.0146186114870943, 1.0310005494975485, 1.0479487590491772, 1.0643638063920662, 1.0815171570866369, 1.097684396605473, 1.1146367021137848, 1.131015226827003]
20	images/0271.jpg	images/0105.jpg	right	4.343	[0.0, 0.0, 0.0, 0.0, 0.0, 0.0, 0.0, 0.0, 0.0, 0.0, 0.0, 0.0, 0.0, 0.0, 0.0, 0.0, 0.0, 0.0, 5.0, 12.0, 20.0, 33.0, 51.0, 70.0, 101.0, 148.0, 202.0, 305.0, 377.0, 439.0, 492.0, 539.0, 576.0, 608.0, 641.0, 669.0, 695.0, 714.0, 726.0, 731.0, 731.0, 731.0, 731.0, 731.0, 731.0, 731.0, 731.0, 731.0, 731.0, 731.0, 731.0, 731.0, 731.0, 731.0, 731.0, 731.0, 731.0, 731.0, 729.0, 709.0, 678.0, 611.0, 513.0, 324.0, 168.0, 20.0, -125.0, -266.0, -394.0, -503.0, -587.0, -639.0, -665.0, -681.0, -687.0, -693.0, -694.0, -696.0, -700.0, -709.0, -718.0, -724.0, -728.0, -732.0, -733.0, -733.0, -729.0, -695.0, -639.0, -555.0, -463.0, -365.0, -268.0, -176.0, -89.0, -29.0, 47.0, 123.0, 183.0, 251.0, 287.0, 330.0, 356.0, 392.0, 421.0, 446.0, 467.0, 485.0, 503.0, 520.0, 535.0, 558.0, 580.0, 607.0, 637.0, 663.0, 685.0, 702.0, 716.0, 724.0, 729.0, 736.0, 743.0, 747.0, 748.0, 750.0, 754.0, 762.0, 777.0, 787.0, 795.0, 799.0, 799.0, 799.0, 799.0, 799.0, 799.0, 799.0, 800.0, 797.0, 777.0, 733.0, 654.0, 544.0, 411.0, 265.0, 114.0, -98.0, -207.0, -294.0, -359.0, -400.0, -425.0, -438.0, -448.0, -456.0, -459.0, -462.0, -465.0, -476.0, -499.0, -549.0, -613.0, -682.0, -739.0, -792.0, -823.0, -838.0, -842.0, -843.0, -844.0, -846.0, -848.0, -850.0, -852.0, -852.0, -852.0, -852.0, -852.0, -852.0, -852.0, -852.0, -849.0, -842.0, -835.0, -827.0, -818.0, -813.0, -807.0, -805.0, -803.0, -802.0, -800.0, -796.0, -789.0, -760.0, -698.0, -574.0, -391.0, -172.0, 54.0, 237.0, 369.0, 461.0, 520.0, 543.0, 559.0, 577.0, 591.0, 603.0, 619.0, 636.0, 651.0, 660.0, 670.0, 681.0, 688.0, 690.0, 691.0, 695.0, 698.0, 705.0, 709.0, 711.0, 714.0, 715.0, 717.0, 719.0, 723.0, 727.0, 732.0, 739.0, 743.0, 750.0, 755.0, 758.0, 761.0, 762.0, 763.0, 765.0, 766.0, 766.0, 766.0, 768.0, 769.0, 771.0, 772.0, 773.0, 774.0, 775.0, 777.0, 779.0, 779.0, 780.0, 780.0, 780.0, 780.0, 780.0, 780.0, 780.0, 780.0]	[-490.0, -490.0, -490.0, -490.0, -490.0, -490.0, -490.0, -490.0, -490.0, -490.0, -490.0, -490.0, -490.0, -490.0, -490.0, -490.0, -490.0, -490.0, -485.0, -478.0, -469.0, -452.0, -432.0, -408.0, -373.0, -326.0, -281.0, -193.0, -121.0, -51.0, 11.0, 65.0, 108.0, 150.0, 192.0, 229.0, 261.0, 288.0, 306.0, 319.0, 322.0, 324.0, 324.0, 324.0, 324.0, 325.0, 327.0, 331.0, 333.0, 334.0, 334.0, 334.0, 334.0, 334.0, 334.0, 334.0, 334.0, 335.0, 336.0, 339.0, 342.0, 345.0, 349.0, 368.0, 378.0, 399.0, 414.0, 435.0, 443.0, 459.0, 470.0, 480.0, 483.0, 485.0, 486.0, 487.0, 487.0, 487.0, 487.0, 483.0, 477.0, 471.0, 466.0, 459.0, 453.0, 441.0, 424.0, 399.0, 388.0, 388.0, 388.0, 388.0, 388.0, 388.0, 388.0, 388.0, 388.0, 388.0, 388.0, 388.0, 388.0, 388.0, 388.0, 395.0, 399.0, 406.0, 411.0, 417.0, 422.0, 424.0, 427.0, 429.0, 429.0, 429.0, 429.0, 428.0, 424.0, 418.0, 413.0, 412.0, 410.0, 408.0, 406.0, 405.0, 405.0, 405.0, 405.0, 405.0, 405.0, 405.0, 405.0, 405.0, 405.0, 405.0, 405.0, 405.0, 405.0, 405.0, 405.0, 402.0, 399.0, 396.0, 396.0, 396.0, 396.0, 396.0, 396.0, 426.0, 442.0, 455.0, 463.0, 469.0, 469.0, 469.0, 468.0, 465.0, 464.0, 463.0, 461.0, 456.0, 444.0, 424.0, 399.0, 378.0, 369.0, 366.0, 363.0, 363.0, 363.0, 363.0, 363.0, 372.0, 378.0, 386.0, 392.0, 397.0, 398.0, 400.0, 401.0, 401.0, 401.0, 402.0, 403.0, 403.0, 403.0, 403.0, 401.0, 399.0, 398.0, 396.0, 395.0, 394.0, 392.0, 391.0, 388.0, 382.0, 373.0, 357.0, 332.0, 298.0, 266.0, 251.0, 251.0, 251.0, 254.0, 261.0, 268.0, 277.0, 285.0, 292.0, 300.0, 306.0, 309.0, 312.0, 315.0, 318.0, 322.0, 322.0, 323.0, 327.0, 331.0, 339.0, 345.0, 348.0, 351.0, 353.0, 355.0, 357.0, 359.0, 363.0, 366.0, 370.0, 374.0, 378.0, 381.0, 382.0, 384.0, 385.0, 386.0, 386.0, 387.0, 388.0, 388.0, 390.0, 391.0, 393.0, 394.0, 397.0, 398.0, 400.0, 402.0, 405.0, 405.0, 406.0, 406.0, 406.0, 406.0, 406.0, 406.0, 406.0, 406.0]	[0.0010434550349600613, 0.006742010184098035, 0.018885274475906044, 0.035386337782256305, 0.05230075534200296, 0.0684492215514183, 0.08558175090001896, 0.10206574754556641, 0.11901361570926383, 0.13538121775491163, 0.1522884673322551, 0.16870692797238007, 0.18569268414285034, 0.20205721422098577, 0.21897675178479403, 0.235341964464169, 0.25228266464546323, 0.26876836793962866, 0.2856892708223313, 0.30206028622342274, 0.31896036776015535, 0.3351446739397943, 0.3521399874589406, 0.3686492426786572, 0.38559130823705345, 0.4020340035785921, 0.4188961971667595, 0.43538428976899013, 0.4521952834329568, 0.46866938134189695, 0.4855063162976876, 0.5019882649066858, 0.5188750345259905, 0.5353388924850151, 0.5521908460650593, 0.5684222562122159, 0.5855803855811246, 0.601972563599702, 0.6188248585676774, 0.6353477671509609, 0.6522307820268907, 0.6694138286984526, 0.6855599055998027, 0.7018817689968273, 0.7189132638159208, 0.7353542524506338, 0.75215432344703, 0.768624325399287, 0.7855506896157749, 0.8019589103059843, 0.818875034514349, 0.8351129299844615, 0.8522335127345286, 0.8684086028952152, 0.8854257617495023, 0.9019531076191925, 0.9189235037774779, 0.9353518630960025, 0.952182995446492, 0.9686533387284726, 0.9855257723247632, 1.0018844996811822, 1.0188094985787757, 1.0351160019636154, 1.0521836780826561, 1.0684174775960855, 1.0856390948756598, 1.1020186435780488, 1.118909167824313, 1.1353672231198289, 1.152241704694461, 1.168661530711688, 1.185538060264662, 1.2020189848844893, 1.2188535305322148, 1.2352006525616162, 1.2521932354429737, 1.2683816375792958, 1.2853950417484157, 1.3019514009356499, 1.3188381705549546, 1.3353286524652503, 1.352301096660085, 1.3686427573557012, 1.3855745829059742, 1.4019674435839988, 1.4188170079141855, 1.4352644818718545, 1.452160467451904, 1.4686349066905677, 1.48558652959764, 1.5018906436744146, 1.518859333184082, 1.535282572498545, 1.5521485207718797, 1.56854308815673, 1.5855325989541598, 1.6018875716836192, 1.6188241759082302, 1.6353187538334168, 1.6522007447201759, 1.6686758666764945, 1.6855479589430615, 1.702008062216919, 1.7189620744320564, 1.735337185789831, 1.7522215660428628, 1.7686519733979367, 1.7856093989103101, 1.8019882648950443, 1.8188166665495373, 1.835343329817988, 1.8522287340601906, 1.8686697226949036, 1.8855240656412207, 1.902019667555578, 1.9189122398383915, 1.93527779384749, 1.9521386221167631, 1.9686529973405413, 1.9855650255922228, 2.0020087449229322, 2.0187873119139113, 2.0353119271458127, 2.0521758274408057, 2.068389829597436, 2.0854568230570294, 2.10200976888882, 2.118874693172984, 2.1354508497170173, 2.1521761687472463, 2.1686273973900825, 2.185583798913285, 2.2017281691660173, 2.218863087880891, 2.235354935110081, 2.2522130327415653, 2.268798746576067, 2.2855483003077097, 2.3021541527705267, 2.3189125811331905, 2.335280524508562, 2.352172755403444, 2.3686891786637716, 2.385589260258712, 2.402004307601601, 2.4188944905181415, 2.4353880443959497, 2.4522365847369656, 2.4687052213121206, 2.4855322576477192, 2.5021022701403126, 2.51891735981917, 2.5353184124687687, 2.55216251546517, 2.56846901885001, 2.585567073605489, 2.601965054287575, 2.618852847837843, 2.635280865826644, 2.6522082540905103, 2.6686338827130385, 2.6854971003485844, 2.7020995395141654, 2.7188658185186796, 2.7353293351479806, 2.75215432344703, 2.768613061401993, 2.785597452253569, 2.802006355545018, 2.8188275892171077, 2.8352228392031975, 2.852205182076432, 2.8687062453245744, 2.885612470912747, 2.9020193262258545, 2.919247087556869, 2.93539896706352, 2.9522318060626276, 2.9686308107338846, 2.985517238965258, 3.001985534268897, 3.018808474589605, 3.0353047591634095, 3.0521567128016613, 3.068634224066045, 3.085548300296068, 3.101942526292987, 3.118862405186519, 3.135322167130653, 3.1521847021067515, 3.1686041867360473, 3.185636364214588, 3.2020978328073397, 3.218809498590417, 3.2351156606455334, 3.2521038061822765, 3.268740037281532, 3.2855510309454985, 3.3020155715639703, 3.3188658184953965, 3.335420812421944, 3.352226344693918, 3.368607941432856, 3.3855708282790147, 3.402006014250219, 3.418874010501895, 3.4350525140180252, 3.4521355501492508, 3.4685785867623053, 3.4854513616883196, 3.501999187574256, 3.5188460212084465, 3.5353580071241595, 3.552155688754283, 3.56859019206604, 3.5855940388864838, 3.601855486340355, 3.6188241759082302, 3.635351180448197, 3.65219733142294, 3.668645488040056, 3.685508022957947, 3.7018227183725685, 3.718863770540338, 3.735311244498007, 3.7521550061064772, 3.7685789280803874, 3.785503926977981, 3.801967443607282, 3.8188453385373577, 3.8353549351450056, 3.852210643410217, 3.868728431989439, 3.88567971350858, 3.9020848621730693, 3.918823834566865, 3.935361761774402, 3.9521744620869868, 3.968597360071726, 3.985530892270617, 4.002024104876909, 4.018836122530047, 4.0353095378377475, 4.052149203431327, 4.068712389329448, 4.085788598749787, 4.101828179729637, 4.118757274583913, 4.135323532449547, 4.152162515441887, 4.168576538795605, 4.18552508961875, 4.20178756112, 4.218859333195724, 4.235286668525077, 4.252257064683363, 4.268627056037076, 4.285536694980692, 4.301930238318164, 4.318855237215757]
21	images/0241.jpg	images/0122.jpg	left	1.152	[0.0, 0.0, 0.0, 0.0, 0.0, 0.0, 0.0, 0.0, 0.0, 0.0, 0.0, 0.0, 0.0, 0.0, 0.0, 0.0, 0.0, 1.0, 6.0, 12.0, 21.0, 33.0, 50.0, 69.0, 102.0, 149.0, 197.0, 252.0, 332.0, 383.0, 426.0, 469.0, 504.0, 535.0, 559.0, 588.0, 618.0, 636.0, 645.0, 649.0, 650.0, 647.0, 631.0, 597.0, 538.0, 438.0, 311.0, 165.0, -7.0, -195.0, -368.0, -527.0, -700.0, -759.0, -788.0, -799.0, -801.0, -802.0, -802.0, -803.0, -803.0, -804.0, -805.0, -808.0, -811.0, -811.0, -811.0, -811.0, -811.0, -811.0]	[-490.0, -490.0, -490.0, -490.0, -490.0, -490.0, -490.0, -490.0, -490.0, -490.0, -490.0, -490.0, -490.0, -490.0, -490.0, -490.0, -490.0, -487.0, -478.0, -466.0, -451.0, -432.0, -412.0, -386.0, -342.0, -290.0, -238.0, -187.0, -112.0, -67.0, -29.0, 17.0, 60.0, 111.0, 154.0, 202.0, 252.0, 285.0, 304.0, 316.0, 321.0, 321.0, 321.0, 320.0, 313.0, 313.0, 313.0, 313.0, 325.0, 352.0, 374.0, 395.0, 408.0, 408.0, 408.0, 408.0, 408.0, 407.0, 404.0, 401.0, 399.0, 397.0, 396.0, 395.0, 394.0, 394.0, 394.0, 394.0, 394.0, 394.0]	[0.007318521733395755, 0.011379360919818282, 0.015704391931649297, 0.031678778294008225, 0.048102017608471215, 0.06499015254667029, 0.08153012773254886, 0.09837184136267751, 0.11475685139885172, 0.13165829831268638, 0.1481696015689522, 0.1649317845585756, 0.18141885317163542, 0.1984025613637641, 0.2147455874364823, 0.2316169969853945, 0.24799449770944193, 0.2649194966070354, 0.2815106717753224, 0.29832780943252146, 0.31475651008076966, 0.33174124226206914, 0.34779686585534364, 0.36483894201228395, 0.3814830238115974, 0.3982411108445376, 0.414699507469777, 0.43162041035247967, 0.44802999636158347, 0.4649051605956629, 0.4814652744680643, 0.4982626148266718, 0.5147380780545063, 0.5316449863021262, 0.5480822203098796, 0.5649276885669678, 0.5813714078976773, 0.5982609081547707, 0.6146564994705841, 0.6331833743606694, 0.6480631056474522, 0.6648710272856988, 0.6814581064973027, 0.6983226894517429, 0.7146653741365299, 0.7316241650260054, 0.7479890363756567, 0.764887752593495, 0.781357754545752, 0.7982844601501711, 0.8147244247375056, 0.8315405384055339, 0.8479726524092257, 0.8648925313027576, 0.8811078987782821, 0.8981318842270412, 0.9144301956985146, 0.9316183623159304, 0.9480231696506962, 0.9649061845848337, 0.9813311306061223, 0.9983121081022546, 1.0147391021018848, 1.0315654557198286, 1.0480259003234096, 1.064942707249429, 1.0813731145462953, 1.0982544228318147, 1.114699507423211, 1.1316767302923836]
22	images/0490.jpg	images/0154.jpg	left	1.268	[0.0, 0.0, 0.0, 0.0, 0.0, 0.0, 0.0, 0.0, 0.0, 0.0, 0.0, 0.0, -6.0, -21.0, -50.0, -84.0, -84.0, -84.0, -84.0, -84.0, -84.0, -84.0, -84.0, -84.0, -84.0, -84.0, -84.0, -80.0, -73.0, -71.0, -70.0, -70.0, -67.0, -66.0, -61.0, -48.0, -42.0, -41.0, -45.0, -60.0, -80.0, -105.0, -151.0, -205.0, -272.0, -343.0, -407.0, -482.0, -591.0, -662.0, -729.0, -793.0, -856.0, -918.0, -960.0, -960.0, -960.0, -960.0, -960.0, -960.0, -956.0, -946.0, -929.0, -906.0, -886.0, -868.0, -855.0, -851.0, -850.0, -850.0, -849.0, -848.0, -845.0, -841.0, -837.0, -834.0, -834.0]	[-490.0, -491.0, -491.0, -491.0, -491.0, -491.0, -491.0, -491.0, -491.0, -491.0, -491.0, -491.0, -491.0, -484.0, -470.0, -460.0, -460.0, -460.0, -460.0, -460.0, -460.0, -460.0, -460.0, -460.0, -460.0, -460.0, -460.0, -460.0, -460.0, -464.0, -464.0, -464.0, -463.0, -461.0, -455.0, -438.0, -423.0, -399.0, -368.0, -324.0, -268.0, -206.0, -111.0, -10.0, 82.0, 163.0, 231.0, 295.0, 372.0, 420.0, 462.0, 499.0, 534.0, 540.0, 540.0, 540.0, 540.0, 538.0, 528.0, 516.0, 498.0, 478.0, 452.0, 421.0, 397.0, 385.0, 378.0, 376.0, 376.0, 376.0, 375.0, 375.0, 375.0, 375.0, 375.0, 375.0, 375.0]	[0.004798118548933417, 0.008737784519325942, 0.013277172634843737, 0.027530557825230062, 0.043161563109606504, 0.05927692004479468, 0.0767306438065134, 0.09270673687569797, 0.10982015158515424, 0.12600718846078962, 0.1429987472947687, 0.15956978377653286, 0.1766705692280084, 0.19281493942253292, 0.2097812396241352, 0.226093887060415, 0.24298475263640285, 0.2592721413820982, 0.2763237748295069, 0.2928627260844223, 0.3098010369576514, 0.3261007136898115, 0.34316122182644904, 0.3595332611585036, 0.3765098013682291, 0.39282483811257407, 0.4098508715396747, 0.4262116469326429, 0.44322812306927517, 0.45951209851773456, 0.47652550268685445, 0.4926333502517082, 0.5095883864560165, 0.5260430283960886, 0.5431035365327261, 0.5595574958133511, 0.5764374387217686, 0.5926514408783987, 0.6097235543420538, 0.6261904842685908, 0.6432284644106403, 0.6596742317196913, 0.6765128733240999, 0.692972976656165, 0.7097361836349592, 0.7259788577794097, 0.7431188964983448, 0.7595595438033342, 0.7764900040347129, 0.7927087848656811, 0.8097440343117341, 0.8263550068368204, 0.843191941792611, 0.859508685185574, 0.8763497161562555, 0.8928855953854509, 0.9097215063520707, 0.9260665804031305, 0.9431260644923896, 0.9595677357865497, 0.976422761392314, 0.992878086050041, 1.009783287649043, 1.0259744204813614, 1.0431444965070114, 1.0594414426013827, 1.0763469854719006, 1.0926193555933423, 1.1097286743461154, 1.126187753630802, 1.1430847632000223, 1.1593984346254729, 1.1763957961229607, 1.1928313234238885, 1.2098652075510472, 1.226148841669783, 1.2431038778740913]
23	images/0193.jpg	images/0554.jpg	right	1.411	[0.0, 0.0, 0.0, 0.0, 0.0, 0.0, 0.0, 0.0, 0.0, 0.0, 0.0, 0.0, 0.0, 0.0, 0.0, 0.0, 0.0, 0.0, 0.0, 0.0, 0.0, 0.0, -6.0, -20.0, -39.0, -75.0, -126.0, -191.0, -296.0, -383.0, -471.0, -563.0, -641.0, -713.0, -772.0, -809.0, -820.0, -824.0, -824.0, -824.0, -824.0, -824.0, -824.0, -810.0, -789.0, -753.0, -694.0, -602.0, -488.0, -361.0, -219.0, -23.0, 93.0, 188.0, 266.0, 321.0, 356.0, 377.0, 389.0, 399.0, 410.0, 421.0, 441.0, 471.0, 482.0, 503.0, 513.0, 528.0, 561.0, 603.0, 630.0, 654.0, 673.0, 685.0, 697.0, 702.0, 706.0, 707.0, 707.0, 709.0, 710.0, 713.0, 718.0, 720.0, 720.0]	[-490.0, -490.0, -490.0, -490.0, -490.0, -490.0, -490.0, -490.0, -490.0, -490.0, -490.0, -490.0, -490.0, -490.0, -490.0, -490.0, -490.0, -490.0, -490.0, -490.0, -490.0, -490.0, -479.0, -458.0, -430.0, -395.0, -343.0, -281.0, -159.0, -59.0, 45.0, 170.0, 279.0, 370.0, 442.0, 491.0, 514.0, 527.0, 531.0, 532.0, 532.0, 532.0, 533.0, 527.0, 516.0, 496.0, 470.0, 441.0, 409.0, 391.0, 378.0, 372.0, 372.0, 372.0, 378.0, 397.0, 412.0, 424.0, 433.0, 440.0, 448.0, 454.0, 458.0, 458.0, 458.0, 458.0, 453.0, 443.0, 426.0, 405.0, 392.0, 383.0, 378.0, 378.0, 378.0, 378.0, 381.0, 383.0, 384.0, 388.0, 391.0, 395.0, 401.0, 403.0, 403.0]	[0.0007990606245584786, 0.0058780963299795985, 0.018438128288835287, 0.0346265304251574, 0.05174301716033369, 0.06808262987760827, 0.08503595943329856, 0.10149299073964357, 0.11846611759392545, 0.1347948076436296, 0.15162286796839908, 0.16792903002351522, 0.18499602348310873, 0.20144383877050132, 0.21838112565455958, 0.23473712237318978, 0.25168703857343644, 0.26810959522845224, 0.2850178687949665, 0.30141892144456506, 0.3183702029637061, 0.3346773890662007, 0.3516785052488558, 0.3680727312457748, 0.38508750073378906, 0.40142096945783123, 0.4183224163716659, 0.4347627223469317, 0.4515839559608139, 0.46811881120083854, 0.4850188927957788, 0.5013632841873914, 0.5183794189943001, 0.534773644991219, 0.5516730439267121, 0.5681362191680819, 0.5849567701807246, 0.6014646600815468, 0.6183780536521226, 0.634736439678818, 0.6517300464911386, 0.6680553232436068, 0.6849847594858147, 0.7014650013879873, 0.7184217442991212, 0.734768524998799, 0.7517143451841548, 0.7681109605473466, 0.7850185514544137, 0.8015230280579999, 0.8183210510178469, 0.8347487276769243, 0.8515723506570794, 0.8678061501123011, 0.8848591489368118, 0.9013926387997344, 0.9183603043202311, 0.9347569196834229, 0.9516771399066783, 0.9682177978102118, 0.984945506148506, 1.0014970867196098, 1.018327877682168, 1.034767159668263, 1.0516552946064621, 1.0681068645208143, 1.0849410688388161, 1.1014704627450556, 1.1183473336859606, 1.1346449624397792, 1.151706153235864, 1.1680812645936385, 1.1849502848344855, 1.2014588573947549, 1.218314565718174, 1.2347354156663641, 1.2516556358896196, 1.268143045832403, 1.285011724801734, 1.3012226549326442, 1.3184493922744878, 1.3348623915808275, 1.3517297051730566, 1.3682416910887696, 1.385024695424363]
24	images/0591.jpg	images/0004.jpg	left	2.001	[0.0, 0.0, 0.0, 0.0, 0.0, 0.0, 0.0, 0.0, 0.0, 0.0, 0.0, 0.0, 0.0, 0.0, 0.0, 0.0, 0.0, 0.0, 0.0, 10.0, 16.0, 23.0, 26.0, 28.0, 29.0, 29.0, 24.0, 6.0, -13.0, -50.0, -96.0, -150.0, -211.0, -279.0, -338.0, -399.0, -446.0, -491.0, -530.0, -548.0, -562.0, -567.0, -572.0, -575.0, -577.0, -579.0, -583.0, -591.0, -606.0, -633.0, -651.0, -667.0, -682.0, -695.0, -705.0, -714.0, -723.0, -734.0, -738.0, -742.0, -743.0, -743.0, -743.0, -743.0, -743.0, -743.0, -743.0, -743.0, -743.0, -743.0, -743.0, -743.0, -743.0, -743.0, -743.0, -743.0, -743.0, -743.0, -743.0, -743.0, -743.0, -743.0, -743.0, -743.0, -743.0, -743.0, -743.0, -743.0, -743.0, -743.0, -743.0, -743.0, -743.0, -743.0, -743.0, -743.0, -743.0, -743.0, -743.0, -743.0, -743.0, -743.0, -743.0, -743.0, -743.0, -743.0, -743.0, -743.0, -743.0, -743.0, -743.0, -743.0, -743.0, -743.0, -743.0, -743.0, -743.0, -743.0, -743.0, -743.0, -743.0]	[-490.0, -490.0, -490.0, -490.0, -490.0, -490.0, -490.0, -490.0, -490.0, -490.0, -490.0, -490.0, -490.0, -490.0, -490.0, -490.0, -490.0, -490.0, -486.0, -472.0, -462.0, -449.0, -436.0, -424.0, -402.0, -376.0, -319.0, -269.0, -219.0, -150.0, -77.0, -1.0, 63.0, 123.0, 173.0, 221.0, 257.0, 290.0, 314.0, 325.0, 330.0, 331.0, 331.0, 331.0, 331.0, 331.0, 331.0, 331.0, 331.0, 337.0, 345.0, 350.0, 354.0, 357.0, 363.0, 369.0, 376.0, 383.0, 384.0, 385.0, 386.0, 386.0, 386.0, 386.0, 386.0, 386.0, 386.0, 386.0, 386.0, 386.0, 386.0, 386.0, 386.0, 386.0, 386.0, 386.0, 386.0, 386.0, 386.0, 386.0, 386.0, 386.0, 386.0, 386.0, 386.0, 386.0, 386.0, 386.0, 386.0, 386.0, 386.0, 386.0, 386.0, 386.0, 386.0, 386.0, 386.0, 386.0, 386.0, 386.0, 386.0, 386.0, 386.0, 386.0, 386.0, 386.0, 386.0, 386.0, 386.0, 386.0, 386.0, 386.0, 386.0, 386.0, 386.0, 386.0, 386.0, 386.0, 386.0, 386.0, 386.0]	[0.007599438831675798, 0.011842208507005125, 0.01614402886480093, 0.031658639607485384, 0.04852595325792208, 0.06472835008753464, 0.08190422877669334, 0.09799432702129707, 0.11507941113086417, 0.13133095990633592, 0.14847611862933263, 0.1646829528035596, 0.18174858088605106, 0.19828548410441726, 0.21518112835474312, 0.23164362099487334, 0.24846041726414114, 0.2649867392028682, 0.28190047410316765, 0.29831244942033663, 0.3151364137302153, 0.3315640903892927, 0.34846690262202173, 0.3649208619026467, 0.3818168474826962, 0.39821619348367676, 0.4151428990298882, 0.4315238130511716, 0.4484720226028003, 0.4650273578008637, 0.48195201536873356, 0.49835545738460496, 0.51512276037829, 0.5315541917225346, 0.5485208332538605, 0.5650157525087707, 0.5818209435092285, 0.5982455481425859, 0.615124125732109, 0.6315524850506335, 0.6484286733320914, 0.6649280298734084, 0.6818857967737131, 0.6982998200692236, 0.7151882963371463, 0.7316115356516093, 0.7484017080278136, 0.7649580672150478, 0.7818168475059792, 0.798255788104143, 0.8151340243639424, 0.8315890076919459, 0.8484549559652805, 0.8649140352499671, 0.8818028528476134, 0.898277974803932, 0.9151411923812702, 0.9315494130714796, 0.9484054626664147, 0.9647317634080537, 0.9816898715798743, 0.9982291641645133, 1.0152087763417512, 1.0316060743643902, 1.0484296972863376, 1.0647785260225646, 1.0817990981740877, 1.0981738682021387, 1.1151876137009822, 1.1316111943451688, 1.1484392546117306, 1.16474097938044, 1.1818462021183223, 1.198050646984484, 1.2152098003425635, 1.231627919652965, 1.2485174199100584, 1.265005512512289, 1.2818578074802645, 1.298232918838039, 1.315208435000386, 1.3316374769783579, 1.3485491639003158, 1.3649205205729231, 1.3817762288381346, 1.3982339428039268, 1.415184200333897, 1.4315763783524744, 1.4484662199392915, 1.4646805634256452, 1.481836986145936, 1.4982168761780486, 1.5151940989890136, 1.5313173065660521, 1.5484692919417284, 1.5648932139156386, 1.5817919301916845, 1.5982595427776687, 1.6151637203874998, 1.6315046984236687, 1.648435499984771, 1.6646870487602428, 1.6818311834940687, 1.6979728230508044, 1.7151391443912871, 1.7316074396949261, 1.7485703265410848, 1.7649932245258242, 1.7817898821667768, 1.798270124127157, 1.815226184320636, 1.8315965170040727, 1.848494891950395, 1.8649072085972875, 1.881780666182749, 1.8982100494904444, 1.9152016083244234, 1.9315511197200976, 1.9484522253042087, 1.9649048192659393, 1.9818397167837247]
25	images/0018.jpg	images/0370.jpg	right	2.087	[0.0, 0.0, 0.0, 0.0, 0.0, 0.0, 0.0, 0.0, 0.0, 0.0, 0.0, 0.0, 2.0, 2.0, 5.0, 12.0, 25.0, 41.0, 97.0, 124.0, 221.0, 286.0, 344.0, 395.0, 448.0, 501.0, 550.0, 604.0, 648.0, 689.0, 724.0, 761.0, 793.0, 809.0, 819.0, 825.0, 831.0, 833.0, 835.0, 835.0, 835.0, 835.0, 835.0, 835.0, 835.0, 835.0, 835.0, 835.0, 835.0, 835.0, 835.0, 835.0, 835.0, 835.0, 835.0, 835.0, 835.0, 835.0, 835.0, 835.0, 835.0, 835.0, 835.0, 835.0, 835.0, 835.0, 835.0, 835.0, 835.0, 835.0, 835.0, 835.0, 835.0, 835.0, 835.0, 836.0, 836.0, 836.0, 836.0, 835.0, 834.0, 833.0, 832.0, 832.0, 832.0, 832.0, 832.0, 832.0, 832.0, 832.0, 832.0, 832.0, 832.0, 832.0, 832.0, 832.0, 832.0, 832.0, 832.0, 832.0, 832.0, 832.0, 832.0, 832.0, 832.0, 832.0, 832.0, 832.0, 832.0, 832.0, 832.0, 832.0, 832.0, 832.0, 832.0, 832.0, 832.0, 832.0, 832.0, 832.0, 832.0, 832.0, 832.0, 832.0, 832.0, 832.0]	[-490.0, -490.0, -490.0, -490.0, -490.0, -490.0, -490.0, -490.0, -490.0, -490.0, -490.0, -490.0, -490.0, -484.0, -475.0, -458.0, -437.0, -412.0, -342.0, -311.0, -197.0, -122.0, -57.0, -2.0, 53.0, 107.0, 155.0, 200.0, 233.0, 259.0, 281.0, 303.0, 316.0, 324.0, 330.0, 333.0, 336.0, 338.0, 339.0, 339.0, 339.0, 339.0, 339.0, 339.0, 339.0, 339.0, 339.0, 339.0, 339.0, 339.0, 339.0, 339.0, 339.0, 339.0, 339.0, 339.0, 339.0, 339.0, 339.0, 339.0, 339.0, 339.0, 339.0, 339.0, 339.0, 339.0, 339.0, 339.0, 339.0, 339.0, 339.0, 339.0, 339.0, 339.0, 339.0, 339.0, 350.0, 365.0, 376.0, 386.0, 397.0, 401.0, 403.0, 404.0, 405.0, 405.0, 405.0, 405.0, 405.0, 405.0, 405.0, 405.0, 405.0, 405.0, 405.0, 405.0, 405.0, 405.0, 405.0, 405.0, 405.0, 405.0, 405.0, 405.0, 405.0, 405.0, 405.0, 405.0, 405.0, 405.0, 405.0, 405.0, 405.0, 405.0, 405.0, 405.0, 405.0, 405.0, 405.0, 405.0, 405.0, 405.0, 405.0, 405.0, 405.0, 405.0]	[0.00888967770151794, 0.013101727410685271, 0.018544282764196396, 0.03430089866742492, 0.05055176478344947, 0.06761500355787575, 0.08388873905641958, 0.10099054843885824, 0.11709668935509399, 0.13433469063602388, 0.1507302820100449, 0.16769453417509794, 0.18406316020991653, 0.20092944981297478, 0.21733323315856978, 0.23421249340754002, 0.2506654286989942, 0.26762251288164407, 0.2840938802110031, 0.3009533431613818, 0.31738033710280433, 0.3343794052489102, 0.3505930661340244, 0.3677901074406691, 0.38407578953774646, 0.40095778048271313, 0.41746464639436454, 0.4342339974245988, 0.45048964221496135, 0.4675631209393032, 0.4840198109159246, 0.500917503144592, 0.5173223104793578, 0.5342483333661221, 0.5505657594767399, 0.5675941822701134, 0.5841334747965448, 0.600973823107779, 0.6174602090613917, 0.6343183066346683, 0.6507657806505449, 0.6675689236144535, 0.6840583815355785, 0.70097348181298, 0.717169051989913, 0.7342322907643393, 0.7506900046719238, 0.7676330942194909, 0.7841822854243219, 0.800971775141079, 0.8173878464149311, 0.834284856042359, 0.8506927353446372, 0.8676279742503539, 0.8840150322648697, 0.9010021537542343, 0.9171666626352817, 0.934205666766502, 0.9505265061743557, 0.9676068116095848, 0.9838443657499738, 1.00071236200165, 1.0173984277644195, 1.0342285360675305, 1.0507726072683, 1.0675743849715218, 1.08382866444299, 1.1006676473771222, 1.1173881877912208, 1.1342708613956347, 1.1507524686167017, 1.167594523576554, 1.183978850953281, 1.200826708576642, 1.2173055851599202, 1.2342746160575189, 1.2507811406394467, 1.267535131657496, 1.284047117573209, 1.300947540497873, 1.3173154838150367, 1.3342466267058626, 1.3506770340609364, 1.3676856594975106, 1.3840307335485704, 1.4009089698665775, 1.4173305024742149, 1.4342739333515055, 1.4505722447647713, 1.467533424962312, 1.4839658802957274, 1.500956073810812, 1.5173820437630638, 1.5342432134202681, 1.55075485794805, 1.5675661929417402, 1.5841570267803036, 1.601043113740161, 1.6173444971209392, 1.6342841733712703, 1.6504490235820413, 1.6675532223307528, 1.6837812191224657, 1.700944468495436, 1.717349958489649, 1.7342814427101985, 1.750459604896605, 1.767653915565461, 1.7839911389164627, 1.8010001057409681, 1.8173700971528888, 1.8342787120491266, 1.8506971726892516, 1.867552880954463, 1.8841461041592993, 1.901026729727164, 1.9172489239135757, 1.934223416086752, 1.9504534609150141, 1.9676726888865232, 1.9838566537364386, 2.0008243192569353, 2.01712536130799, 2.0342712026904337, 2.050671572680585, 2.0676143208984286]
26	images/0296.jpg	images/0334.jpg	right	1.963	[0.0, 0.0, 0.0, 0.0, 0.0, 0.0, 0.0, 0.0, 0.0, 0.0, 0.0, 0.0, 0.0, 0.0, 0.0, 0.0, 0.0, 0.0, 0.0, 0.0, 0.0, 0.0, -1.0, -1.0, -2.0, -4.0, -7.0, -10.0, -17.0, -26.0, -38.0, -56.0, -95.0, -139.0, -193.0, -264.0, -340.0, -423.0, -499.0, -575.0, -646.0, -707.0, -760.0, -806.0, -813.0, -829.0, -833.0, -834.0, -834.0, -834.0, -834.0, -835.0, -835.0, -835.0, -832.0, -822.0, -819.0, -807.0, -797.0, -784.0, -771.0, -757.0, -748.0, -737.0, -732.0, -729.0, -729.0, -729.0, -729.0, -729.0, -729.0, -729.0, -729.0, -729.0, -725.0, -703.0, -662.0, -599.0, -526.0, -426.0, -229.0, -93.0, 46.0, 200.0, 351.0, 490.0, 610.0, 723.0, 829.0, 905.0, 943.0, 959.0, 959.0, 959.0, 959.0, 959.0, 959.0, 959.0, 959.0, 959.0, 959.0, 959.0, 959.0, 940.0, 911.0, 859.0, 826.0, 800.0, 780.0, 774.0, 773.0, 772.0, 772.0, 772.0, 772.0, 772.0, 772.0, 772.0]	[-490.0, -490.0, -490.0, -490.0, -490.0, -490.0, -490.0, -490.0, -490.0, -490.0, -490.0, -490.0, -490.0, -490.0, -490.0, -490.0, -490.0, -490.0, -490.0, -490.0, -490.0, -490.0, -490.0, -487.0, -482.0, -478.0, -467.0, -457.0, -440.0, -422.0, -394.0, -362.0, -293.0, -238.0, -168.0, -73.0, 28.0, 125.0, 211.0, 283.0, 352.0, 418.0, 468.0, 523.0, 532.0, 540.0, 540.0, 540.0, 540.0, 540.0, 540.0, 534.0, 523.0, 512.0, 498.0, 478.0, 473.0, 457.0, 442.0, 428.0, 413.0, 398.0, 389.0, 381.0, 377.0, 374.0, 373.0, 373.0, 373.0, 373.0, 373.0, 373.0, 373.0, 373.0, 373.0, 373.0, 373.0, 373.0, 373.0, 373.0, 373.0, 373.0, 384.0, 406.0, 423.0, 431.0, 437.0, 437.0, 437.0, 437.0, 437.0, 437.0, 437.0, 437.0, 437.0, 437.0, 437.0, 437.0, 437.0, 437.0, 437.0, 435.0, 422.0, 402.0, 388.0, 375.0, 375.0, 384.0, 393.0, 398.0, 399.0, 401.0, 403.0, 405.0, 408.0, 411.0, 411.0, 411.0]	[0.0005440848763100803, 0.005453819350805134, 0.017974939313717186, 0.034374967974144965, 0.05127197754336521, 0.06787441670894623, 0.0846475224243477, 0.10104277241043746, 0.11806846456602216, 0.13441695197252557, 0.15127641492290422, 0.1675685823429376, 0.18454102653777227, 0.20101512444671243, 0.2180015632766299, 0.23417767748469487, 0.25125695893075317, 0.26772798487218097, 0.2846198744373396, 0.30111240438418463, 0.31802238459931687, 0.3343828186625615, 0.3512381855980493, 0.36777372349752113, 0.384761527646333, 0.4010547191137448, 0.417888923373539, 0.4344565465580672, 0.45124262291938066, 0.46753205970162526, 0.4846031491179019, 0.5010130764567293, 0.51788551005302, 0.5341769948136061, 0.551274366909638, 0.5676429929444566, 0.5846536664175801, 0.6009543671971187, 0.6179124753689393, 0.6343674586387351, 0.6512009802972898, 0.6674726677592844, 0.684521229180973, 0.7009506124886684, 0.7178192914579995, 0.7343101146980189, 0.7511992736253887, 0.7676409449195489, 0.7845755011658184, 0.8007792633143254, 0.8178561553941108, 0.8343309360207058, 0.8511596790049225, 0.8676423102733679, 0.884726029005833, 0.9009707511868328, 0.9179797179531306, 0.9381139301112853, 0.9511682123411447, 0.9676272916258313, 0.9845946158166043, 1.0009919137810357, 1.0178756113746203, 1.0341158962110057, 1.0511685536475852, 1.0677532434929162, 1.084569015831221, 1.100774826016277, 1.1204031825764105, 1.1343401520280167, 1.1512682228931226, 1.1677187688765116, 1.1845720878336579, 1.2008550392347388, 1.2178524007322267, 1.2341865521739237, 1.251151486998424, 1.2676286569330841, 1.2845297625171952, 1.3010106871370226, 1.3179141820291989, 1.3343712133355439, 1.3512508149142377, 1.367735152831301, 1.3846024664817378, 1.4010513057583012, 1.4178797074127942, 1.434371895971708, 1.451261737558525, 1.4677088701864704, 1.4845775491558015, 1.5011888629524037, 1.5180599312298, 1.5344818052253686, 1.5512736842501909, 1.5676952169160359, 1.5846741463756189, 1.6008256846107543, 1.6178793660947122, 1.6343776986468583, 1.6513187402160838, 1.6677795261493884, 1.6845403438201174, 1.7008642552536912, 1.7179008700768463, 1.7343759919749573, 1.7512682229280472, 1.767734470195137, 1.78458062116988, 1.800963583169505, 1.817897115368396, 1.8343452720437199, 1.851157631026581, 1.8675726783112623, 1.8845249838777818, 1.9009547085152008, 1.917929200688377, 1.9343940826365724]
27	images/0431.jpg	images/0181.jpg	left	1.945	[0.0, 0.0, 0.0, 0.0, 0.0, 0.0, 0.0, 0.0, 0.0, 0.0, 0.0, 0.0, 0.0, 0.0, 0.0, 0.0, 0.0, 0.0, 0.0, 0.0, 0.0, 0.0, 0.0, 0.0, 0.0, 0.0, 0.0, 0.0, 0.0, 0.0, 0.0, 0.0, 0.0, 0.0, 0.0, 0.0, 0.0, 0.0, 0.0, 0.0, 0.0, 0.0, 0.0, 0.0, 0.0, 5.0, 12.0, 21.0, 39.0, 63.0, 95.0, 138.0, 191.0, 259.0, 334.0, 432.0, 608.0, 730.0, 843.0, 926.0, 959.0, 959.0, 959.0, 959.0, 959.0, 954.0, 947.0, 938.0, 920.0, 905.0, 888.0, 866.0, 840.0, 804.0, 755.0, 698.0, 622.0, 535.0, 421.0, 284.0, 143.0, -100.0, -238.0, -365.0, -465.0, -541.0, -575.0, -583.0, -583.0, -583.0, -583.0, -583.0, -583.0, -583.0, -584.0, -588.0, -590.0, -590.0, -590.0, -590.0, -591.0, -595.0, -608.0, -618.0, -633.0, -658.0, -675.0, -690.0, -700.0, -708.0, -715.0, -718.0, -719.0, -720.0, -721.0, -721.0, -721.0]	[-490.0, -490.0, -490.0, -490.0, -490.0, -490.0, -490.0, -490.0, -490.0, -490.0, -490.0, -490.0, -490.0, -490.0, -490.0, -490.0, -490.0, -490.0, -490.0, -490.0, -490.0, -490.0, -490.0, -490.0, -490.0, -490.0, -490.0, -490.0, -490.0, -490.0, -490.0, -490.0, -490.0, -490.0, -490.0, -490.0, -490.0, -490.0, -490.0, -490.0, -490.0, -490.0, -490.0, -490.0, -490.0, -490.0, -490.0, -490.0, -490.0, -490.0, -490.0, -488.0, -477.0, -456.0, -425.0, -373.0, -252.0, -164.0, -71.0, 1.0, 60.0, 114.0, 155.0, 186.0, 210.0, 232.0, 251.0, 269.0, 303.0, 322.0, 337.0, 348.0, 357.0, 363.0, 371.0, 371.0, 371.0, 371.0, 371.0, 371.0, 371.0, 371.0, 371.0, 371.0, 371.0, 371.0, 371.0, 370.0, 370.0, 370.0, 370.0, 370.0, 370.0, 370.0, 370.0, 371.0, 374.0, 374.0, 374.0, 374.0, 374.0, 377.0, 380.0, 384.0, 387.0, 393.0, 399.0, 400.0, 401.0, 401.0, 401.0, 401.0, 401.0, 401.0, 401.0, 401.0, 401.0]	[0.0012605429510585964, 0.006746447586920112, 0.019238554290495813, 0.03565530828200281, 0.0527779390104115, 0.06906054908176884, 0.08613334520487115, 0.1023111660615541, 0.11948431405471638, 0.1358799054287374, 0.15274346433579922, 0.16927149292314425, 0.18613573454786092, 0.2026074431487359, 0.21956828201655298, 0.23577238549478352, 0.252731176384259, 0.26900934911100194, 0.2859445880167186, 0.3024476992432028, 0.3194672474055551, 0.3357969615026377, 0.35270489373942837, 0.3689076318987645, 0.38593878532992676, 0.402564435149543, 0.4194631514255889, 0.43578569748206064, 0.4527615549741313, 0.4691858183359727, 0.48609067854704335, 0.50244940596167, 0.519570329983253, 0.5358181241317652, 0.5527216190239415, 0.5689619038603269, 0.5860480119008571, 0.6024302912992425, 0.6194535940885544, 0.6357952547841705, 0.6527229843777604, 0.6692848048987798, 0.6860626892303117, 0.7024487232556567, 0.7259505272377282, 0.7357723854947835, 0.7527939816354774, 0.7689851144677959, 0.786126859835349, 0.8023429100285284, 0.8193788421340287, 0.8358321187552065, 0.8527308350312524, 0.8691523676970974, 0.8860691745649092, 0.9024862698861398, 0.9194327727891505, 0.935793548123911, 0.9527977363322861, 0.9692970928736031, 0.9861429025186226, 1.0025186965358444, 1.0194696367252618, 1.0358979960437864, 1.0527724776766263, 1.069203226303216, 1.086005345277954, 1.1024859285680577, 1.1193945434642956, 1.1358502094517462, 1.1527564349817112, 1.1689799944870174, 1.186029921285808, 1.202605053782463, 1.2193365168641321, 1.2358095907839015, 1.2526212671073154, 1.26922711962834, 1.2860183159355074, 1.30247227527434, 1.3193344688625075, 1.3358280227985233, 1.352681000425946, 1.3688956852420233, 1.38594902533805, 1.4022903447621502, 1.4193672368419357, 1.4358054947806522, 1.4527175230323337, 1.4691127730766311, 1.4860951158916578, 1.502311507356353, 1.5192969221970998, 1.5357665828196332, 1.5527424403699115, 1.56926773826126, 1.5860384546103887, 1.6023405207088217, 1.619202031637542, 1.635765558865387, 1.652728104381822, 1.6691704583354294, 1.6860797558911145, 1.7021998915006407, 1.7194013701518998, 1.7358266574447043, 1.752732883032877, 1.769059183774516, 1.7861582625191659, 1.80250470188912, 1.819303407566622, 1.8357457615202293, 1.8527124030515552, 1.8689352798392065, 1.8860336759244092, 1.9025248405523598, 1.919463834085036]
28	images/0093.jpg	images/0125.jpg	right	2.034	[0.0, 0.0, 0.0, 0.0, 0.0, 0.0, 0.0, 0.0, 0.0, 0.0, 0.0, 0.0, 0.0, 0.0, 0.0, 0.0, 0.0, 0.0, 0.0, 3.0, 9.0, 25.0, 28.0, 59.0, 88.0, 126.0, 168.0, 213.0, 245.0, 265.0, 273.0, 274.0, 270.0, 254.0, 230.0, 187.0, 138.0, 51.0, -51.0, -169.0, -293.0, -416.0, -534.0, -653.0, -756.0, -851.0, -951.0, -960.0, -960.0, -960.0, -960.0, -960.0, -960.0, -960.0, -960.0, -959.0, -942.0, -919.0, -885.0, -816.0, -778.0, -753.0, -740.0, -735.0, -735.0, -735.0, -735.0, -735.0, -735.0, -735.0, -735.0, -735.0, -735.0, -735.0, -735.0, -735.0, -717.0, -681.0, -610.0, -518.0, -402.0, -286.0, -97.0, 25.0, 122.0, 205.0, 259.0, 303.0, 338.0, 369.0, 405.0, 451.0, 502.0, 541.0, 614.0, 643.0, 662.0, 671.0, 674.0, 675.0, 676.0, 679.0, 683.0, 686.0, 694.0, 700.0, 710.0, 724.0, 740.0, 758.0, 775.0, 790.0, 802.0, 807.0, 810.0, 811.0, 811.0, 811.0, 811.0, 811.0, 811.0, 811.0]	[-490.0, -490.0, -490.0, -490.0, -490.0, -490.0, -490.0, -490.0, -490.0, -490.0, -490.0, -490.0, -490.0, -490.0, -490.0, -490.0, -490.0, -490.0, -490.0, -484.0, -470.0, -434.0, -421.0, -361.0, -310.0, -244.0, -179.0, -113.0, -67.0, -37.0, -17.0, -8.0, -1.0, 9.0, 19.0, 35.0, 54.0, 92.0, 134.0, 186.0, 238.0, 288.0, 336.0, 371.0, 403.0, 430.0, 457.0, 469.0, 475.0, 477.0, 477.0, 477.0, 477.0, 477.0, 477.0, 477.0, 477.0, 471.0, 462.0, 438.0, 421.0, 411.0, 405.0, 402.0, 401.0, 400.0, 399.0, 399.0, 399.0, 399.0, 399.0, 399.0, 399.0, 399.0, 399.0, 399.0, 398.0, 398.0, 396.0, 387.0, 371.0, 354.0, 326.0, 307.0, 296.0, 288.0, 288.0, 288.0, 288.0, 290.0, 296.0, 310.0, 320.0, 327.0, 340.0, 351.0, 360.0, 366.0, 371.0, 373.0, 375.0, 378.0, 381.0, 383.0, 386.0, 386.0, 387.0, 389.0, 390.0, 391.0, 391.0, 391.0, 391.0, 391.0, 392.0, 392.0, 392.0, 392.0, 392.0, 392.0, 392.0, 392.0]	[0.0009956684662029147, 0.006619813037104905, 0.01887162122875452, 0.03545767639297992, 0.05219152878271416, 0.07235373026924208, 0.08554420433938503, 0.10177049448247999, 0.11879482126096264, 0.1352477566106245, 0.15230792335933074, 0.1683591096661985, 0.18537319649476558, 0.20192580099683255, 0.21900474111316726, 0.2350941566983238, 0.2521065368782729, 0.2686260321061127, 0.28552747901994735, 0.3020193262491375, 0.3188948318711482, 0.33502657274948433, 0.3521792407846078, 0.368656410719268, 0.3856326095992699, 0.4019718809868209, 0.41894842113833874, 0.43523580994224176, 0.4521864088019356, 0.4686386614339426, 0.48548959102481604, 0.5020237636053935, 0.5188808371894993, 0.5352784765418619, 0.5522304407786578, 0.5684038242907263, 0.585529868316371, 0.6019469636958092, 0.6189187251729891, 0.6351491113309748, 0.6521669527865015, 0.6686605067225173, 0.6854315644013695, 0.7019438916468062, 0.7188275892403908, 0.7352798418723978, 0.7522225900902413, 0.7686700640479103, 0.7855817509698682, 0.8017803931143135, 0.8188723038765602, 0.835071970068384, 0.8522338540642522, 0.8684021176304668, 0.8855237243697047, 0.9017711771302857, 0.9188740105601028, 0.9353098791907541, 0.9523243073490448, 0.968644805427175, 0.9856210042489693, 1.0019244356662966, 1.018807450600434, 1.0352986152283847, 1.0521823128219694, 1.0686089654336683, 1.0855063163908198, 1.1019397956551984, 1.118863770563621, 1.1351293140323833, 1.1521505688433535, 1.1686072587617673, 1.185523041698616, 1.201884841080755, 1.2188808372011408, 1.2353419645223767, 1.2522027927916497, 1.2686188641237095, 1.2855749243171886, 1.3020046489546075, 1.3188511412590742, 1.3352603858802468, 1.3521485208184458, 1.3685751734883524, 1.3855336229898967, 1.4019360410165973, 1.4188572852290235, 1.4350914260721765, 1.452181288797874, 1.468628762755543, 1.485510412370786, 1.5020497048972175, 1.5188961972016841, 1.5352893992094323, 1.5522331714164466, 1.5686372960917652, 1.5856158842798322, 1.6020070383092389, 1.6188583092298359, 1.6352600445970893, 1.6522461420972832, 1.668582341459114, 1.6854916390147991, 1.7019271663739346, 1.718842607922852, 1.735306124552153, 1.752144424826838, 1.76857653883053, 1.7855254310416058, 1.8019261423614807, 1.8188606985495426, 1.8353218258707784, 1.8522710594115779, 1.8722523543401621, 1.8855168976588175, 1.9019380889949389, 1.9188589918776415, 1.9350426153978333, 1.9520816195290536, 1.968641733401455, 1.9855182630126365, 2.0020609688945115]
