trialIndex	stimulus	left_option	right_option	response	response_time	xTrajectory	yTrajectory	tTrajectory
0	inanimate/n61.jpg	inanimate	animate	left	2.059	[0.0, 0.0, 0.0, 0.0, 0.0, 0.0, 0.0, 0.0, 0.0, 0.0, 0.0, 0.0, 0.0, 0.0, 0.0, 0.0, 0.0, 0.0, 0.0, 0.0, 0.0, 0.0, 0.0, 0.0, 0.0, 0.0, 0.0, 0.0, 0.0, 0.0, 0.0, 0.0, 0.0, 0.0, 0.0, 0.0, 0.0, 0.0, 0.0, 0.0, 0.0, 0.0, 0.0, 0.0, 0.0, 0.0, 0.0, 0.0, 0.0, 0.0, 0.0, 0.0, 0.0, 0.0, 0.0, 0.0, 0.0, 0.0, 0.0, 0.0, 0.0, 0.0, 0.0, 0.0, 0.0, 0.0, 0.0, 0.0, -1.0, -2.0, -4.0, -4.0, -4.0, -4.0, -5.0, -6.0, -6.0, -7.0, -7.0, -7.0, -7.0, -7.0, -7.0, -7.0, -7.0, -7.0, -7.0, -8.0, -13.0, -34.0, -75.0, -140.0, -234.0, -357.0, -492.0, -640.0, -775.0, -901.0, -960.0, -960.0, -960.0, -960.0, -960.0, -949.0, -937.0, -931.0, -926.0, -922.0, -913.0, -900.0, -883.0, -858.0, -850.0, -832.0, -825.0, -824.0, -823.0, -823.0, -823.0, -823.0, -823.0, -823.0, -823.0, -823.0]	[-490.0, -490.0, -490.0, -490.0, -490.0, -490.0, -490.0, -490.0, -490.0, -490.0, -490.0, -490.0, -490.0, -490.0, -490.0, -490.0, -490.0, -490.0, -490.0, -490.0, -490.0, -490.0, -490.0, -490.0, -490.0, -490.0, -490.0, -490.0, -490.0, -490.0, -490.0, -490.0, -490.0, -490.0, -490.0, -490.0, -490.0, -490.0, -490.0, -490.0, -490.0, -490.0, -490.0, -490.0, -490.0, -490.0, -490.0, -490.0, -490.0, -490.0, -490.0, -490.0, -490.0, -490.0, -490.0, -490.0, -490.0, -490.0, -490.0, -490.0, -490.0, -490.0, -490.0, -490.0, -490.0, -490.0, -490.0, -489.0, -483.0, -479.0, -476.0, -475.0, -475.0, -473.0, -473.0, -471.0, -471.0, -470.0, -470.0, -470.0, -470.0, -470.0, -470.0, -470.0, -470.0, -470.0, -470.0, -463.0, -445.0, -416.0, -378.0, -318.0, -239.0, -133.0, -13.0, 114.0, 248.0, 378.0, 482.0, 540.0, 540.0, 540.0, 540.0, 540.0, 540.0, 540.0, 540.0, 540.0, 531.0, 518.0, 502.0, 484.0, 478.0, 462.0, 453.0, 448.0, 440.0, 433.0, 428.0, 426.0, 426.0, 426.0, 426.0, 426.0]	[0.009498755680397153, 0.014230657368898392, 0.019831251818686724, 0.03450516425073147, 0.0510806436650455, 0.06790290726348758, 0.08436301606707275, 0.10120610077865422, 0.11738665774464607, 0.13454035576432943, 0.15077142999507487, 0.16792137338779867, 0.18432106613181531, 0.20125494548119605, 0.2177297316957265, 0.2345366352237761, 0.250936669530347, 0.2679770446848124, 0.2842900389805436, 0.3011935397516936, 0.3176778831984848, 0.33448342140764, 0.3509752741083503, 0.3678873081225902, 0.3843221585266292, 0.401199376443401, 0.41775198676623404, 0.4344981329049915, 0.4510408444330096, 0.46786310779862106, 0.4842143312562257, 0.5012444665189832, 0.5174052263610065, 0.5345367374829948, 0.5507398226764053, 0.5678866938687861, 0.5841204987373203, 0.6012782927136868, 0.6174595323391259, 0.6346145956777036, 0.6507709180004895, 0.6679515813011676, 0.68409902905114, 0.7011636388488114, 0.7177206864580512, 0.7345439738128334, 0.7508794961031526, 0.767934889998287, 0.7870956268161535, 0.8011220304761082, 0.8200673861429095, 0.8345767760183662, 0.8518093219026923, 0.8679513081442565, 0.8840891986619681, 0.9009063420817256, 0.9202329667750746, 0.9343525541480631, 0.9520431691780686, 0.9676420944742858, 0.9846572109963745, 1.0010077520273626, 1.0179532368201762, 1.034344396321103, 1.051241411594674, 1.0676619259174913, 1.0846104826778173, 1.1010282661300153, 1.1179730682633817, 1.1341788838617504, 1.1511417764704674, 1.1677169147878885, 1.1845248420722783, 1.2009805135894567, 1.2180010916199535, 1.2342782460618764, 1.2512322638649493, 1.2674384210258722, 1.284611233510077, 1.3009569959249347, 1.3179441231768578, 1.3344004773534834, 1.351223423378542, 1.3677702308632433, 1.3846720249857754, 1.400815035449341, 1.4178434640634805, 1.4340810235589743, 1.4512415481731296, 1.4675081211607903, 1.4845450832508504, 1.5008205308113247, 1.5179697913117707, 1.534073889721185, 1.5511958436109126, 1.5674364753067493, 1.5844799226615578, 1.6006952957250178, 1.617892001522705, 1.6340298920404166, 1.651159696513787, 1.6673952082637697, 1.6845813328400254, 1.700887500308454, 1.7177121532149613, 1.7346904056612402, 1.7533114948309958, 1.7674078717827797, 1.7844786255154759, 1.8012404730543494, 1.8200824046507478, 1.8340654589701444, 1.8511194875463843, 1.8672396284528077, 1.8845192783046514, 1.901305360486731, 1.9198991430457681, 1.934099626261741, 1.951122593600303, 1.9679182330146432, 1.9855146401096135, 2.0007705255411565, 2.0179672313388437, 2.0345993721857667]
1	inanimate/n44.jpg	inanimate	animate	left	1.351	[0.0, 0.0, 0.0, 0.0, 0.0, 0.0, 0.0, 0.0, 0.0, 0.0, 1.0, 1.0, 1.0, 1.0, 1.0, 1.0, 1.0, 1.0, 1.0, 1.0, 1.0, 1.0, 2.0, 2.0, 2.0, 2.0, 2.0, 2.0, 2.0, 2.0, 2.0, 2.0, 2.0, 2.0, 2.0, 2.0, 2.0, 2.0, 2.0, 2.0, 2.0, 3.0, 4.0, 6.0, 6.0, -10.0, -38.0, -84.0, -125.0, -157.0, -170.0, -172.0, -172.0, -176.0, -195.0, -223.0, -256.0, -341.0, -422.0, -502.0, -546.0, -565.0, -576.0, -581.0, -582.0, -582.0, -583.0, -585.0, -588.0, -599.0, -617.0, -651.0, -706.0, -780.0, -840.0, -886.0, -903.0, -904.0, -904.0, -903.0, -903.0]	[-490.0, -490.0, -490.0, -490.0, -490.0, -490.0, -490.0, -490.0, -488.0, -488.0, -488.0, -488.0, -488.0, -488.0, -488.0, -488.0, -488.0, -488.0, -488.0, -488.0, -488.0, -488.0, -488.0, -488.0, -487.0, -487.0, -487.0, -487.0, -487.0, -487.0, -487.0, -485.0, -485.0, -484.0, -484.0, -484.0, -484.0, -482.0, -482.0, -482.0, -481.0, -476.0, -469.0, -457.0, -440.0, -385.0, -333.0, -283.0, -254.0, -228.0, -196.0, -151.0, -94.0, -25.0, 46.0, 110.0, 162.0, 244.0, 321.0, 365.0, 380.0, 384.0, 384.0, 384.0, 384.0, 384.0, 384.0, 384.0, 384.0, 384.0, 384.0, 387.0, 396.0, 407.0, 417.0, 430.0, 439.0, 440.0, 442.0, 442.0, 443.0]	[0.005633635446429253, 0.01079254481010139, 0.026076078414916992, 0.043357434682548046, 0.05937381065450609, 0.07652102317661047, 0.09271455090492964, 0.10984401404857635, 0.12605085386894643, 0.14329739427194, 0.1593888634815812, 0.1765685025602579, 0.19276783289387822, 0.20997580280527472, 0.22608467983081937, 0.24339607381261885, 0.2594301989302039, 0.2765760461334139, 0.2927856163587421, 0.3099563808646053, 0.32621680991724133, 0.3433223799802363, 0.35968759818933904, 0.3765310242306441, 0.39299659454263747, 0.4099547085352242, 0.4288659307640046, 0.4433172941207886, 0.4605897758156061, 0.4766071755439043, 0.49529277672991157, 0.5097939746920019, 0.5264080248307437, 0.5429961336776614, 0.5627914087381214, 0.5764017272740602, 0.5954573333729059, 0.609665667405352, 0.6274894024245441, 0.6430036770179868, 0.6599399456754327, 0.6763935694471002, 0.6932909260503948, 0.7093940004706383, 0.7265330210793763, 0.7430818765424192, 0.7599229132756591, 0.7763997474685311, 0.7933564961422235, 0.8095319331623614, 0.8265125751495361, 0.843089078553021, 0.8598799393512309, 0.8763294669333845, 0.8933111329097301, 0.9094517540652305, 0.9266078411601484, 0.9432044834829867, 0.9601963893510401, 0.9762407545931637, 0.9932869323529303, 1.0093835215084255, 1.0265761313494295, 1.0428314404562116, 1.0598540662322193, 1.0760260899551213, 1.0932357665151358, 1.1093699024058878, 1.1265212108846754, 1.1427055224776268, 1.1599534284323454, 1.1761571960523725, 1.19329997128807, 1.2096167204435915, 1.226530802436173, 1.2429373220074922, 1.259954827837646, 1.2761947768740356, 1.293224229477346, 1.3095269838813692, 1.3265362977981567]
2	inanimate/n50.jpg	animate	inanimate	right	1.416	[0.0, 0.0, 0.0, 0.0, 0.0, 0.0, 0.0, 0.0, 0.0, 0.0, 0.0, 0.0, 0.0, 0.0, 0.0, 0.0, 0.0, 0.0, 0.0, 0.0, 0.0, 0.0, 0.0, 0.0, 0.0, 0.0, 0.0, 0.0, 0.0, 0.0, 0.0, 0.0, 0.0, 0.0, 0.0, 0.0, 0.0, 0.0, 0.0, 0.0, 0.0, -8.0, -29.0, -67.0, -132.0, -264.0, -357.0, -447.0, -521.0, -569.0, -593.0, -598.0, -600.0, -594.0, -586.0, -518.0, -489.0, -360.0, -220.0, -38.0, 189.0, 396.0, 576.0, 712.0, 782.0, 805.0, 807.0, 807.0, 807.0, 807.0, 807.0, 808.0, 806.0, 800.0, 793.0, 784.0, 777.0, 770.0, 767.0, 767.0, 775.0, 784.0, 793.0, 793.0, 793.0]	[-490.0, -490.0, -490.0, -490.0, -490.0, -490.0, -490.0, -490.0, -490.0, -490.0, -490.0, -490.0, -490.0, -490.0, -490.0, -490.0, -490.0, -490.0, -490.0, -490.0, -490.0, -490.0, -490.0, -490.0, -490.0, -490.0, -490.0, -490.0, -490.0, -490.0, -490.0, -490.0, -490.0, -490.0, -490.0, -490.0, -490.0, -490.0, -490.0, -485.0, -470.0, -443.0, -400.0, -346.0, -282.0, -202.0, -135.0, -63.0, 7.0, 66.0, 105.0, 125.0, 135.0, 161.0, 175.0, 278.0, 309.0, 402.0, 466.0, 529.0, 540.0, 540.0, 540.0, 540.0, 540.0, 540.0, 540.0, 540.0, 540.0, 540.0, 540.0, 537.0, 527.0, 509.0, 490.0, 469.0, 452.0, 433.0, 418.0, 408.0, 400.0, 399.0, 399.0, 399.0, 399.0]	[0.010564534226432443, 0.01565449428744614, 0.02210364304482937, 0.036492201033979654, 0.05270620877854526, 0.06970801344141364, 0.0859998450614512, 0.10306855081580579, 0.11929109203629196, 0.1364280644338578, 0.1525850696489215, 0.16978996735997498, 0.18602343113161623, 0.2031375344377011, 0.21935188327915967, 0.2366533784661442, 0.25264244759455323, 0.26983574009500444, 0.2859964999370277, 0.3031437124591321, 0.31933997082524, 0.33657081006094813, 0.35268787923268974, 0.36975590232759714, 0.38616310455836356, 0.40297000808641315, 0.4194304582197219, 0.43658722820691764, 0.45298043568618596, 0.4696303259115666, 0.48614777880720794, 0.5030529862269759, 0.5195608816575259, 0.5364462917204946, 0.5529302938375622, 0.5697805467061698, 0.5888112355023623, 0.6030291269998997, 0.6221215971745551, 0.6363504112232476, 0.6535713516641408, 0.6697102661710232, 0.6864751854445785, 0.7030731930863112, 0.7197210351005197, 0.736328599974513, 0.7526866502594203, 0.7694583963602781, 0.786567379720509, 0.8029025606811047, 0.8222936973907053, 0.836225210223347, 0.8554593336302787, 0.8696366064250469, 0.8876866451464593, 0.9028254535514861, 0.9203187779057771, 0.9363727003801614, 0.9530597957782447, 0.9695588166359812, 0.9864380825310946, 1.0028435783460736, 1.01968529750593, 1.0362003610935062, 1.052990539232269, 1.069614146836102, 1.0865057008340955, 1.1026394951622933, 1.121090258937329, 1.135935862082988, 1.1531407600268722, 1.1696414875332266, 1.1866217881906778, 1.2026142706163228, 1.2198225818574429, 1.2362328560557216, 1.2531230447348207, 1.2697070576250553, 1.286405417136848, 1.3029856751672924, 1.3197765359655023, 1.3361294663045555, 1.3530080495402217, 1.3693551772739738, 1.386517408536747]
3	animate/a28.jpg	animate	inanimate	left	1.638	[0.0, 0.0, 0.0, 0.0, 0.0, 0.0, 0.0, 0.0, 0.0, 0.0, 0.0, 0.0, 0.0, 0.0, 0.0, 0.0, 0.0, 0.0, 0.0, 0.0, 0.0, 0.0, 0.0, 0.0, 0.0, 0.0, 0.0, 0.0, -3.0, -7.0, -9.0, -9.0, -9.0, -9.0, -9.0, -9.0, -9.0, -9.0, -9.0, -9.0, -9.0, -9.0, -9.0, -9.0, -9.0, -9.0, -9.0, -9.0, -9.0, -9.0, -9.0, -9.0, -9.0, -9.0, -9.0, -9.0, -9.0, -9.0, -9.0, -9.0, -15.0, -35.0, -75.0, -138.0, -228.0, -333.0, -434.0, -513.0, -577.0, -614.0, -627.0, -628.0, -623.0, -622.0, -622.0, -622.0, -624.0, -626.0, -627.0, -627.0, -628.0, -629.0, -633.0, -640.0, -663.0, -687.0, -722.0, -768.0, -808.0, -831.0, -845.0, -852.0, -857.0, -860.0, -861.0, -862.0, -862.0, -862.0]	[-490.0, -490.0, -490.0, -490.0, -490.0, -490.0, -490.0, -490.0, -490.0, -490.0, -490.0, -490.0, -490.0, -490.0, -490.0, -490.0, -490.0, -490.0, -490.0, -490.0, -490.0, -490.0, -490.0, -490.0, -490.0, -490.0, -490.0, -490.0, -485.0, -483.0, -483.0, -483.0, -483.0, -483.0, -483.0, -483.0, -483.0, -483.0, -483.0, -483.0, -483.0, -483.0, -483.0, -483.0, -483.0, -483.0, -483.0, -483.0, -483.0, -483.0, -483.0, -483.0, -483.0, -483.0, -483.0, -483.0, -483.0, -483.0, -483.0, -483.0, -479.0, -470.0, -448.0, -403.0, -334.0, -242.0, -148.0, -57.0, 23.0, 85.0, 133.0, 230.0, 254.0, 261.0, 267.0, 270.0, 274.0, 277.0, 279.0, 280.0, 280.0, 281.0, 282.0, 282.0, 288.0, 298.0, 313.0, 334.0, 356.0, 372.0, 391.0, 404.0, 413.0, 422.0, 426.0, 428.0, 428.0, 428.0]	[0.0041189356707036495, 0.009386730380356312, 0.023075555451214314, 0.040305370464921, 0.05661290348507464, 0.0735300574451685, 0.09002327569760382, 0.10689878719858825, 0.12327526928856969, 0.140385617967695, 0.15636308188550174, 0.17359699285589159, 0.19008474983274937, 0.2068732213228941, 0.22324117016978562, 0.2402781320270151, 0.256581227760762, 0.273552312515676, 0.29000559472478926, 0.30685687134973705, 0.3232350603211671, 0.3402587103191763, 0.35670243529602885, 0.37355098128318787, 0.39002440217882395, 0.40688899089582264, 0.4234357983805239, 0.4402771764434874, 0.45650790934450924, 0.47355613531544805, 0.48977116704918444, 0.5069136009551585, 0.5230603660456836, 0.540312709286809, 0.5563775543123484, 0.5735268148127943, 0.5897561826277524, 0.60687813651748, 0.6230351414997131, 0.6403618953190744, 0.656411380507052, 0.6735753181856126, 0.6897422219626606, 0.7068962613120675, 0.7230699916835874, 0.7404011827893555, 0.7563824013341218, 0.7735733045265079, 0.7898139362223446, 0.806962855393067, 0.8230792416725308, 0.8402049504220486, 0.8565193100366741, 0.8735214560292661, 0.8902481461409479, 0.9068976948037744, 0.9258932264056057, 0.9401964510325342, 0.9594950864557177, 0.9734515168238431, 0.9910721583291888, 1.0067864544689655, 1.023825122974813, 1.040303663816303, 1.0567316873930395, 1.0734669109806418, 1.0897549879737198, 1.1065154699608684, 1.1229981067590415, 1.139937788946554, 1.157886451575905, 1.1733112970832735, 1.1902677044272423, 1.2064305122476071, 1.2236811486072838, 1.2398688737303019, 1.2568385929334909, 1.27345708059147, 1.290267397183925, 1.3063831010367721, 1.323471604147926, 1.3399593611247838, 1.3567765045445412, 1.3733577865641564, 1.3903541299514472, 1.4064705164637417, 1.423740608850494, 1.4400624779518694, 1.4568731358740479, 1.473150972975418, 1.490181449567899, 1.5063374305609614, 1.523488739039749, 1.539679877460003, 1.5568089995067567, 1.5730114018078893, 1.5902197130490094, 1.6063620406202972]
4	inanimate/n8.jpg	animate	inanimate	right	1.152	[0.0, 0.0, 0.0, 0.0, 0.0, 0.0, 0.0, 0.0, 0.0, 0.0, 0.0, 0.0, 1.0, 3.0, 3.0, 4.0, 4.0, 4.0, 4.0, 4.0, 4.0, 5.0, 5.0, 5.0, 5.0, 3.0, -1.0, -6.0, -15.0, -23.0, -29.0, -36.0, -42.0, -46.0, -50.0, -50.0, -52.0, -52.0, -53.0, -53.0, -53.0, -53.0, -41.0, -13.0, 54.0, 90.0, 224.0, 327.0, 451.0, 566.0, 670.0, 743.0, 776.0, 786.0, 788.0, 789.0, 793.0, 794.0, 803.0, 805.0, 805.0, 805.0, 805.0, 805.0, 805.0, 805.0, 805.0, 805.0, 805.0, 805.0]	[-490.0, -490.0, -490.0, -490.0, -490.0, -490.0, -490.0, -490.0, -490.0, -490.0, -490.0, -490.0, -490.0, -490.0, -490.0, -490.0, -490.0, -490.0, -490.0, -490.0, -490.0, -489.0, -489.0, -487.0, -483.0, -479.0, -473.0, -469.0, -455.0, -440.0, -430.0, -413.0, -400.0, -392.0, -386.0, -384.0, -381.0, -380.0, -377.0, -366.0, -348.0, -320.0, -278.0, -213.0, -91.0, -30.0, 153.0, 245.0, 319.0, 369.0, 403.0, 422.0, 433.0, 436.0, 437.0, 438.0, 441.0, 444.0, 456.0, 461.0, 462.0, 462.0, 462.0, 462.0, 462.0, 462.0, 462.0, 462.0, 462.0, 462.0]	[0.008352832170203328, 0.014181437203660607, 0.019961572717875242, 0.031380532309412956, 0.048614102182909846, 0.06468543247319758, 0.08182581840083003, 0.09801559150218964, 0.11510955612175167, 0.13135325978510082, 0.14855679217725992, 0.16473188810050488, 0.18185281800106168, 0.19838699605315924, 0.21529903006739914, 0.23140927264466882, 0.24862338649109006, 0.26493160193786025, 0.2818859613034874, 0.29825629969127476, 0.31520314957015216, 0.33378600934520364, 0.34875073772855103, 0.36743190162815154, 0.3818733661901206, 0.40061596990562975, 0.4150929332245141, 0.43409563275054097, 0.448464393382892, 0.46522999554872513, 0.4818665736820549, 0.4980423520319164, 0.5149844232946634, 0.5344496294856071, 0.548331649042666, 0.5676043431740254, 0.5817099357955158, 0.5987035485450178, 0.6149295028299093, 0.6342680742964149, 0.6482750216964632, 0.6659376474563032, 0.6816447754390538, 0.6987994972150773, 0.7149582088459283, 0.7318859442602843, 0.7480129119940102, 0.7651686579920352, 0.7816666548606008, 0.7984418142586946, 0.8149500510189682, 0.8317757279146463, 0.8483167327940464, 0.8652301321271807, 0.8813820171635598, 0.8986347015015781, 0.9149910451378673, 0.9318006793037057, 0.9494940249715, 0.9651185502298176, 0.9813288033474237, 0.9985487197991461, 1.0149368073325604, 1.0319160840008408, 1.0484116915613413, 1.0651854856405407, 1.081644570454955, 1.098585617961362, 1.1150440201163292, 1.1318072329740971]
5	animate/a4.jpg	inanimate	animate	right	1.802	[0.0, 0.0, 0.0, 0.0, 0.0, 0.0, 0.0, 0.0, 0.0, 0.0, 0.0, 0.0, 0.0, 1.0, 2.0, 3.0, 4.0, 5.0, 6.0, 7.0, 8.0, 10.0, 10.0, 10.0, 8.0, 1.0, -8.0, -19.0, -28.0, -38.0, -48.0, -56.0, -71.0, -82.0, -92.0, -109.0, -122.0, -132.0, -146.0, -159.0, -176.0, -196.0, -201.0, -218.0, -231.0, -243.0, -255.0, -270.0, -283.0, -295.0, -305.0, -319.0, -320.0, -336.0, -343.0, -363.0, -378.0, -391.0, -404.0, -414.0, -425.0, -434.0, -442.0, -448.0, -451.0, -453.0, -453.0, -453.0, -453.0, -453.0, -453.0, -453.0, -453.0, -453.0, -456.0, -474.0, -507.0, -553.0, -605.0, -661.0, -671.0, -672.0, -669.0, -655.0, -623.0, -538.0, -403.0, -214.0, 17.0, 258.0, 481.0, 643.0, 765.0, 788.0, 793.0, 793.0, 793.0, 793.0, 793.0, 793.0, 793.0, 793.0, 795.0, 795.0, 795.0, 795.0, 795.0, 795.0]	[-490.0, -490.0, -490.0, -490.0, -490.0, -490.0, -491.0, -492.0, -492.0, -492.0, -493.0, -493.0, -493.0, -493.0, -493.0, -491.0, -489.0, -487.0, -485.0, -482.0, -475.0, -469.0, -463.0, -451.0, -439.0, -422.0, -404.0, -387.0, -370.0, -351.0, -333.0, -315.0, -280.0, -255.0, -231.0, -200.0, -173.0, -151.0, -129.0, -111.0, -93.0, -69.0, -64.0, -37.0, -17.0, 4.0, 22.0, 42.0, 60.0, 75.0, 89.0, 109.0, 113.0, 148.0, 158.0, 181.0, 197.0, 209.0, 219.0, 228.0, 237.0, 245.0, 250.0, 254.0, 255.0, 256.0, 256.0, 256.0, 256.0, 256.0, 256.0, 256.0, 256.0, 256.0, 257.0, 259.0, 259.0, 259.0, 259.0, 267.0, 271.0, 277.0, 293.0, 314.0, 339.0, 367.0, 404.0, 431.0, 459.0, 463.0, 463.0, 463.0, 463.0, 463.0, 463.0, 463.0, 463.0, 463.0, 463.0, 463.0, 463.0, 463.0, 461.0, 459.0, 459.0, 459.0, 459.0, 459.0]	[0.014539358671754599, 0.019837190629914403, 0.027401816099882126, 0.04404590371996164, 0.0608029724098742, 0.07789011020213366, 0.09425157401710749, 0.1111875013448298, 0.12766740750521421, 0.14447431080043316, 0.1608920944854617, 0.17760854470543563, 0.19425160810351372, 0.21120733278803527, 0.2276991857215762, 0.2444477209355682, 0.26097916858270764, 0.27785229054279625, 0.29404138098470867, 0.3110387483611703, 0.3272858653217554, 0.3444689179304987, 0.36070033349096775, 0.3778393540997058, 0.3939605192281306, 0.41119408910162747, 0.4273142300080508, 0.4444648560602218, 0.46061878907494247, 0.47777419351041317, 0.4939619186334312, 0.5110971846152097, 0.5272975389380008, 0.544464890146628, 0.5606761670205742, 0.5777561371214688, 0.5941203313414007, 0.6110473840963095, 0.6274702874943614, 0.6445055429358035, 0.660804201150313, 0.6778312644455582, 0.6941606428008527, 0.7110791620798409, 0.7276164123322815, 0.7444622276816517, 0.7614210243336856, 0.7778736238833517, 0.7967728995718062, 0.8110590577125549, 0.8301740558817983, 0.8443622512277216, 0.8636520120780915, 0.8777750127483159, 0.8969893390312791, 0.9110614811070263, 0.9301242553628981, 0.9445568453520536, 0.96206587087363, 0.9779078254941851, 0.994793918216601, 1.0111451419070363, 1.02780766133219, 1.0444145435467362, 1.0606780445668846, 1.0775545798242092, 1.094196277903393, 1.1108144242316484, 1.130082339514047, 1.1442012444604188, 1.1624120511114597, 1.1776863685809076, 1.1946410692762583, 1.210872826166451, 1.2277418521698564, 1.2439910173416138, 1.2611556379124522, 1.2776519281324, 1.2943997806869447, 1.3106393883936107, 1.3278422383591533, 1.344247392611578, 1.361112663988024, 1.3776127088349313, 1.3944643267896026, 1.4109169265720993, 1.4278982512187213, 1.4440033736173064, 1.4610062022693455, 1.4776199110783637, 1.4943039345089346, 1.5109108167234808, 1.5278160239104182, 1.5440726983360946, 1.5610287643503398, 1.5776731930673122, 1.5943507312331349, 1.6106988829560578, 1.6278542873915285, 1.643944732611999, 1.6611537262797356, 1.67733257682994, 1.6944890052545816, 1.7106412316206843, 1.7278143856674433, 1.7439526172820479, 1.761149323079735, 1.777298818808049]
6	animate/a78.jpg	inanimate	animate	right	1.298	[0.0, 0.0, 0.0, 0.0, 0.0, 0.0, 0.0, 0.0, 0.0, 0.0, 0.0, 0.0, -1.0, -1.0, -1.0, -1.0, -1.0, -1.0, -1.0, -1.0, -1.0, 0.0, 0.0, 0.0, 0.0, 0.0, 0.0, 0.0, 0.0, 0.0, 0.0, 0.0, 2.0, 4.0, 7.0, 10.0, 14.0, 22.0, 35.0, 51.0, 76.0, 111.0, 162.0, 295.0, 341.0, 479.0, 558.0, 619.0, 657.0, 683.0, 704.0, 720.0, 730.0, 734.0, 736.0, 736.0, 736.0, 742.0, 744.0, 745.0, 745.0, 745.0, 745.0, 745.0, 745.0, 745.0, 745.0, 745.0, 745.0, 745.0, 745.0, 745.0, 745.0, 745.0, 745.0, 745.0, 745.0, 745.0]	[-490.0, -490.0, -490.0, -490.0, -490.0, -490.0, -490.0, -490.0, -490.0, -490.0, -490.0, -490.0, -488.0, -485.0, -484.0, -482.0, -478.0, -476.0, -475.0, -474.0, -474.0, -473.0, -472.0, -469.0, -468.0, -465.0, -462.0, -460.0, -456.0, -453.0, -449.0, -442.0, -429.0, -422.0, -402.0, -381.0, -356.0, -324.0, -280.0, -231.0, -177.0, -116.0, -42.0, 127.0, 180.0, 293.0, 349.0, 394.0, 422.0, 440.0, 455.0, 463.0, 468.0, 469.0, 469.0, 469.0, 469.0, 467.0, 465.0, 464.0, 464.0, 464.0, 464.0, 464.0, 464.0, 464.0, 464.0, 464.0, 464.0, 464.0, 464.0, 464.0, 464.0, 464.0, 464.0, 464.0, 464.0, 464.0]	[0.0068718555849045515, 0.011933143716305494, 0.02058832859620452, 0.028561529936268926, 0.04522712132893503, 0.06246069120243192, 0.07857639482244849, 0.09574818331748247, 0.11209258041344583, 0.1289704809896648, 0.14532750728540123, 0.1622951787430793, 0.17874777829274535, 0.19574378011748195, 0.21448262920603156, 0.2290107924491167, 0.24806639878079295, 0.2622023702133447, 0.28096954990178347, 0.29573664627969265, 0.3121950486674905, 0.3289063787087798, 0.3482101340778172, 0.36241710279136896, 0.38114878395572305, 0.39558581123128533, 0.41332865017466247, 0.429084247443825, 0.4462287293281406, 0.4623362410347909, 0.4790141205303371, 0.4956926826853305, 0.5118503703270108, 0.528788004303351, 0.5481272584293038, 0.5619208726566285, 0.5790513600222766, 0.5954517356585711, 0.6148029363248497, 0.6287566358223557, 0.6470623330678791, 0.6621427733916789, 0.6814946569502354, 0.695517988409847, 0.7145418506115675, 0.7285552835091949, 0.7474132578354329, 0.762262956937775, 0.7793197161518037, 0.7954763798043132, 0.8122870379593223, 0.8289666241034865, 0.8455465408042073, 0.8620646763592958, 0.878902982454747, 0.8954446699935943, 0.9122921919915825, 0.9288407061249018, 0.9456493163015693, 0.9620998678728938, 0.9790712937247008, 0.9954658667556942, 1.0123772181104869, 1.0288359615951777, 1.0457258089445531, 1.062156563391909, 1.0789993067737669, 1.095435180934146, 1.1123257109429687, 1.128656113287434, 1.1457797738257796, 1.1618968429975212, 1.1791959486436099, 1.1954959724098444, 1.2123353024944663, 1.2288821099791676, 1.2456289387773722, 1.2621484396513551]
7	inanimate/n32.jpg	animate	inanimate	right	1.033	[0.0, 0.0, 0.0, 0.0, 0.0, 0.0, 0.0, 1.0, 1.0, 2.0, 5.0, 5.0, 6.0, 6.0, 7.0, 7.0, 8.0, 10.0, 10.0, 10.0, 10.0, 18.0, 28.0, 51.0, 96.0, 137.0, 176.0, 208.0, 224.0, 235.0, 249.0, 260.0, 270.0, 285.0, 313.0, 391.0, 438.0, 487.0, 543.0, 596.0, 628.0, 642.0, 649.0, 654.0, 656.0, 667.0, 672.0, 694.0, 695.0, 695.0, 695.0, 695.0, 695.0, 695.0, 708.0, 728.0, 754.0, 779.0, 788.0, 788.0, 788.0, 788.0]	[-490.0, -490.0, -490.0, -490.0, -490.0, -490.0, -490.0, -490.0, -490.0, -490.0, -490.0, -490.0, -488.0, -488.0, -484.0, -483.0, -476.0, -467.0, -449.0, -425.0, -387.0, -330.0, -259.0, -167.0, -18.0, 96.0, 205.0, 311.0, 399.0, 475.0, 524.0, 540.0, 540.0, 540.0, 540.0, 540.0, 540.0, 540.0, 535.0, 525.0, 514.0, 509.0, 505.0, 500.0, 496.0, 482.0, 478.0, 466.0, 465.0, 465.0, 465.0, 465.0, 465.0, 464.0, 460.0, 459.0, 456.0, 456.0, 456.0, 456.0, 456.0, 456.0]	[0.000759876100346446, 0.005691457539796829, 0.016436966601759195, 0.03345344867557287, 0.050032682716846466, 0.06643476500175893, 0.08318705507554114, 0.1003014997113496, 0.11643358739092946, 0.13348556798882782, 0.15001838095486164, 0.166900719050318, 0.18313861987553537, 0.20027866447344422, 0.21661111479625106, 0.23359858337789774, 0.24982590321451426, 0.2669372756499797, 0.2830922328867018, 0.30021998938173056, 0.31638313829898834, 0.33361602551303804, 0.34976552124135196, 0.36696700588800013, 0.3830837334971875, 0.40030911145731807, 0.41642344975844026, 0.4336525823455304, 0.44977306481450796, 0.4669410986825824, 0.48309776233509183, 0.5003514708951116, 0.5164221187587827, 0.5335788885131478, 0.5499205547384918, 0.5668226901907474, 0.5833817857783288, 0.6001750358846039, 0.6192497566808015, 0.6335850667674094, 0.6528000754769892, 0.6667353429365903, 0.6861257969867438, 0.7002706432249397, 0.7193381960969418, 0.73351546889171, 0.7525953096337616, 0.7668302678503096, 0.7858292127493769, 0.8002542932517827, 0.8175653459038585, 0.8335905962157995, 0.8502394624520093, 0.8669480618555099, 0.883141589583829, 0.9001608020626009, 0.9166577751748264, 0.9332677291240543, 0.9502818218898028, 0.9666835628449917, 0.9845902416855097, 0.999946137657389]
8	inanimate/n31.jpg	animate	inanimate	right	1.139	[0.0, 0.0, 0.0, 0.0, 0.0, 0.0, 0.0, 0.0, 0.0, 0.0, 0.0, 0.0, 0.0, 0.0, 0.0, 0.0, 0.0, 0.0, 0.0, 0.0, 0.0, 0.0, 0.0, 0.0, 0.0, 0.0, 0.0, -1.0, -1.0, 0.0, 2.0, 2.0, 6.0, 10.0, 19.0, 35.0, 61.0, 123.0, 187.0, 248.0, 308.0, 354.0, 387.0, 410.0, 421.0, 432.0, 437.0, 443.0, 447.0, 459.0, 471.0, 494.0, 512.0, 531.0, 547.0, 560.0, 573.0, 585.0, 597.0, 617.0, 638.0, 666.0, 708.0, 727.0, 739.0, 740.0, 741.0, 741.0]	[-490.0, -490.0, -490.0, -490.0, -490.0, -490.0, -490.0, -490.0, -490.0, -490.0, -490.0, -490.0, -490.0, -490.0, -490.0, -490.0, -490.0, -490.0, -490.0, -490.0, -490.0, -490.0, -490.0, -490.0, -490.0, -490.0, -490.0, -487.0, -487.0, -487.0, -487.0, -486.0, -484.0, -479.0, -465.0, -444.0, -408.0, -325.0, -237.0, -135.0, -24.0, 81.0, 152.0, 206.0, 231.0, 249.0, 258.0, 265.0, 271.0, 285.0, 295.0, 309.0, 320.0, 331.0, 341.0, 348.0, 358.0, 363.0, 373.0, 384.0, 395.0, 412.0, 435.0, 446.0, 453.0, 454.0, 454.0, 454.0]	[0.0035340951289981604, 0.008793015033006668, 0.0220090935472399, 0.038560338551178575, 0.05578503361903131, 0.0719376013148576, 0.08919301652349532, 0.10541282687336206, 0.12242555408738554, 0.13898294302634895, 0.15571168111637235, 0.17213560873642564, 0.18922377075068653, 0.20527427969500422, 0.2223737055901438, 0.23859727079980075, 0.25571820070035756, 0.27193357376381755, 0.2891582688316703, 0.3052691938355565, 0.32239968120120466, 0.3386795660480857, 0.3556933174841106, 0.3721141731366515, 0.3890954975504428, 0.4052757134195417, 0.4223840138874948, 0.43860382423736155, 0.4557421621866524, 0.4722770231310278, 0.48908665706403553, 0.5053699554409832, 0.5222406880930066, 0.5387932984158397, 0.5556333111599088, 0.572114241309464, 0.5890849845018238, 0.6054211896844208, 0.6223328821361065, 0.6388039137236774, 0.6557405237108469, 0.6747592659667134, 0.6891655733343214, 0.7082256169524044, 0.7223172150552273, 0.7413987626787275, 0.7556487394031137, 0.7727082292549312, 0.7891543435398489, 0.8054782603867352, 0.8220851426012814, 0.8385974755510688, 0.8554487521760166, 0.875015334226191, 0.8890205749776214, 0.9080481920391321, 0.9221667554229498, 0.9400099462363869, 0.9553026957437396, 0.973139742622152, 0.9889506357721984, 1.005932301748544, 1.0218882616609335, 1.0391491381451488, 1.055264841997996, 1.0723768970929086, 1.0888028726913035, 1.105718661332503]
9	animate/a41.jpg	inanimate	animate	right	1.167	[0.0, 0.0, 0.0, 0.0, 0.0, 0.0, 0.0, 1.0, 1.0, 1.0, 2.0, 2.0, 2.0, 2.0, 2.0, 2.0, 2.0, 2.0, 2.0, 3.0, 3.0, 3.0, 3.0, 3.0, 2.0, 2.0, -5.0, -9.0, -11.0, -12.0, -13.0, -14.0, -15.0, -16.0, -16.0, -9.0, 26.0, 88.0, 185.0, 250.0, 311.0, 360.0, 409.0, 482.0, 561.0, 622.0, 684.0, 731.0, 752.0, 758.0, 759.0, 759.0, 759.0, 759.0, 759.0, 759.0, 761.0, 761.0, 762.0, 762.0, 762.0, 762.0, 762.0, 762.0, 763.0, 763.0, 763.0, 763.0, 763.0, 763.0]	[-490.0, -490.0, -490.0, -490.0, -490.0, -490.0, -490.0, -491.0, -492.0, -492.0, -492.0, -492.0, -492.0, -492.0, -492.0, -492.0, -492.0, -492.0, -492.0, -492.0, -489.0, -485.0, -480.0, -476.0, -473.0, -466.0, -418.0, -399.0, -377.0, -372.0, -368.0, -365.0, -361.0, -351.0, -332.0, -299.0, -228.0, -133.0, -29.0, 29.0, 79.0, 121.0, 178.0, 273.0, 365.0, 428.0, 481.0, 514.0, 529.0, 535.0, 537.0, 537.0, 537.0, 537.0, 537.0, 537.0, 534.0, 533.0, 528.0, 519.0, 499.0, 476.0, 451.0, 423.0, 410.0, 405.0, 405.0, 405.0, 405.0, 405.0]	[0.007016512798145413, 0.015210556564852595, 0.027098507853224874, 0.04645551135763526, 0.060509904054924846, 0.07969658216461539, 0.09415477211587131, 0.11288167466409504, 0.12718319264240563, 0.14557763654738665, 0.16046454082243145, 0.1797119763214141, 0.19399676914326847, 0.2112112243194133, 0.22730474127456546, 0.24387749028392136, 0.26074446830898523, 0.27689396403729916, 0.29370530461892486, 0.31312340684235096, 0.32705389568582177, 0.3463702804874629, 0.3604294518008828, 0.3779982109554112, 0.3937292320188135, 0.4108013513032347, 0.427053929772228, 0.4444902513641864, 0.46037282468751073, 0.47754085855558515, 0.49375520762987435, 0.510524564422667, 0.5267624652478844, 0.5439137739595026, 0.5603312160819769, 0.577266460750252, 0.5935671671759337, 0.6105938891414553, 0.6269830006640404, 0.6437998027540743, 0.6603773303795606, 0.6773446602746844, 0.6936822305433452, 0.7106099659577012, 0.7269881549291313, 0.7439943968784064, 0.7604084257036448, 0.7772692597936839, 0.7935341261327267, 0.8106557386927307, 0.8268417569343001, 0.8439770229160786, 0.8601725986227393, 0.8772781684529036, 0.8936027681920677, 0.9105690740980208, 0.9270708258263767, 0.94380809715949, 0.9601835554931313, 0.9772495306096971, 0.9934771917760372, 1.0105588682927191, 1.0267837985884398, 1.0439398859161884, 1.0601044003851712, 1.0772973515558988, 1.0934478712733835, 1.110649355687201, 1.126828206004575, 1.1439375306945294]
10	inanimate/n18.jpg	animate	inanimate	right	1.043	[0.0, 0.0, 0.0, 0.0, 1.0, 1.0, 1.0, 1.0, 1.0, 1.0, 5.0, 8.0, 15.0, 16.0, 18.0, 18.0, 20.0, 23.0, 26.0, 29.0, 34.0, 37.0, 40.0, 43.0, 45.0, 50.0, 55.0, 56.0, 65.0, 74.0, 87.0, 104.0, 119.0, 132.0, 154.0, 176.0, 204.0, 236.0, 317.0, 340.0, 403.0, 456.0, 493.0, 520.0, 540.0, 558.0, 577.0, 592.0, 602.0, 610.0, 631.0, 642.0, 678.0, 700.0, 723.0, 745.0, 767.0, 785.0, 795.0, 797.0, 797.0, 797.0, 797.0]	[-490.0, -490.0, -490.0, -490.0, -491.0, -491.0, -491.0, -491.0, -491.0, -491.0, -490.0, -488.0, -485.0, -481.0, -474.0, -472.0, -464.0, -457.0, -447.0, -434.0, -418.0, -399.0, -380.0, -358.0, -337.0, -312.0, -274.0, -259.0, -203.0, -159.0, -115.0, -58.0, -6.0, 43.0, 94.0, 143.0, 186.0, 226.0, 314.0, 336.0, 377.0, 407.0, 422.0, 434.0, 442.0, 447.0, 450.0, 451.0, 451.0, 451.0, 442.0, 439.0, 431.0, 429.0, 429.0, 429.0, 429.0, 429.0, 430.0, 430.0, 430.0, 430.0, 430.0]	[0.01636890461668372, 0.02241698675788939, 0.03041305742226541, 0.04778725653886795, 0.06375277368351817, 0.08420374989509583, 0.09705630852840841, 0.11757725803181529, 0.13038885686546564, 0.1497974016238004, 0.1639132343698293, 0.1838167121168226, 0.19695974537171423, 0.21672771405428648, 0.2305363470222801, 0.24988925433717668, 0.2638665058184415, 0.28330133319832385, 0.2972256781067699, 0.31667040404863656, 0.33029505843296647, 0.3497602646239102, 0.36387814534828067, 0.3817841415293515, 0.3972321974579245, 0.41477979393675923, 0.43057669256813824, 0.44824682734906673, 0.4637897741049528, 0.48077075742185116, 0.49725100491195917, 0.5141155936289579, 0.5306190520059317, 0.5475461045280099, 0.5638556855265051, 0.5808114102110267, 0.5969411085825413, 0.614248406374827, 0.6305552567355335, 0.6474464694038033, 0.6638645944185555, 0.6807223563082516, 0.6971182946581393, 0.7141491125803441, 0.7307140107732266, 0.74744274886325, 0.7636963513214141, 0.7806913291569799, 0.7969858916476369, 0.8142382346559316, 0.8302959117572755, 0.8474936417769641, 0.8636475747916847, 0.8808217525947839, 0.8969862670637667, 0.9143468127585948, 0.9303375885356218, 0.9475144972093403, 0.9636749154888093, 0.9808719628490508, 0.9970057571772486, 1.0142243083100766, 1.0303420601412654]
11	animate/a11.jpg	inanimate	animate	right	1.314	[0.0, 0.0, 0.0, 0.0, 0.0, 0.0, 0.0, 0.0, 0.0, 1.0, 2.0, 2.0, 3.0, 4.0, 4.0, 4.0, 4.0, 4.0, 4.0, 4.0, 4.0, 4.0, 5.0, 5.0, 7.0, 8.0, 10.0, 11.0, 12.0, 13.0, 16.0, 19.0, 22.0, 24.0, 24.0, 26.0, 31.0, 39.0, 54.0, 88.0, 137.0, 192.0, 236.0, 269.0, 291.0, 315.0, 338.0, 371.0, 392.0, 431.0, 495.0, 543.0, 575.0, 591.0, 601.0, 607.0, 615.0, 619.0, 625.0, 629.0, 634.0, 640.0, 648.0, 660.0, 669.0, 678.0, 691.0, 698.0, 707.0, 715.0, 722.0, 733.0, 737.0, 742.0, 748.0, 750.0, 750.0, 750.0, 750.0]	[-490.0, -490.0, -490.0, -490.0, -490.0, -490.0, -490.0, -490.0, -490.0, -490.0, -490.0, -490.0, -490.0, -489.0, -489.0, -489.0, -489.0, -489.0, -489.0, -489.0, -489.0, -489.0, -489.0, -489.0, -487.0, -487.0, -485.0, -483.0, -482.0, -480.0, -477.0, -474.0, -468.0, -464.0, -463.0, -458.0, -449.0, -435.0, -419.0, -388.0, -342.0, -289.0, -238.0, -196.0, -167.0, -134.0, -100.0, -65.0, -50.0, -16.0, 39.0, 81.0, 107.0, 127.0, 143.0, 158.0, 169.0, 177.0, 188.0, 198.0, 209.0, 222.0, 242.0, 263.0, 284.0, 298.0, 315.0, 327.0, 339.0, 355.0, 368.0, 390.0, 400.0, 412.0, 423.0, 427.0, 427.0, 427.0, 427.0]	[0.01439497503452003, 0.020636593224480748, 0.03011746285483241, 0.04381618648767471, 0.06087192194536328, 0.07728253747336566, 0.09420856600627303, 0.1106147444806993, 0.1275138077326119, 0.14397630607709289, 0.16087980661541224, 0.1772815475706011, 0.19429666409268975, 0.21063935454003513, 0.22752408194355667, 0.24398419074714184, 0.2608426355291158, 0.27728055766783655, 0.2943106929305941, 0.31060184189118445, 0.32759135868400335, 0.34395009162835777, 0.3609020614530891, 0.377037221333012, 0.39408032735809684, 0.410614846739918, 0.42759378207847476, 0.4441085043363273, 0.4608652316965163, 0.4773120286408812, 0.49418788123875856, 0.5104506995994598, 0.5274071069434285, 0.543784954585135, 0.5608765298966318, 0.5771099934354424, 0.5941862089093775, 0.6104224030859768, 0.6276098929811269, 0.6438396021258086, 0.6607850866857916, 0.6770291316788644, 0.6941729309037328, 0.7103930825833231, 0.7275669190566987, 0.7437430389691144, 0.7608796700369567, 0.7770728564355522, 0.7943030130118132, 0.8103862900752574, 0.8275492039974779, 0.8440608542878181, 0.8607735496480018, 0.8771292106248438, 0.8942429726012051, 0.910518761491403, 0.9276021446567029, 0.9441318856552243, 0.9609114823397249, 0.9799230566713959, 0.9941856625955552, 1.0118063043337315, 1.0275482481811196, 1.0465471930801868, 1.0607415325939655, 1.079744573449716, 1.094118112931028, 1.1116384025663137, 1.1275206343270838, 1.1445265349466354, 1.1608088093344122, 1.1770931317005306, 1.1940253044012934, 1.210623653139919, 1.2273496605921537, 1.2439094388391823, 1.2605818568263203, 1.277190787019208, 1.293863887898624]
12	inanimate/n2.jpg	inanimate	animate	left	1.344	[0.0, 0.0, 0.0, 0.0, 0.0, 0.0, 0.0, 0.0, 0.0, 0.0, 0.0, 0.0, 0.0, 0.0, 0.0, 0.0, -4.0, -6.0, -6.0, -6.0, -6.0, -6.0, -7.0, -8.0, -9.0, -9.0, -9.0, -9.0, -9.0, -9.0, -9.0, -9.0, -9.0, -9.0, -9.0, -9.0, -9.0, -9.0, -9.0, -9.0, -9.0, -3.0, 16.0, 50.0, 96.0, 148.0, 216.0, 312.0, 404.0, 414.0, 415.0, 415.0, 407.0, 386.0, 333.0, 236.0, 79.0, -123.0, -337.0, -529.0, -737.0, -812.0, -833.0, -836.0, -836.0, -837.0, -837.0, -837.0, -837.0, -837.0, -837.0, -837.0, -837.0, -837.0, -829.0, -822.0, -814.0, -807.0, -804.0, -803.0, -803.0]	[-490.0, -490.0, -490.0, -490.0, -490.0, -490.0, -490.0, -490.0, -490.0, -490.0, -490.0, -490.0, -490.0, -490.0, -490.0, -490.0, -494.0, -496.0, -496.0, -496.0, -496.0, -496.0, -494.0, -488.0, -486.0, -486.0, -486.0, -486.0, -486.0, -486.0, -486.0, -486.0, -486.0, -486.0, -486.0, -486.0, -486.0, -486.0, -486.0, -486.0, -480.0, -452.0, -411.0, -353.0, -287.0, -219.0, -140.0, -10.0, 125.0, 161.0, 181.0, 200.0, 220.0, 240.0, 267.0, 292.0, 318.0, 343.0, 356.0, 359.0, 359.0, 362.0, 363.0, 363.0, 363.0, 363.0, 362.0, 362.0, 362.0, 362.0, 362.0, 362.0, 362.0, 362.0, 365.0, 372.0, 383.0, 393.0, 399.0, 400.0, 400.0]	[0.012789002386853099, 0.01865515415556729, 0.026682968717068434, 0.04072336666285992, 0.05785658466629684, 0.07518743444234133, 0.09086827980354428, 0.10721062868833542, 0.12419639062136412, 0.14066503290086985, 0.15759003767743707, 0.17401533061638474, 0.1908846979495138, 0.2073806468397379, 0.22432988602668047, 0.24077600031159818, 0.25752248778007925, 0.2740710019133985, 0.2909038467332721, 0.3073810222558677, 0.3242732589133084, 0.3407903704792261, 0.3576392577961087, 0.37388364411890507, 0.39088579011149704, 0.40719639509916306, 0.4242507650051266, 0.4405047087930143, 0.45762086007744074, 0.4737522650975734, 0.49099914683029056, 0.5071742425207049, 0.5243071191944182, 0.540463441517204, 0.5576922327745706, 0.5738509444054216, 0.5910049837548286, 0.6073674713261425, 0.6242409346159548, 0.6406512088142335, 0.6578103681094944, 0.6739079812541604, 0.6909152471926063, 0.7072531587909907, 0.7242303874809295, 0.740600042976439, 0.757676258450374, 0.7740564954001456, 0.7909330306574702, 0.8098497143946588, 0.824271040270105, 0.843324598390609, 0.8577329537365586, 0.8751293395180255, 0.8908589954953641, 0.9078273493796587, 0.9242966743186116, 0.9407526871655136, 0.9575404759962112, 0.9744490967132151, 0.9909276375547051, 1.007685388904065, 1.0242349272593856, 1.0404960389714688, 1.057314206380397, 1.0767582496628165, 1.090644706506282, 1.1084882386494428, 1.1240158253349364, 1.141764808446169, 1.1572654298506677, 1.1744576983619481, 1.1907010606955737, 1.2078260865528136, 1.2239004890434444, 1.2413255467545241, 1.2574432983528823, 1.2747171455994248, 1.2908294359222054, 1.3083725951146334, 1.3240083844866604]
13	animate/a60.jpg	animate	inanimate	left	1.483	[0.0, 0.0, 0.0, 0.0, 0.0, 0.0, 0.0, 0.0, 0.0, 0.0, 0.0, 0.0, 0.0, 1.0, 1.0, 1.0, 1.0, 1.0, 1.0, 1.0, 1.0, 1.0, 1.0, 1.0, 1.0, 1.0, 1.0, 1.0, 1.0, 1.0, 1.0, 1.0, 1.0, 1.0, 1.0, 6.0, 25.0, 79.0, 104.0, 154.0, 212.0, 341.0, 456.0, 555.0, 641.0, 719.0, 774.0, 807.0, 824.0, 828.0, 828.0, 828.0, 828.0, 828.0, 828.0, 828.0, 828.0, 828.0, 816.0, 784.0, 710.0, 605.0, 467.0, 218.0, 140.0, -103.0, -223.0, -291.0, -320.0, -342.0, -359.0, -369.0, -388.0, -394.0, -419.0, -427.0, -463.0, -496.0, -539.0, -597.0, -656.0, -697.0, -725.0, -741.0, -753.0, -754.0, -755.0, -755.0, -755.0]	[-490.0, -490.0, -490.0, -490.0, -490.0, -490.0, -490.0, -490.0, -492.0, -495.0, -495.0, -495.0, -495.0, -496.0, -496.0, -496.0, -496.0, -496.0, -496.0, -496.0, -496.0, -496.0, -496.0, -496.0, -496.0, -496.0, -495.0, -493.0, -489.0, -484.0, -484.0, -484.0, -484.0, -484.0, -484.0, -471.0, -446.0, -381.0, -352.0, -293.0, -224.0, -84.0, 60.0, 176.0, 268.0, 350.0, 414.0, 456.0, 480.0, 487.0, 489.0, 489.0, 489.0, 489.0, 489.0, 489.0, 490.0, 490.0, 491.0, 491.0, 491.0, 491.0, 491.0, 496.0, 498.0, 498.0, 500.0, 500.0, 500.0, 499.0, 492.0, 487.0, 478.0, 477.0, 476.0, 476.0, 476.0, 476.0, 476.0, 476.0, 476.0, 472.0, 470.0, 467.0, 465.0, 465.0, 465.0, 465.0, 465.0]	[0.0012305742129683495, 0.006236907793208957, 0.01740703545510769, 0.03438528790138662, 0.050876458175480366, 0.06771681224927306, 0.08417487307451665, 0.10117292311042547, 0.11791872791945934, 0.13452526880428195, 0.15340304048731923, 0.16770114516839385, 0.18685232452116907, 0.20111766131594777, 0.2185041483025998, 0.23444474814459682, 0.2522930591367185, 0.2676929871086031, 0.286572806769982, 0.3010125649161637, 0.3177157030440867, 0.3341502118855715, 0.35136227775365114, 0.3677906426601112, 0.3843572475016117, 0.400779468473047, 0.41728019597940147, 0.43424445390701294, 0.45085850404575467, 0.46751829283311963, 0.48418490844778717, 0.501100355759263, 0.5174949285574257, 0.5341024934314191, 0.5514920526184142, 0.5676094628870487, 0.5852113312575966, 0.6008990032132715, 0.6178004560060799, 0.6342349648475647, 0.6511357349809259, 0.6675231398548931, 0.6844420004636049, 0.701070728013292, 0.7176878501195461, 0.7342387537937611, 0.7511040249373764, 0.7672856061253697, 0.7843495332635939, 0.8008546982891858, 0.8177401083521545, 0.8342008998151869, 0.8510883578564972, 0.8675273042172194, 0.8844775673933327, 0.9011059536132962, 0.9178394703194499, 0.9342582779936492, 0.9510672292672098, 0.9674652155954391, 0.9843769082799554, 1.0006127613596618, 1.0178384804166853, 1.0339494056534022, 1.051178196677938, 1.0673007271252573, 1.0845605796203017, 1.1008537765592337, 1.1177982373628765, 1.1341156689450145, 1.1510993828997016, 1.1675427665468305, 1.1843384059611708, 1.2007493628188968, 1.2176924580708146, 1.2340563111938536, 1.251146862283349, 1.267621989827603, 1.2844896505121142, 1.3011941539589316, 1.317789772292599, 1.3365876718889922, 1.3510970617644489, 1.3697754950262606, 1.3843173114582896, 1.4018290678504854, 1.4177754702977836, 1.4373010923154652, 1.451026098569855]
14	animate/a65.jpg	animate	inanimate	left	1.45	[0.0, 0.0, 0.0, 0.0, 0.0, 0.0, 0.0, 0.0, 1.0, 1.0, 2.0, 4.0, 6.0, 7.0, 7.0, 7.0, 7.0, 7.0, 7.0, 7.0, 7.0, 7.0, 7.0, 7.0, 7.0, 10.0, 10.0, 11.0, 11.0, 13.0, 13.0, 13.0, 13.0, 13.0, 13.0, 13.0, 13.0, 24.0, 42.0, 54.0, 69.0, 89.0, 115.0, 166.0, 221.0, 290.0, 356.0, 417.0, 477.0, 528.0, 568.0, 592.0, 608.0, 617.0, 628.0, 634.0, 646.0, 650.0, 652.0, 652.0, 652.0, 652.0, 652.0, 647.0, 555.0, 374.0, 8.0, -235.0, -459.0, -636.0, -745.0, -799.0, -818.0, -821.0, -821.0, -821.0, -821.0, -823.0, -825.0, -838.0, -847.0, -860.0, -865.0, -865.0, -865.0, -865.0, -865.0]	[-490.0, -490.0, -490.0, -490.0, -490.0, -490.0, -490.0, -490.0, -493.0, -493.0, -493.0, -494.0, -496.0, -496.0, -496.0, -496.0, -496.0, -496.0, -496.0, -496.0, -496.0, -496.0, -496.0, -496.0, -496.0, -496.0, -496.0, -495.0, -493.0, -489.0, -485.0, -478.0, -463.0, -445.0, -425.0, -401.0, -372.0, -296.0, -195.0, -126.0, -74.0, -19.0, 31.0, 107.0, 167.0, 221.0, 270.0, 305.0, 337.0, 359.0, 375.0, 386.0, 394.0, 400.0, 406.0, 410.0, 418.0, 421.0, 422.0, 422.0, 422.0, 422.0, 422.0, 423.0, 435.0, 440.0, 440.0, 440.0, 442.0, 459.0, 461.0, 463.0, 463.0, 463.0, 463.0, 463.0, 463.0, 463.0, 463.0, 463.0, 463.0, 463.0, 461.0, 461.0, 461.0, 461.0, 461.0]	[0.003984313691034913, 0.00927190575748682, 0.02298974385485053, 0.039620860712602735, 0.0565513267647475, 0.07292712642811239, 0.08989957626909018, 0.10629858658649027, 0.12327035400085151, 0.1397048628423363, 0.1567189556080848, 0.17308656312525272, 0.18993476778268814, 0.20628565014339983, 0.22331885737366974, 0.23963901959359646, 0.25670158164575696, 0.2730456371791661, 0.2899211486801505, 0.30636077746748924, 0.3232827102765441, 0.33963905391283333, 0.3565807838458568, 0.3729518048930913, 0.3899467827286571, 0.406322582392022, 0.4232871816493571, 0.43963226140476763, 0.45664021000266075, 0.4727330442983657, 0.4897959476802498, 0.5064055605325848, 0.5233124743681401, 0.5397166046313941, 0.556687006726861, 0.5727412705309689, 0.5899331977125257, 0.6062789598945528, 0.6232138632331043, 0.6393944204319268, 0.6565074995160103, 0.6729689738713205, 0.6898977332748473, 0.7061219809111208, 0.7232347186654806, 0.7397146250586957, 0.7568003975320607, 0.7727092534769326, 0.789811410009861, 0.8064319454133511, 0.8233043849468231, 0.8396941791288555, 0.8566342024132609, 0.8727348875254393, 0.8897069962695241, 0.9063804382458329, 0.923299640417099, 0.9396194613073021, 0.9564632286783308, 0.9730765961576253, 0.9899104649666697, 1.0063364405650645, 1.0232041012495756, 1.0397188235074282, 1.0566131081432104, 1.0729865182656795, 1.0898275549989194, 1.1062849333975464, 1.1233335006982088, 1.1396461536642164, 1.1566244061104953, 1.1727257738821208, 1.1898211038205773, 1.2060569569002837, 1.2232441054657102, 1.2396922677289695, 1.2566008884459734, 1.2729251466225833, 1.2899310472421348, 1.3062624735757709, 1.3233393714763224, 1.3396366646047682, 1.356552111916244, 1.372998908860609, 1.389864862896502, 1.4061235850676894, 1.4232516831252724]
15	inanimate/n41.jpg	animate	inanimate	right	1.784	[0.0, 0.0, 0.0, 0.0, 0.0, 0.0, 0.0, 0.0, 0.0, 1.0, 2.0, 2.0, 2.0, 2.0, 2.0, 2.0, 4.0, 5.0, 6.0, 6.0, 6.0, 6.0, 6.0, 6.0, 6.0, 6.0, 7.0, 9.0, 9.0, 9.0, 14.0, 24.0, 29.0, 33.0, 38.0, 42.0, 58.0, 73.0, 78.0, 83.0, 88.0, 97.0, 110.0, 124.0, 130.0, 134.0, 138.0, 142.0, 143.0, 147.0, 151.0, 160.0, 174.0, 189.0, 226.0, 245.0, 341.0, 433.0, 518.0, 589.0, 635.0, 659.0, 674.0, 678.0, 681.0, 682.0, 689.0, 700.0, 724.0, 737.0, 741.0, 744.0, 744.0, 744.0, 744.0, 744.0, 744.0, 744.0, 744.0, 744.0, 744.0, 745.0, 745.0, 745.0, 745.0, 745.0, 745.0, 745.0, 745.0, 745.0, 745.0, 745.0, 745.0, 745.0, 745.0, 745.0, 745.0, 745.0, 745.0, 745.0, 745.0, 745.0, 745.0, 745.0, 745.0, 745.0, 745.0, 745.0]	[-490.0, -490.0, -490.0, -490.0, -490.0, -490.0, -490.0, -490.0, -490.0, -491.0, -491.0, -491.0, -491.0, -491.0, -491.0, -491.0, -491.0, -491.0, -490.0, -489.0, -485.0, -483.0, -479.0, -474.0, -465.0, -451.0, -431.0, -407.0, -376.0, -341.0, -300.0, -243.0, -205.0, -170.0, -137.0, -108.0, -52.0, -7.0, 12.0, 26.0, 44.0, 68.0, 101.0, 133.0, 147.0, 158.0, 164.0, 169.0, 173.0, 179.0, 186.0, 196.0, 208.0, 222.0, 247.0, 261.0, 304.0, 343.0, 373.0, 398.0, 417.0, 427.0, 435.0, 438.0, 440.0, 440.0, 443.0, 444.0, 444.0, 444.0, 444.0, 444.0, 444.0, 444.0, 444.0, 444.0, 444.0, 444.0, 444.0, 444.0, 444.0, 444.0, 444.0, 444.0, 444.0, 444.0, 444.0, 444.0, 444.0, 444.0, 444.0, 444.0, 444.0, 444.0, 444.0, 444.0, 444.0, 444.0, 444.0, 444.0, 444.0, 444.0, 444.0, 444.0, 444.0, 444.0, 444.0, 444.0]	[0.009975871071219444, 0.015636540250852704, 0.021741283824667335, 0.035015047527849674, 0.05199671350419521, 0.06833701464347541, 0.0852999072521925, 0.10146476281806827, 0.11859013023786247, 0.1349816310685128, 0.15193769708275795, 0.16806500614620745, 0.18502619210630655, 0.20191330881789327, 0.218357716454193, 0.23528442764654756, 0.2516557900235057, 0.2687152798753232, 0.2851214581169188, 0.3019628361798823, 0.31837891321629286, 0.33527626981958747, 0.3515851681586355, 0.3685859488323331, 0.3846968738362193, 0.401857057120651, 0.4183294540271163, 0.43527152528986335, 0.4514831437263638, 0.4685549216810614, 0.4849382305983454, 0.5019229685422033, 0.5180557388812304, 0.5352073889225721, 0.5517965217586607, 0.5686634997837245, 0.5849901472683996, 0.6019253919366747, 0.6183104075025767, 0.6352439455222338, 0.6516467104665935, 0.6685676192864776, 0.6849792588036507, 0.7019093835260719, 0.7182728950865567, 0.7352252064738423, 0.7514948514290154, 0.7685130401514471, 0.7850837409496307, 0.801903615007177, 0.8183125238865614, 0.8352262645494193, 0.8517119735479355, 0.8686649673618376, 0.8849745483603328, 0.9019681611098349, 0.9183565899729729, 0.9352283466141671, 0.951406855834648, 0.9685967350378633, 0.9849493238143623, 1.0018828618340194, 1.0182948429137468, 1.0352229194249958, 1.0514024526346475, 1.068469451740384, 1.0849114700686187, 1.1019385333638638, 1.1182880504056811, 1.1353461749386042, 1.1514922573696822, 1.168360942043364, 1.1848159309010953, 1.2018569889478385, 1.218250879086554, 1.235125366365537, 1.2515957152936608, 1.2685186720918864, 1.284954204922542, 1.301896276185289, 1.318336246535182, 1.3353189365006983, 1.3514882295858115, 1.3684514635242522, 1.3849818871822208, 1.4019929077476263, 1.4183260407298803, 1.4351691254414618, 1.4516896503046155, 1.4685375136323273, 1.484707148047164, 1.501749571179971, 1.5180656376760453, 1.5351080608088523, 1.5516111778561026, 1.568512971745804, 1.5847518967930228, 1.6017717921640724, 1.618331911507994, 1.6352340469602495, 1.6513910519424826, 1.668356675421819, 1.685255397344008, 1.7016540663316846, 1.7185452789999545, 1.7349541878793389, 1.7519887604285032, 1.768322917399928]
16	animate/a26.jpg	inanimate	animate	right	1.136	[0.0, 0.0, 0.0, 0.0, 0.0, 0.0, 0.0, 1.0, 1.0, 1.0, 1.0, 1.0, 1.0, 1.0, -1.0, -1.0, -2.0, -4.0, -6.0, -8.0, -10.0, -13.0, -15.0, -18.0, -20.0, -28.0, -35.0, -39.0, -43.0, -43.0, -42.0, -34.0, -3.0, 17.0, 32.0, 50.0, 69.0, 82.0, 95.0, 110.0, 153.0, 172.0, 245.0, 273.0, 366.0, 432.0, 492.0, 537.0, 579.0, 612.0, 640.0, 662.0, 678.0, 693.0, 709.0, 739.0, 796.0, 833.0, 860.0, 879.0, 885.0, 886.0, 886.0, 886.0, 886.0, 886.0, 886.0, 886.0]	[-490.0, -490.0, -490.0, -490.0, -490.0, -490.0, -490.0, -490.0, -490.0, -490.0, -490.0, -490.0, -490.0, -490.0, -490.0, -489.0, -488.0, -486.0, -483.0, -478.0, -464.0, -449.0, -432.0, -413.0, -389.0, -365.0, -339.0, -312.0, -256.0, -232.0, -112.0, -57.0, 98.0, 156.0, 201.0, 244.0, 285.0, 313.0, 334.0, 351.0, 382.0, 395.0, 431.0, 445.0, 474.0, 494.0, 503.0, 507.0, 514.0, 517.0, 522.0, 524.0, 527.0, 529.0, 529.0, 528.0, 511.0, 500.0, 488.0, 480.0, 477.0, 477.0, 477.0, 477.0, 477.0, 477.0, 477.0, 477.0]	[0.002812653547152877, 0.008551487931981683, 0.020460260566323996, 0.03746684384532273, 0.05355387553572655, 0.07069323747418821, 0.08688232768326998, 0.10390051640570164, 0.12045005452819169, 0.13750203512609005, 0.1538085441570729, 0.1708437993656844, 0.1869741806294769, 0.2040422037243843, 0.22042517131194472, 0.23748534405604005, 0.25379697303287685, 0.27076805755496025, 0.28713122801855206, 0.30410265387035906, 0.32047026162035763, 0.33746250881813467, 0.353854009648785, 0.37101965420879424, 0.3869005208835006, 0.4040665067732334, 0.42055767704732716, 0.43777520419098437, 0.45363490795716643, 0.47085277643054724, 0.48712856555357575, 0.504244034178555, 0.5202986393123865, 0.5375653184019029, 0.5535816941410303, 0.570963402511552, 0.5871241623535752, 0.6043075562920421, 0.6205198571551591, 0.6377797096502036, 0.6539097493514419, 0.6742788057308644, 0.6871255617588758, 0.7069416583981365, 0.720535933971405, 0.7403114119078964, 0.7535920024383813, 0.773505037650466, 0.7868777881376445, 0.8063484553713351, 0.8204980802256614, 0.837941569974646, 0.8537712364923209, 0.8707624597009271, 0.8871717101428658, 0.904188874643296, 0.9203547544311732, 0.9373910336289555, 0.9538238358218223, 0.9706720407120883, 0.9871550188399851, 1.004025410162285, 1.0204906391445547, 1.0374170090071857, 1.0537532141897827, 1.0706505707930773, 1.087126039667055, 1.1040530924219638]
17	inanimate/n44.jpg	animate	inanimate	right	1.186	[0.0, 0.0, 0.0, 0.0, 0.0, 0.0, 1.0, 2.0, 3.0, 3.0, 3.0, 3.0, 3.0, 3.0, 3.0, 3.0, 3.0, 3.0, 3.0, 3.0, 3.0, 3.0, 2.0, -3.0, -14.0, -21.0, -34.0, -43.0, -52.0, -53.0, -53.0, -46.0, -26.0, 22.0, 73.0, 134.0, 181.0, 221.0, 260.0, 294.0, 323.0, 347.0, 358.0, 360.0, 360.0, 360.0, 360.0, 357.0, 357.0, 361.0, 381.0, 419.0, 478.0, 547.0, 604.0, 639.0, 662.0, 677.0, 687.0, 697.0, 701.0, 702.0, 702.0, 704.0, 708.0, 710.0, 711.0, 712.0, 712.0, 712.0, 712.0]	[-490.0, -490.0, -490.0, -490.0, -490.0, -490.0, -490.0, -491.0, -493.0, -493.0, -493.0, -493.0, -493.0, -493.0, -493.0, -490.0, -487.0, -485.0, -482.0, -479.0, -473.0, -464.0, -451.0, -433.0, -394.0, -363.0, -319.0, -274.0, -229.0, -188.0, -147.0, -100.0, -42.0, 58.0, 141.0, 222.0, 269.0, 302.0, 331.0, 354.0, 372.0, 391.0, 403.0, 409.0, 410.0, 411.0, 411.0, 411.0, 411.0, 407.0, 404.0, 398.0, 390.0, 389.0, 389.0, 389.0, 390.0, 394.0, 397.0, 404.0, 407.0, 409.0, 411.0, 415.0, 419.0, 421.0, 422.0, 423.0, 423.0, 423.0, 423.0]	[0.0010353319812566042, 0.006384022533893585, 0.016989585012197495, 0.03391834441572428, 0.05054570664651692, 0.06758471648208797, 0.08380043087527156, 0.10091351019218564, 0.11729886708781123, 0.13432763703167439, 0.15057646064087749, 0.16751511860638857, 0.1839352915994823, 0.20092549081891775, 0.21724394662305713, 0.23429899918846786, 0.250394222792238, 0.2675509927794337, 0.28406878700479865, 0.30078830919228494, 0.3170780928339809, 0.3341266599018127, 0.3504099582787603, 0.36745681893080473, 0.3836728746537119, 0.40088289254345, 0.41702795098535717, 0.4343768914695829, 0.4503799551166594, 0.46747118909843266, 0.4837022633291781, 0.5008586919866502, 0.5170549503527582, 0.5343356241937727, 0.5504018345382065, 0.5674340180121362, 0.5837552042212337, 0.6008450728841126, 0.6171024297364056, 0.6343834449071437, 0.6503609088249505, 0.6675132412929088, 0.6839849555399269, 0.7007614802569151, 0.717130453325808, 0.7342032552696764, 0.7530127603095025, 0.7675252221524715, 0.7867887001484632, 0.8007625383324921, 0.8197778672911227, 0.8343661052640527, 0.8529762716498226, 0.8674429948441684, 0.8864327238406986, 0.900778615148738, 0.9194788937456906, 0.9341176487505436, 0.9530872390605509, 0.9674017278011888, 0.9863460594788194, 1.000787865370512, 1.018172645708546, 1.0345050960313529, 1.0504811946302652, 1.0672447485849261, 1.0866744560189545, 1.1005213183816522, 1.1186996982432902, 1.133719381177798, 1.1517298254184425]
18	inanimate/n68.jpg	animate	inanimate	right	1.011	[0.0, 0.0, 0.0, 0.0, 0.0, 0.0, 0.0, 0.0, 0.0, 3.0, 8.0, 10.0, 11.0, 11.0, 13.0, 13.0, 14.0, 17.0, 17.0, 17.0, 16.0, 11.0, 9.0, 5.0, 1.0, -1.0, -1.0, -1.0, 2.0, 6.0, 16.0, 34.0, 53.0, 102.0, 190.0, 300.0, 405.0, 527.0, 663.0, 702.0, 762.0, 784.0, 797.0, 803.0, 807.0, 807.0, 808.0, 809.0, 812.0, 816.0, 820.0, 821.0, 824.0, 825.0, 825.0, 825.0, 825.0, 825.0, 825.0, 825.0, 825.0]	[-490.0, -490.0, -490.0, -491.0, -492.0, -492.0, -492.0, -492.0, -492.0, -492.0, -492.0, -492.0, -490.0, -488.0, -485.0, -482.0, -475.0, -466.0, -456.0, -441.0, -421.0, -400.0, -378.0, -348.0, -311.0, -269.0, -225.0, -201.0, -174.0, -142.0, -101.0, -59.0, -20.0, 46.0, 132.0, 198.0, 247.0, 286.0, 324.0, 331.0, 342.0, 347.0, 350.0, 352.0, 354.0, 354.0, 355.0, 355.0, 357.0, 360.0, 365.0, 369.0, 377.0, 386.0, 394.0, 405.0, 413.0, 415.0, 415.0, 415.0, 415.0]	[0.006305857095867395, 0.016580326482653618, 0.025561825837939978, 0.04516595439054072, 0.05920020863413811, 0.07844320684671402, 0.09267645818181336, 0.11102721141651273, 0.12591855321079493, 0.14485127944499254, 0.15926987468264997, 0.1773820361122489, 0.1924191270954907, 0.21147575741633773, 0.22581755253486335, 0.24287397065199912, 0.2593091621529311, 0.27549586328677833, 0.29240687331184745, 0.3088290940504521, 0.32581383222714067, 0.3423739515710622, 0.3591009830124676, 0.37572800391353667, 0.3922550140414387, 0.4105784606654197, 0.4256933757569641, 0.4428313721437007, 0.45905732666142285, 0.4764380110427737, 0.4924328827764839, 0.5097596365958452, 0.5255097725894302, 0.5436209100298584, 0.5590822780504823, 0.5760427813511342, 0.592376938322559, 0.6093169616069645, 0.6256613587029278, 0.6426553125493228, 0.6589549949858338, 0.6759154982864857, 0.6922766205389053, 0.7092971983365715, 0.7257719847839326, 0.7426109733060002, 0.7589420583099127, 0.7759097297675908, 0.7923275132197887, 0.8092204325366765, 0.8257901093456894, 0.8426475301384926, 0.8590680444613099, 0.875948334345594, 0.8925067472737283, 0.9091747282072902, 0.9254488104488701, 0.9425588175654411, 0.9590062971692532, 0.9759043366648257, 0.992305736290291]
19	animate/a39.jpg	inanimate	animate	right	1.245	[0.0, 0.0, 0.0, 0.0, 0.0, 0.0, 0.0, 1.0, 4.0, 4.0, 5.0, 5.0, 6.0, 7.0, 7.0, 7.0, 8.0, 8.0, 8.0, 8.0, 11.0, 14.0, 23.0, 34.0, 44.0, 55.0, 64.0, 72.0, 79.0, 90.0, 102.0, 143.0, 178.0, 215.0, 245.0, 271.0, 300.0, 324.0, 341.0, 353.0, 357.0, 357.0, 357.0, 357.0, 357.0, 357.0, 357.0, 357.0, 359.0, 385.0, 428.0, 480.0, 590.0, 653.0, 698.0, 717.0, 726.0, 726.0, 726.0, 726.0, 726.0, 726.0, 730.0, 731.0, 736.0, 740.0, 754.0, 761.0, 766.0, 771.0, 772.0, 773.0, 774.0, 774.0, 774.0]	[-490.0, -490.0, -490.0, -490.0, -490.0, -490.0, -490.0, -498.0, -501.0, -501.0, -502.0, -502.0, -502.0, -501.0, -494.0, -492.0, -491.0, -491.0, -490.0, -488.0, -485.0, -481.0, -468.0, -453.0, -437.0, -421.0, -405.0, -391.0, -370.0, -342.0, -296.0, -176.0, -100.0, -38.0, 17.0, 60.0, 111.0, 151.0, 178.0, 196.0, 201.0, 201.0, 201.0, 201.0, 201.0, 201.0, 201.0, 201.0, 203.0, 213.0, 231.0, 253.0, 295.0, 314.0, 332.0, 340.0, 344.0, 344.0, 344.0, 344.0, 344.0, 345.0, 351.0, 352.0, 358.0, 361.0, 375.0, 383.0, 393.0, 408.0, 414.0, 418.0, 419.0, 419.0, 419.0]	[0.012784565100446343, 0.01776666403748095, 0.023983023362234235, 0.04075681744143367, 0.05778080876916647, 0.07414534455165267, 0.09107137308456004, 0.10734716220758855, 0.12447764934040606, 0.14085071836598217, 0.15774363768287003, 0.17411192785948515, 0.19102259655483067, 0.20751718012616038, 0.22439712891355157, 0.2409132164902985, 0.2577388931531459, 0.27422938076779246, 0.29104140400886536, 0.307573534315452, 0.3244579203892499, 0.34083576779812574, 0.35765188722871244, 0.3739167535677552, 0.39102539559826255, 0.4072533978614956, 0.4243982210755348, 0.44059550343081355, 0.4577201879583299, 0.47393317171372473, 0.49118961091153324, 0.5072650373913348, 0.5243927938863635, 0.5407860015984625, 0.5577072515152395, 0.5739519791677594, 0.5912422104738653, 0.6072780422400683, 0.6244501720648259, 0.6406757850199938, 0.6577581444289535, 0.6739830747246742, 0.6909667886793613, 0.707293436396867, 0.7244170969352126, 0.7407345285173506, 0.7578052824828774, 0.7742172633297741, 0.7909972013439983, 0.8074429742991924, 0.824319168459624, 0.8407256880309433, 0.8578230659477413, 0.8742019375786185, 0.8909842649009079, 0.907601387007162, 0.9243099864106625, 0.9407441541552544, 0.957812859909609, 0.9741302917245775, 0.9912167468573898, 1.0098955214489251, 1.0243035352323204, 1.0435352695640177, 1.057797875488177, 1.075376191874966, 1.0911283758468926, 1.1081987882498652, 1.1245073452591896, 1.1410043181385845, 1.1577374937478453, 1.1740078213624656, 1.1908106287010014, 1.2077257346827537, 1.2241902810055763]
20	inanimate/n40.jpg	inanimate	animate	left	1.261	[0.0, 0.0, 0.0, 0.0, 0.0, 0.0, 0.0, 0.0, 0.0, 0.0, 0.0, -1.0, -14.0, -18.0, -18.0, -19.0, -19.0, -19.0, -20.0, -12.0, -1.0, 43.0, 65.0, 82.0, 98.0, 136.0, 185.0, 232.0, 272.0, 307.0, 338.0, 372.0, 401.0, 439.0, 459.0, 532.0, 587.0, 638.0, 679.0, 696.0, 708.0, 713.0, 713.0, 713.0, 713.0, 713.0, 713.0, 713.0, 713.0, 713.0, 695.0, 633.0, 516.0, 349.0, 131.0, -82.0, -271.0, -421.0, -529.0, -598.0, -657.0, -681.0, -695.0, -701.0, -703.0, -703.0, -703.0, -703.0, -703.0, -704.0, -716.0, -732.0, -740.0, -740.0, -740.0, -740.0]	[-490.0, -490.0, -490.0, -490.0, -490.0, -490.0, -490.0, -490.0, -490.0, -490.0, -490.0, -489.0, -485.0, -483.0, -483.0, -482.0, -482.0, -482.0, -481.0, -469.0, -461.0, -434.0, -414.0, -395.0, -374.0, -310.0, -219.0, -129.0, -45.0, 31.0, 91.0, 143.0, 184.0, 227.0, 240.0, 287.0, 329.0, 373.0, 409.0, 422.0, 434.0, 439.0, 439.0, 439.0, 439.0, 439.0, 439.0, 439.0, 439.0, 439.0, 436.0, 427.0, 423.0, 423.0, 423.0, 423.0, 423.0, 428.0, 442.0, 449.0, 449.0, 446.0, 438.0, 437.0, 436.0, 436.0, 436.0, 436.0, 436.0, 436.0, 434.0, 433.0, 433.0, 433.0, 433.0, 433.0]	[0.016334771178662777, 0.021609051153063774, 0.03088239044882357, 0.047910136403515935, 0.06415486405603588, 0.08103788457810879, 0.09737920970655978, 0.1146298460662365, 0.13072097394615412, 0.1479173384141177, 0.1640695647802204, 0.18119868682697415, 0.1974041610956192, 0.21455956576392055, 0.2307544588111341, 0.24797027930617332, 0.26407130574807525, 0.28125026216730475, 0.2974441312253475, 0.31443535443395376, 0.33095963415689766, 0.3491670275107026, 0.36417954228818417, 0.3812403976917267, 0.39751652791164815, 0.41456407122313976, 0.43365790671668947, 0.4479037874843925, 0.466880887048319, 0.4811475891619921, 0.5001833981368691, 0.5144866227637976, 0.533648383570835, 0.5478939230088145, 0.5653251246549189, 0.5811257779132575, 0.5978292573709041, 0.6145009929314256, 0.6310979763511568, 0.6477724425494671, 0.6644585139583796, 0.680972553556785, 0.6973807797767222, 0.714212600607425, 0.7335074814036489, 0.7475721139926463, 0.7653709317091852, 0.7809551795944571, 0.7978354697115719, 0.8143078666180372, 0.8312915805727243, 0.8474980788305402, 0.8645490354392678, 0.880997197702527, 0.897810586495325, 0.9144741299096495, 0.9311789746861905, 0.9476069982629269, 0.9645576030015945, 0.9808497759513557, 0.99773382069543, 1.0142888200934976, 1.0313070088159293, 1.047691341722384, 1.0643463518936187, 1.0809682526160032, 1.0979103241115808, 1.1143246942665428, 1.13115788041614, 1.1477135624736547, 1.164531729882583, 1.1807767988648266, 1.197878614300862, 1.2140267447102815, 1.2312340317294002, 1.2476927754469216]
21	inanimate/n36.jpg	inanimate	animate	left	1.251	[0.0, 0.0, 0.0, 0.0, 0.0, 0.0, 0.0, 0.0, 0.0, 0.0, 0.0, 0.0, 0.0, 0.0, 0.0, 0.0, 0.0, 0.0, 0.0, 0.0, 0.0, 0.0, 0.0, 0.0, 0.0, 0.0, 0.0, 0.0, 0.0, 0.0, 0.0, 0.0, 0.0, 0.0, 0.0, 0.0, 0.0, 0.0, 0.0, 0.0, 0.0, 0.0, 0.0, 0.0, 0.0, 0.0, 0.0, 0.0, 0.0, 6.0, 8.0, 6.0, -22.0, -127.0, -224.0, -316.0, -405.0, -482.0, -538.0, -571.0, -595.0, -613.0, -628.0, -642.0, -655.0, -674.0, -686.0, -696.0, -703.0, -710.0, -712.0, -712.0, -712.0, -712.0, -712.0]	[-490.0, -490.0, -490.0, -490.0, -490.0, -490.0, -490.0, -490.0, -490.0, -490.0, -490.0, -490.0, -490.0, -490.0, -490.0, -490.0, -490.0, -490.0, -490.0, -490.0, -490.0, -490.0, -490.0, -490.0, -490.0, -490.0, -490.0, -490.0, -490.0, -490.0, -490.0, -490.0, -490.0, -490.0, -490.0, -490.0, -490.0, -490.0, -490.0, -490.0, -490.0, -490.0, -490.0, -490.0, -490.0, -490.0, -490.0, -490.0, -489.0, -465.0, -436.0, -407.0, -342.0, -205.0, -116.0, -33.0, 77.0, 173.0, 243.0, 291.0, 331.0, 361.0, 382.0, 401.0, 414.0, 426.0, 434.0, 442.0, 448.0, 458.0, 462.0, 462.0, 462.0, 462.0, 462.0]	[0.011476917890831828, 0.016018355498090386, 0.02091239020228386, 0.03816302679479122, 0.05454838369041681, 0.07155291899107397, 0.08801200403831899, 0.10499162203632295, 0.12134421081282198, 0.13826307165436447, 0.15623119031079113, 0.17158811050467193, 0.19035290088504553, 0.20484897890128195, 0.22241944447159767, 0.23826686036773026, 0.2548075239174068, 0.27150246989913285, 0.2880673680920154, 0.3048810982145369, 0.3212169618345797, 0.3379238545894623, 0.354885381879285, 0.3713533414993435, 0.3906147717498243, 0.40470875916071236, 0.42192901694215834, 0.43808772880584, 0.4549533415120095, 0.47132060769945383, 0.48827155376784503, 0.5047149371821433, 0.521663835272193, 0.5378853522706777, 0.5549414288252592, 0.5714104124344885, 0.5882907025516033, 0.6046965394634753, 0.6215327973477542, 0.637998026330024, 0.6549459004309028, 0.6713404732290655, 0.6882914192974567, 0.7046504935715348, 0.7216219194233418, 0.7377594686113298, 0.7549032678361982, 0.7714039953425527, 0.7882644881028682, 0.8044641597662121, 0.8216181991156191, 0.8380752359516919, 0.854892720701173, 0.8713620456401259, 0.888238922227174, 0.9044222098309547, 0.921797432936728, 0.9377830887679011, 0.9548122000414878, 0.9713508156128228, 0.988123927032575, 1.0049004517495632, 1.0216274831909686, 1.0379097575787455, 1.0548665062524378, 1.0714235538616776, 1.0881471717730165, 1.1044332007877529, 1.1215875814668834, 1.1377817918546498, 1.154874732485041, 1.1711116093210876, 1.1882871526759118, 1.2044151443988085, 1.221618335461244]
22	inanimate/n19.jpg	inanimate	animate	left	1.918	[0.0, 0.0, 0.0, 0.0, 0.0, 0.0, 0.0, 0.0, 2.0, 2.0, 2.0, 2.0, 2.0, 2.0, 2.0, 2.0, 2.0, 2.0, 2.0, 2.0, 2.0, 2.0, 2.0, 2.0, 2.0, 2.0, 2.0, 2.0, 2.0, 2.0, 2.0, 2.0, 2.0, 2.0, 2.0, 2.0, 2.0, 2.0, 2.0, 2.0, 2.0, 2.0, 2.0, 2.0, 2.0, 2.0, 2.0, 2.0, 2.0, 2.0, 2.0, 2.0, 2.0, 2.0, 2.0, 2.0, 2.0, 3.0, -32.0, -92.0, -167.0, -258.0, -351.0, -438.0, -533.0, -626.0, -721.0, -797.0, -864.0, -908.0, -936.0, -960.0, -960.0, -960.0, -960.0, -960.0, -960.0, -960.0, -960.0, -960.0, -960.0, -960.0, -960.0, -955.0, -922.0, -876.0, -838.0, -813.0, -805.0, -805.0, -804.0, -804.0, -804.0, -804.0, -804.0, -804.0, -804.0, -804.0, -804.0, -804.0, -804.0, -804.0, -804.0, -804.0, -804.0, -804.0, -804.0, -804.0, -804.0, -804.0, -804.0, -804.0, -804.0, -804.0, -804.0]	[-490.0, -490.0, -490.0, -490.0, -490.0, -490.0, -490.0, -492.0, -493.0, -493.0, -493.0, -493.0, -493.0, -493.0, -493.0, -493.0, -493.0, -493.0, -493.0, -493.0, -493.0, -493.0, -493.0, -493.0, -493.0, -493.0, -493.0, -493.0, -493.0, -493.0, -493.0, -493.0, -493.0, -493.0, -493.0, -493.0, -493.0, -493.0, -493.0, -493.0, -493.0, -493.0, -493.0, -493.0, -493.0, -493.0, -493.0, -493.0, -493.0, -493.0, -493.0, -493.0, -493.0, -493.0, -493.0, -493.0, -493.0, -493.0, -466.0, -422.0, -362.0, -283.0, -215.0, -153.0, -84.0, -20.0, 49.0, 131.0, 216.0, 265.0, 304.0, 349.0, 363.0, 369.0, 375.0, 383.0, 388.0, 392.0, 397.0, 401.0, 405.0, 406.0, 407.0, 407.0, 407.0, 407.0, 407.0, 411.0, 415.0, 415.0, 416.0, 416.0, 417.0, 417.0, 417.0, 417.0, 417.0, 417.0, 417.0, 417.0, 417.0, 417.0, 417.0, 417.0, 417.0, 417.0, 417.0, 417.0, 417.0, 417.0, 417.0, 417.0, 417.0, 417.0, 417.0]	[0.001498520839959383, 0.007639445597305894, 0.01825183490291238, 0.03473993297666311, 0.051712383050471544, 0.06799977738410234, 0.08503230195492506, 0.10149821359664202, 0.11842014617286623, 0.13480447907932103, 0.15172709454782307, 0.1681578487623483, 0.18508660816587508, 0.2014207651372999, 0.21845260704867542, 0.23484581452794373, 0.25177969387732446, 0.267979365773499, 0.2850951754953712, 0.3016566603910178, 0.31842977181077003, 0.33489909674972296, 0.3517333068884909, 0.3679940770380199, 0.38510783901438117, 0.40131399617530406, 0.41843151254579425, 0.43458851776085794, 0.4517705461475998, 0.4679299406707287, 0.4850617931224406, 0.5012447396293283, 0.518571152118966, 0.5345868451986462, 0.5518231457099319, 0.5679658148437738, 0.5851164406631142, 0.6012918776832521, 0.6184674208052456, 0.6346230607014149, 0.6517760758288205, 0.6679323981516063, 0.6851226186845452, 0.7012980557046831, 0.7185712202917784, 0.7346193401608616, 0.7517392460722476, 0.7682362189516425, 0.7850103543605655, 0.8013779618777335, 0.8184763637837023, 0.8348507981281728, 0.8517942347098142, 0.8708826089277864, 0.8851499937009066, 0.9042311999946833, 0.9183453260920942, 0.936614841921255, 0.9516669516451657, 0.9688363508321345, 0.9850223693065345, 1.0019019765313715, 1.0184917920269072, 1.035600092727691, 1.0517373003531247, 1.0685424969997257, 1.0850251340307295, 1.1014091256074607, 1.1180972449947149, 1.134921897901222, 1.1516496120020747, 1.1681919822003692, 1.1848807842470706, 1.2014955170452595, 1.2181334604974836, 1.2345819640904665, 1.2514772727154195, 1.2682029388379306, 1.2851306742522866, 1.301525929942727, 1.3180880972649902, 1.3346038435120136, 1.351291621569544, 1.3678831439465284, 1.384716329863295, 1.4014983160886914, 1.4182325154542923, 1.4349424801766872, 1.4515555063262582, 1.4681139192543924, 1.4847395746037364, 1.5017526433803141, 1.5181154722813517, 1.535022045020014, 1.5513449378777295, 1.5684911264106631, 1.5847242488525808, 1.6017509708181024, 1.6183322530705482, 1.6351060471497476, 1.651423137402162, 1.6682805579621345, 1.6846645497716963, 1.7017725089099258, 1.7179865166544914, 1.735039179911837, 1.7513071182183921, 1.768374458886683, 1.7845860770903528, 1.801779369590804, 1.8179305722005665, 1.8351119179278612, 1.85125049110502, 1.868489863583818, 1.8846089807339013]
23	inanimate/n67.jpg	animate	inanimate	left	1.112	[0.0, 0.0, 0.0, 0.0, 0.0, 0.0, 0.0, -1.0, -1.0, -1.0, -1.0, -1.0, -1.0, -1.0, -1.0, -1.0, -1.0, -1.0, -6.0, -15.0, -21.0, -24.0, -29.0, -32.0, -35.0, -37.0, -39.0, -42.0, -42.0, -42.0, -42.0, -42.0, -42.0, -42.0, -42.0, -40.0, -37.0, -14.0, 16.0, 33.0, 34.0, 16.0, -36.0, -137.0, -254.0, -442.0, -502.0, -616.0, -703.0, -780.0, -800.0, -808.0, -809.0, -809.0, -809.0, -809.0, -811.0, -815.0, -815.0, -815.0, -815.0, -813.0, -811.0, -808.0, -808.0, -807.0, -807.0]	[-490.0, -490.0, -490.0, -490.0, -490.0, -490.0, -490.0, -490.0, -490.0, -490.0, -490.0, -490.0, -490.0, -490.0, -490.0, -490.0, -490.0, -490.0, -489.0, -480.0, -466.0, -457.0, -444.0, -424.0, -407.0, -386.0, -368.0, -351.0, -335.0, -313.0, -285.0, -255.0, -216.0, -178.0, -140.0, -81.0, -57.0, 29.0, 117.0, 174.0, 195.0, 212.0, 228.0, 249.0, 267.0, 294.0, 298.0, 314.0, 326.0, 342.0, 348.0, 352.0, 356.0, 363.0, 374.0, 383.0, 395.0, 406.0, 411.0, 417.0, 420.0, 436.0, 446.0, 455.0, 457.0, 458.0, 458.0]	[0.012573962565511465, 0.018278322415426373, 0.023362479638308287, 0.04039466311223805, 0.05672779609449208, 0.07377124321646988, 0.08995828568004072, 0.10714953020215034, 0.12329254066571593, 0.14044521446339786, 0.15665444359183311, 0.1738972293678671, 0.18999962112866342, 0.20718984166160226, 0.22338063875213265, 0.24049678980372846, 0.25673503219150007, 0.27386210625991225, 0.29000067920424044, 0.30717144371010363, 0.3233523422386497, 0.34051866945810616, 0.356678405078128, 0.3737587162759155, 0.3901259826961905, 0.40717045380733907, 0.42368210409767926, 0.440468868939206, 0.4570982789155096, 0.4738307718653232, 0.4902123741339892, 0.507084472104907, 0.5234957702923566, 0.5403787910472602, 0.5567603933159262, 0.5738331952597946, 0.5903247068636119, 0.6070776795968413, 0.6263288697227836, 0.6405286705121398, 0.6595303460489959, 0.6737618907354772, 0.6925379452295601, 0.7071214043535292, 0.7261930531822145, 0.7403716912958771, 0.7575649837963283, 0.7738407729193568, 0.7908463322091848, 0.8071429424453527, 0.8241829765029252, 0.8405652614310384, 0.8567215837538242, 0.8734735324978828, 0.8902230919338763, 0.9068071048241109, 0.9264344440307468, 0.9402144050691277, 0.9594993870705366, 0.9733052894007415, 0.9929114659316838, 1.0069385522510856, 1.0248721963725984, 1.0403960284311324, 1.057388616958633, 1.073622422059998, 1.0903955334797502]
24	animate/a72.jpg	animate	inanimate	left	1.306	[0.0, 0.0, 0.0, 0.0, 0.0, 0.0, 0.0, 0.0, 0.0, 0.0, 0.0, 3.0, 5.0, 8.0, 10.0, 11.0, 12.0, 12.0, 12.0, 12.0, 12.0, 12.0, 13.0, 14.0, 14.0, 14.0, 16.0, 17.0, 17.0, 18.0, 19.0, 19.0, 19.0, 20.0, 21.0, 23.0, 28.0, 37.0, 65.0, 84.0, 107.0, 137.0, 174.0, 218.0, 267.0, 326.0, 396.0, 486.0, 592.0, 672.0, 726.0, 732.0, 734.0, 734.0, 734.0, 725.0, 681.0, 589.0, 456.0, 289.0, 87.0, -186.0, -329.0, -437.0, -516.0, -565.0, -601.0, -625.0, -645.0, -664.0, -685.0, -707.0, -730.0, -749.0, -763.0, -763.0, -763.0, -763.0, -763.0]	[-490.0, -490.0, -490.0, -490.0, -490.0, -490.0, -490.0, -490.0, -491.0, -493.0, -494.0, -495.0, -495.0, -495.0, -495.0, -493.0, -490.0, -488.0, -485.0, -483.0, -482.0, -479.0, -477.0, -473.0, -471.0, -467.0, -458.0, -451.0, -444.0, -440.0, -435.0, -431.0, -426.0, -419.0, -409.0, -398.0, -384.0, -361.0, -296.0, -240.0, -187.0, -134.0, -82.0, -23.0, 33.0, 96.0, 154.0, 216.0, 293.0, 341.0, 369.0, 373.0, 376.0, 378.0, 381.0, 385.0, 386.0, 386.0, 386.0, 386.0, 386.0, 386.0, 386.0, 386.0, 386.0, 386.0, 386.0, 386.0, 388.0, 391.0, 397.0, 403.0, 408.0, 412.0, 415.0, 415.0, 415.0, 415.0, 415.0]	[0.0076155527494847775, 0.013402515091001987, 0.01837061927653849, 0.03017528518103063, 0.0469214313197881, 0.06354435603134334, 0.07999832089990377, 0.09709023754112422, 0.11357355699874461, 0.13050846033729613, 0.14684056933037937, 0.16389084327965975, 0.18032364547252655, 0.1971209915354848, 0.21350395935587585, 0.23046446265652776, 0.24678803817369044, 0.2639379813335836, 0.2799075946677476, 0.2971636925358325, 0.313287929398939, 0.3304730299860239, 0.3468396137468517, 0.36371717299334705, 0.3803124497644603, 0.3971087718382478, 0.41335657169111073, 0.43050173623487353, 0.4466785385739058, 0.46390528162010014, 0.4800254227593541, 0.49714498734101653, 0.5132760510314256, 0.5304737810511142, 0.546631810022518, 0.5637964305933565, 0.579975622240454, 0.5971351228654385, 0.6132754026912153, 0.6304174950346351, 0.6466506174765527, 0.6639674727339298, 0.6799391338136047, 0.6970945382490754, 0.7133583805989474, 0.7304363024886698, 0.7466431423090398, 0.7637797736097127, 0.7799883198458701, 0.7983479478862137, 0.8136110012419522, 0.8304810514673591, 0.8489495646208525, 0.8639709542039782, 0.8825824859086424, 0.8970085906330496, 0.9159498503431678, 0.9303930215537548, 0.9474736740812659, 0.9638030524365604, 0.9814745527692139, 0.9971509606111795, 1.0147190371062607, 1.0304630289319903, 1.0472320443950593, 1.063843705225736, 1.0802710461430252, 1.0969345895573497, 1.1133520319126546, 1.1303688550833613, 1.1468299881089479, 1.1636211902368814, 1.1802516242023557, 1.196806623833254, 1.2135200018528849, 1.2302678546402603, 1.2465999636333436, 1.2635143869556487, 1.2805708048399538]
25	animate/a71.jpg	animate	inanimate	left	1.196	[0.0, 0.0, 0.0, 0.0, 0.0, 0.0, 0.0, -1.0, -1.0, -1.0, -1.0, -1.0, -1.0, 1.0, 1.0, 1.0, 1.0, 1.0, 1.0, 1.0, 1.0, 1.0, 1.0, 2.0, 2.0, 2.0, 2.0, 3.0, 3.0, 3.0, 3.0, 3.0, 3.0, 3.0, 4.0, 4.0, 4.0, 4.0, 4.0, 4.0, 5.0, 5.0, 7.0, 8.0, 8.0, -8.0, -38.0, -103.0, -199.0, -313.0, -443.0, -566.0, -676.0, -746.0, -770.0, -780.0, -783.0, -783.0, -785.0, -787.0, -790.0, -792.0, -795.0, -802.0, -807.0, -808.0, -808.0, -808.0, -808.0, -808.0, -808.0, -808.0]	[-490.0, -490.0, -490.0, -490.0, -490.0, -490.0, -490.0, -490.0, -490.0, -490.0, -490.0, -491.0, -491.0, -491.0, -491.0, -491.0, -491.0, -491.0, -491.0, -491.0, -491.0, -491.0, -491.0, -490.0, -490.0, -490.0, -489.0, -489.0, -489.0, -489.0, -488.0, -488.0, -488.0, -488.0, -487.0, -487.0, -487.0, -487.0, -487.0, -487.0, -487.0, -487.0, -480.0, -474.0, -468.0, -432.0, -399.0, -353.0, -304.0, -243.0, -150.0, -53.0, 35.0, 96.0, 134.0, 174.0, 226.0, 239.0, 276.0, 295.0, 313.0, 329.0, 346.0, 365.0, 383.0, 402.0, 407.0, 412.0, 414.0, 414.0, 414.0, 414.0]	[0.006651968928053975, 0.013071080204099417, 0.028422539122402668, 0.04521817830391228, 0.06298422790132463, 0.0786012439057231, 0.0975401143077761, 0.11192321102134883, 0.12858641310594976, 0.1452581484336406, 0.16171450284309685, 0.17828554497100413, 0.19475657655857503, 0.2116737305186689, 0.22837209003046155, 0.24497794825583696, 0.2615879022050649, 0.2785862935706973, 0.2950245572719723, 0.3116031086537987, 0.32886364380829036, 0.3447305157314986, 0.36251090141013265, 0.37803541612811387, 0.3952345112338662, 0.4114109722431749, 0.4285312194842845, 0.4449705071747303, 0.4644817931111902, 0.47807606868445873, 0.4952045080717653, 0.5119434860534966, 0.5285261336248368, 0.5448381039313972, 0.5619047619402409, 0.5782720281276852, 0.5977242635563016, 0.6114205978810787, 0.6285572291817516, 0.6451446553692222, 0.664733765181154, 0.6781365529168397, 0.6952038935851306, 0.7113066266756505, 0.7286207512952387, 0.744626545580104, 0.7619335020426661, 0.7779403205495328, 0.7951581890229136, 0.8112697969190776, 0.828534769359976, 0.8452815981581807, 0.8619584536645561, 0.8781332080252469, 0.8952834925148636, 0.911372572183609, 0.9286334486678243, 0.9453123521525413, 0.9646133771166205, 0.9781387033872306, 0.9952504173852503, 1.0144452874083072, 1.0284727150574327, 1.0477338037453592, 1.0618414445780218, 1.0794269288890064, 1.0952272408176214, 1.1115252163726836, 1.1282901358790696, 1.1475440566428006, 1.1617322519887239, 1.1802881464827806]
26	animate/a42.jpg	inanimate	animate	right	1.449	[0.0, 0.0, 0.0, 0.0, 0.0, 0.0, 0.0, 0.0, 0.0, 0.0, 0.0, 0.0, 0.0, 0.0, 0.0, 0.0, 0.0, 0.0, 0.0, 0.0, 1.0, 1.0, 1.0, 1.0, 2.0, 2.0, 3.0, 3.0, 3.0, 3.0, 3.0, 3.0, 4.0, 4.0, 4.0, 4.0, 4.0, 4.0, 4.0, 4.0, 4.0, 4.0, 4.0, 4.0, 4.0, 4.0, 4.0, 4.0, 4.0, 4.0, 4.0, 4.0, 5.0, 5.0, 6.0, 8.0, 12.0, 12.0, 18.0, 29.0, 46.0, 87.0, 161.0, 241.0, 310.0, 373.0, 425.0, 478.0, 548.0, 591.0, 631.0, 665.0, 694.0, 712.0, 724.0, 730.0, 733.0, 734.0, 734.0, 734.0, 734.0, 734.0, 734.0, 734.0, 734.0, 734.0, 734.0]	[-490.0, -490.0, -490.0, -490.0, -490.0, -490.0, -490.0, -490.0, -490.0, -490.0, -490.0, -490.0, -490.0, -490.0, -490.0, -490.0, -490.0, -490.0, -490.0, -490.0, -490.0, -490.0, -490.0, -490.0, -490.0, -489.0, -489.0, -489.0, -489.0, -489.0, -489.0, -489.0, -488.0, -488.0, -488.0, -488.0, -488.0, -488.0, -488.0, -488.0, -488.0, -487.0, -487.0, -487.0, -487.0, -487.0, -487.0, -487.0, -487.0, -487.0, -487.0, -487.0, -487.0, -487.0, -487.0, -487.0, -483.0, -483.0, -479.0, -464.0, -441.0, -390.0, -316.0, -254.0, -185.0, -110.0, -41.0, 30.0, 136.0, 199.0, 253.0, 303.0, 342.0, 371.0, 394.0, 406.0, 413.0, 414.0, 414.0, 414.0, 414.0, 414.0, 414.0, 414.0, 414.0, 414.0, 414.0]	[0.01434616418555379, 0.019578801468014717, 0.024973571998998523, 0.044480762211605906, 0.05853652022778988, 0.07774163037538528, 0.09188238042406738, 0.11105267470702529, 0.12526647001504898, 0.14414526568725705, 0.15863554109819233, 0.17586945206858218, 0.19198788655921817, 0.21090730093419552, 0.22519209352321923, 0.24429651047103107, 0.25848538847640157, 0.2764634059276432, 0.2919271634891629, 0.3083510911092162, 0.32494943984784186, 0.3422389882616699, 0.35838404670357704, 0.37555208057165146, 0.3915012136567384, 0.411421075463295, 0.42502593249082565, 0.44187106541357934, 0.45831137686036527, 0.47795100416988134, 0.49166577053256333, 0.5114030190743506, 0.5250744360964745, 0.5443461062386632, 0.5583728509955108, 0.5758815354201943, 0.5917084713000804, 0.608564185211435, 0.6250116648152471, 0.64202712289989, 0.6583636691793799, 0.675210508517921, 0.6916463826783001, 0.7085427155252546, 0.7250246696639806, 0.741979711689055, 0.7581565140280873, 0.775237507885322, 0.7916873767971992, 0.8086274003144354, 0.8250598611775786, 0.8418626685161144, 0.8583459879737347, 0.8753443793393672, 0.8916628349106759, 0.908547903643921, 0.9250653565395623, 0.9419360891915858, 0.9583361234981567, 0.9753502162639052, 0.9914584106300026, 1.0085807058494538, 1.0250275027938187, 1.0418545447755605, 1.0583170431200415, 1.0753301116637886, 1.0917475540190935, 1.108494041254744, 1.1248268329072744, 1.141906803008169, 1.1581600639037788, 1.1753598416689783, 1.1914185429923236, 1.2085288914386183, 1.2248029736801982, 1.241937898332253, 1.2580901246983558, 1.275302531896159, 1.291464315727353, 1.3086552189197391, 1.3247968638315797, 1.3419874256942421, 1.358131118817255, 1.375367077998817, 1.391457864549011, 1.40859893290326, 1.4249692712910473]
27	inanimate/n76.jpg	inanimate	animate	left	1.277	[0.0, 0.0, 0.0, 0.0, 0.0, 0.0, 0.0, 0.0, 0.0, 0.0, 0.0, 0.0, 0.0, 0.0, 0.0, 0.0, 0.0, 0.0, 0.0, 0.0, 0.0, 0.0, 0.0, 0.0, 0.0, 0.0, 0.0, 0.0, 0.0, 0.0, 0.0, 0.0, 0.0, 0.0, 0.0, 0.0, 0.0, 0.0, 0.0, 0.0, 0.0, 0.0, 0.0, -2.0, -5.0, -27.0, -50.0, -85.0, -121.0, -149.0, -196.0, -270.0, -367.0, -460.0, -563.0, -670.0, -764.0, -860.0, -887.0, -897.0, -903.0, -907.0, -911.0, -915.0, -917.0, -921.0, -922.0, -925.0, -929.0, -932.0, -933.0, -933.0, -933.0, -933.0, -932.0, -932.0, -932.0]	[-490.0, -490.0, -490.0, -490.0, -490.0, -490.0, -490.0, -490.0, -490.0, -490.0, -490.0, -490.0, -490.0, -490.0, -490.0, -490.0, -490.0, -490.0, -490.0, -490.0, -490.0, -490.0, -490.0, -490.0, -490.0, -490.0, -490.0, -490.0, -490.0, -490.0, -490.0, -489.0, -487.0, -481.0, -481.0, -481.0, -481.0, -481.0, -481.0, -481.0, -481.0, -481.0, -481.0, -469.0, -461.0, -434.0, -417.0, -394.0, -368.0, -342.0, -308.0, -257.0, -190.0, -139.0, -42.0, 65.0, 151.0, 232.0, 266.0, 288.0, 306.0, 320.0, 333.0, 345.0, 354.0, 363.0, 371.0, 377.0, 386.0, 393.0, 395.0, 395.0, 396.0, 396.0, 399.0, 399.0, 399.0]	[0.007958455476909876, 0.01361229782924056, 0.01840802887454629, 0.03113053971901536, 0.04786337376572192, 0.06437809602357447, 0.08126077521592379, 0.09804276144132018, 0.11425199033692479, 0.13143982156179845, 0.14761286927387118, 0.1647416497580707, 0.18090411624871194, 0.19810969685204327, 0.21427933126688004, 0.23144361027516425, 0.2475797941442579, 0.2647601158823818, 0.28092940896749496, 0.2981257736682892, 0.31429677340202034, 0.3314439859241247, 0.3477064629551023, 0.3647273820824921, 0.3812223069835454, 0.3981200051493943, 0.414462695363909, 0.43140442529693246, 0.4479358729440719, 0.4646495922934264, 0.4837482066359371, 0.4980190044734627, 0.5142541748937219, 0.5310576648917049, 0.548364621354267, 0.5645912585314363, 0.5850524746347219, 0.5978589535225183, 0.615233835298568, 0.6312024244107306, 0.648029807722196, 0.6645284872502089, 0.6841182799544185, 0.69784533418715, 0.7171129083726555, 0.7311519412323833, 0.7491105026565492, 0.764622729504481, 0.7821491630747914, 0.7976296457927674, 0.8159988310653716, 0.8310236339457333, 0.8493709741160274, 0.864548011450097, 0.8820256346371025, 0.8978443786036223, 0.914778257953003, 0.9311697587836534, 0.9480200114194304, 0.9645282484125346, 0.9815577010158449, 0.9975740767549723, 1.014699443941936, 1.0311499955132604, 1.0481019655708224, 1.0645282824989408, 1.081366588594392, 1.0975689908955246, 1.1146929927635938, 1.1312387762591243, 1.1479784371331334, 1.1644917940720916, 1.1813533105887473, 1.1976270517334342, 1.2147107762284577, 1.2312388105783612, 1.2480030471924692]
28	inanimate/n24.jpg	inanimate	animate	left	1.575	[0.0, 0.0, 0.0, 0.0, 0.0, 0.0, 0.0, 0.0, 0.0, 0.0, 2.0, 2.0, 2.0, 2.0, 2.0, 2.0, 2.0, 2.0, 2.0, 2.0, 2.0, 2.0, 2.0, 2.0, 2.0, 2.0, 2.0, 2.0, 2.0, 2.0, 3.0, 3.0, 3.0, 3.0, 3.0, 3.0, -3.0, -8.0, -36.0, -76.0, -147.0, -234.0, -325.0, -414.0, -492.0, -566.0, -630.0, -656.0, -662.0, -665.0, -681.0, -700.0, -727.0, -754.0, -776.0, -793.0, -802.0, -806.0, -807.0, -807.0, -807.0, -807.0, -807.0, -807.0, -807.0, -807.0, -807.0, -807.0, -807.0, -807.0, -807.0, -807.0, -807.0, -807.0, -807.0, -807.0, -807.0, -807.0, -807.0, -807.0, -807.0, -807.0, -807.0, -807.0, -807.0, -807.0, -807.0, -807.0, -807.0, -807.0, -807.0, -807.0, -807.0, -807.0, -807.0]	[-490.0, -490.0, -490.0, -490.0, -490.0, -490.0, -490.0, -490.0, -490.0, -490.0, -490.0, -492.0, -492.0, -492.0, -492.0, -492.0, -492.0, -492.0, -492.0, -492.0, -492.0, -492.0, -492.0, -492.0, -492.0, -492.0, -492.0, -492.0, -492.0, -492.0, -493.0, -493.0, -493.0, -493.0, -493.0, -491.0, -475.0, -467.0, -433.0, -398.0, -347.0, -286.0, -235.0, -175.0, -91.0, -5.0, 61.0, 101.0, 124.0, 147.0, 194.0, 235.0, 276.0, 310.0, 335.0, 352.0, 366.0, 374.0, 380.0, 381.0, 382.0, 382.0, 382.0, 382.0, 382.0, 382.0, 382.0, 382.0, 382.0, 382.0, 382.0, 382.0, 382.0, 382.0, 382.0, 382.0, 382.0, 382.0, 382.0, 382.0, 382.0, 382.0, 382.0, 382.0, 382.0, 382.0, 382.0, 382.0, 382.0, 382.0, 382.0, 382.0, 382.0, 382.0, 382.0]	[0.007092152023687959, 0.01205547759309411, 0.017895346507430077, 0.02894191164523363, 0.046215417329221964, 0.06231234781444073, 0.0794844776391983, 0.09567732270807028, 0.11285218317061663, 0.12901738029904664, 0.14620248088613153, 0.16236836044117808, 0.1793913277797401, 0.19583334610797465, 0.21277166274376214, 0.22917101439088583, 0.24619568837806582, 0.2650973533745855, 0.2794070632662624, 0.29857667488977313, 0.3126573502086103, 0.3320211803074926, 0.34617046383209527, 0.36356309498660266, 0.37947058537974954, 0.3965618193615228, 0.41275841905735433, 0.42920248536393046, 0.44570014090277255, 0.46568451449275017, 0.47920403839088976, 0.49871498299762607, 0.5125645759981126, 0.5298967910930514, 0.5459022442810237, 0.5650121225044131, 0.5790426218882203, 0.5960498878266662, 0.6123680020682514, 0.6298821477685124, 0.6459442623890936, 0.6637464931700379, 0.679201717255637, 0.6962093245238066, 0.7126185747329146, 0.7294445929583162, 0.7456155926920474, 0.7629850129596889, 0.7791771753691137, 0.796043812064454, 0.8139027042780071, 0.8293302804231644, 0.8459166826214641, 0.8628010686952621, 0.8790273643098772, 0.8961868649348617, 0.9125363817438483, 0.9293791251257062, 0.9457033835351467, 0.9627331774681807, 0.9792386835906655, 0.9960493417456746, 1.0125575785059482, 1.0294317246880382, 1.0458604309242219, 1.0627738302573562, 1.0790223125368357, 1.0961510930210352, 1.1126084714196622, 1.1291962389368564, 1.1462403687182814, 1.1625223017763346, 1.17951250099577, 1.1958671379834414, 1.2127822439651936, 1.2292246036231518, 1.246274194912985, 1.2625820692628622, 1.2795760231092572, 1.2959077907726169, 1.3128870674408972, 1.329247165704146, 1.3461844583507627, 1.3625626473221928, 1.3795364627148956, 1.395985307637602, 1.4129359123762697, 1.429071072023362, 1.4460465940646827, 1.4623042922466993, 1.4794945127796382, 1.4958969363942742, 1.512885770527646, 1.529222316807136, 1.5461503933183849]
29	inanimate/n4.jpg	animate	inanimate	right	1.565	[0.0, 0.0, 0.0, 0.0, 0.0, 0.0, 0.0, 0.0, 0.0, 0.0, 0.0, 0.0, -1.0, -1.0, -1.0, -1.0, -1.0, -1.0, -1.0, -1.0, -1.0, -1.0, -2.0, -3.0, -6.0, -10.0, -13.0, -20.0, -24.0, -28.0, -28.0, -34.0, -42.0, -54.0, -73.0, -106.0, -162.0, -227.0, -282.0, -315.0, -338.0, -354.0, -369.0, -392.0, -418.0, -450.0, -494.0, -547.0, -609.0, -688.0, -779.0, -867.0, -921.0, -941.0, -943.0, -943.0, -939.0, -929.0, -915.0, -899.0, -876.0, -829.0, -749.0, -643.0, -460.0, -388.0, -112.0, 95.0, 289.0, 454.0, 567.0, 621.0, 640.0, 647.0, 652.0, 654.0, 657.0, 661.0, 669.0, 681.0, 690.0, 693.0, 695.0, 701.0, 721.0, 748.0, 774.0, 792.0, 797.0, 797.0, 797.0, 797.0, 797.0, 797.0]	[-490.0, -490.0, -490.0, -490.0, -490.0, -490.0, -490.0, -490.0, -490.0, -490.0, -490.0, -490.0, -488.0, -487.0, -485.0, -485.0, -485.0, -485.0, -485.0, -485.0, -485.0, -485.0, -484.0, -481.0, -477.0, -468.0, -461.0, -448.0, -440.0, -436.0, -433.0, -423.0, -414.0, -402.0, -391.0, -373.0, -340.0, -297.0, -256.0, -226.0, -199.0, -174.0, -155.0, -124.0, -92.0, -59.0, -7.0, 62.0, 117.0, 173.0, 233.0, 284.0, 317.0, 335.0, 340.0, 345.0, 356.0, 370.0, 385.0, 398.0, 411.0, 427.0, 442.0, 444.0, 444.0, 438.0, 403.0, 383.0, 384.0, 384.0, 384.0, 386.0, 390.0, 392.0, 395.0, 395.0, 397.0, 399.0, 401.0, 402.0, 404.0, 404.0, 405.0, 406.0, 407.0, 407.0, 408.0, 412.0, 415.0, 415.0, 415.0, 415.0, 415.0, 415.0]	[0.012318986700847745, 0.017282312037423253, 0.023126959800720215, 0.039680594112724066, 0.059013704070821404, 0.0728875317145139, 0.0926841723266989, 0.10635217581875622, 0.12345911120064557, 0.1396666334476322, 0.15760505641810596, 0.17284455779008567, 0.19218859053216875, 0.20648635388351977, 0.2243650434538722, 0.23970523825846612, 0.25666335225105286, 0.27303915191441774, 0.2899832711555064, 0.3063771615270525, 0.32335848617367446, 0.3396786483936012, 0.3565486983861774, 0.37275144224986434, 0.3897918174043298, 0.40633725957013667, 0.4232356403954327, 0.4396380640100688, 0.4565910578239709, 0.473014302784577, 0.48989698220975697, 0.5063673311378807, 0.523319300962612, 0.5397087540477514, 0.5567091933917254, 0.5727791583631188, 0.5899396829772741, 0.6064219784457237, 0.6232179591897875, 0.6397418973501772, 0.6565860060509294, 0.672832440584898, 0.6899267465341836, 0.7060857994947582, 0.7232333533465862, 0.7394203958101571, 0.7567072135861963, 0.7727635253686458, 0.7899448713287711, 0.8061366921756417, 0.8233060913626105, 0.8394535391125828, 0.8566079197917134, 0.8727983755525202, 0.8899056520313025, 0.906229910440743, 0.9232054322492331, 0.9396853386424482, 0.9565755273215473, 0.97357869730331, 0.9899602995719761, 1.0086936871521175, 1.023148805135861, 1.0422163580078632, 1.056482377462089, 1.0740337283350527, 1.0898040030151606, 1.1087578919250518, 1.123120508622378, 1.1421955707482994, 1.1564619315322489, 1.1735852507408708, 1.1898903944529593, 1.2062470794189721, 1.2232157746329904, 1.2395038516260684, 1.256248973775655, 1.2729777118656784, 1.2896238474640995, 1.3063331295270473, 1.3230987314600497, 1.339511736528948, 1.3565333385486156, 1.372755196876824, 1.38965460145846, 1.4061044703703374, 1.423035960411653, 1.4397042824421078, 1.4562616713810712, 1.4730443400330842, 1.4896037769503891, 1.5066915976349264, 1.523033605189994, 1.5399340339936316]
30	inanimate/n2.jpg	animate	inanimate	right	1.414	[0.0, 0.0, 0.0, 0.0, 0.0, 0.0, 0.0, 0.0, 0.0, 0.0, 0.0, 0.0, 0.0, 0.0, 0.0, 0.0, 0.0, 0.0, 0.0, 0.0, 0.0, 0.0, 0.0, 0.0, 0.0, -2.0, -6.0, -7.0, -7.0, -7.0, -7.0, -7.0, -14.0, -27.0, -55.0, -103.0, -165.0, -228.0, -297.0, -406.0, -482.0, -558.0, -628.0, -678.0, -705.0, -718.0, -727.0, -735.0, -742.0, -753.0, -763.0, -769.0, -769.0, -769.0, -755.0, -708.0, -628.0, -520.0, -369.0, -186.0, 18.0, 183.0, 307.0, 421.0, 462.0, 496.0, 527.0, 563.0, 595.0, 619.0, 642.0, 669.0, 702.0, 722.0, 730.0, 730.0, 730.0, 730.0, 737.0, 754.0, 764.0, 766.0, 766.0, 766.0, 766.0]	[-490.0, -490.0, -490.0, -490.0, -490.0, -490.0, -490.0, -490.0, -490.0, -490.0, -490.0, -490.0, -490.0, -490.0, -490.0, -490.0, -490.0, -490.0, -490.0, -490.0, -490.0, -490.0, -490.0, -488.0, -477.0, -466.0, -452.0, -451.0, -448.0, -448.0, -448.0, -448.0, -440.0, -432.0, -418.0, -391.0, -354.0, -318.0, -268.0, -193.0, -138.0, -72.0, 16.0, 87.0, 135.0, 169.0, 202.0, 227.0, 252.0, 275.0, 294.0, 310.0, 319.0, 329.0, 349.0, 382.0, 426.0, 458.0, 495.0, 521.0, 535.0, 537.0, 537.0, 537.0, 537.0, 533.0, 523.0, 516.0, 513.0, 510.0, 505.0, 497.0, 488.0, 486.0, 486.0, 486.0, 486.0, 486.0, 484.0, 480.0, 478.0, 478.0, 478.0, 478.0, 478.0]	[0.015246259747073054, 0.020119814667850733, 0.02857839153148234, 0.04580684145912528, 0.0620440598577261, 0.07915372564457357, 0.09533086931332946, 0.112511191284284, 0.128896206850186, 0.14569252892397344, 0.16208914993330836, 0.17916058655828238, 0.19778372370637953, 0.2124057535547763, 0.23157092765904963, 0.24582056305371225, 0.26490381732583046, 0.27910907939076424, 0.2983275013975799, 0.312353563727811, 0.33109821542166173, 0.3457564264535904, 0.36312857759185135, 0.37913334812037647, 0.39592659822665155, 0.4124747710302472, 0.4286754666827619, 0.44536597561091185, 0.4622421695385128, 0.47876064642332494, 0.4966301198583096, 0.5120491627603769, 0.5292311911471188, 0.5455237056594342, 0.562594800721854, 0.5788589844014496, 0.5957167465239763, 0.6122031381819397, 0.6291175615042448, 0.6455387582536787, 0.6624248509760946, 0.6801724685356021, 0.6957942633889616, 0.71205776440911, 0.7291786943096668, 0.7455476671457291, 0.762454581214115, 0.7787283221259713, 0.79569326271303, 0.8120141078252345, 0.8291398163419217, 0.8453500694595277, 0.8623993194196373, 0.8786897857207805, 0.8959230142645538, 0.9119602113496512, 0.9291200530715287, 0.9453562474809587, 0.9624921961221844, 0.9786860651802272, 0.9956711444538087, 1.012256181333214, 1.0290668392553926, 1.0454777963459492, 1.0624362516682595, 1.0788652992341667, 1.0958630077075213, 1.1119896341115236, 1.1290726761799306, 1.1455604329239577, 1.162399421678856, 1.1789421332068741, 1.1957691754214466, 1.2119773803278804, 1.2291611155960709, 1.2453450858592987, 1.262410378549248, 1.27865339955315, 1.2958466920536011, 1.3119774144142866, 1.3290648937691003, 1.3453420479781926, 1.3624141672626138, 1.3786247617099434, 1.3958040594588965]
31	animate/a45.jpg	animate	inanimate	left	1.096	[0.0, 0.0, 0.0, 0.0, 0.0, 0.0, 0.0, 0.0, 0.0, 0.0, 0.0, 0.0, 0.0, 0.0, 0.0, 0.0, 0.0, 0.0, 1.0, 2.0, 2.0, 2.0, 2.0, 3.0, 3.0, 5.0, 6.0, 6.0, 7.0, 7.0, 7.0, 7.0, 5.0, -1.0, -13.0, -39.0, -79.0, -126.0, -181.0, -232.0, -275.0, -286.0, -314.0, -324.0, -330.0, -336.0, -345.0, -360.0, -382.0, -420.0, -464.0, -511.0, -580.0, -600.0, -665.0, -677.0, -718.0, -744.0, -764.0, -783.0, -800.0, -807.0, -807.0, -807.0, -807.0, -807.0]	[-490.0, -490.0, -490.0, -490.0, -490.0, -490.0, -490.0, -490.0, -490.0, -490.0, -490.0, -490.0, -490.0, -489.0, -489.0, -488.0, -487.0, -486.0, -485.0, -485.0, -483.0, -482.0, -480.0, -478.0, -475.0, -472.0, -468.0, -463.0, -453.0, -449.0, -436.0, -430.0, -407.0, -388.0, -362.0, -322.0, -274.0, -226.0, -173.0, -116.0, 33.0, 71.0, 128.0, 145.0, 162.0, 180.0, 201.0, 222.0, 246.0, 273.0, 301.0, 328.0, 357.0, 365.0, 389.0, 392.0, 399.0, 403.0, 403.0, 405.0, 408.0, 409.0, 409.0, 409.0, 409.0, 409.0]	[0.001493401126936078, 0.006305857328698039, 0.018209168454632163, 0.035191517090424895, 0.05141235142946243, 0.0683090256061405, 0.08472851570695639, 0.10160095524042845, 0.11807915475219488, 0.13507993542589247, 0.15144105767831206, 0.16844320367090404, 0.18471592059358954, 0.20162590662948787, 0.21781670372001827, 0.23517144680954516, 0.2513933051377535, 0.26846747240051627, 0.2847207332961261, 0.30183790856972337, 0.3180874150712043, 0.3350817102473229, 0.35158414440229535, 0.36847365042194724, 0.3847381754312664, 0.40169219346717, 0.41811065981164575, 0.43496193643659353, 0.45138176809996367, 0.4687337805517018, 0.4845009830314666, 0.5020485795103014, 0.5180912378709763, 0.5354009249713272, 0.5515405221376568, 0.5687259640544653, 0.5847450704313815, 0.6018530298024416, 0.6180486055091023, 0.6352733005769551, 0.6514098257757723, 0.6685857102274895, 0.6844703312963247, 0.7019083597697318, 0.7180605861358345, 0.7381528213154525, 0.7515375183429569, 0.77154032420367, 0.7847898532636464, 0.801645226078108, 0.818130252417177, 0.8374770157970488, 0.8514341285917908, 0.87115738238208, 0.884568020934239, 0.9016090789809823, 0.9181057105306536, 0.9364458823110908, 0.9514966267161071, 0.9692258122377098, 0.9847530575934798, 1.0015534756239504, 1.018120763124898, 1.034945757361129, 1.0514471675269306, 1.0682875216007233]
32	animate/a31.jpg	inanimate	animate	right	1.333	[0.0, 0.0, 0.0, 0.0, 0.0, 0.0, 0.0, 0.0, 0.0, 0.0, 2.0, 2.0, 2.0, 2.0, 2.0, 2.0, 2.0, 2.0, 2.0, 2.0, 2.0, 1.0, -2.0, -5.0, -7.0, -11.0, -13.0, -14.0, -15.0, -15.0, -15.0, -15.0, -15.0, -15.0, -19.0, -33.0, -69.0, -124.0, -189.0, -271.0, -390.0, -457.0, -507.0, -544.0, -568.0, -581.0, -594.0, -606.0, -618.0, -626.0, -627.0, -607.0, -532.0, -398.0, -233.0, -37.0, 198.0, 450.0, 682.0, 860.0, 955.0, 959.0, 959.0, 959.0, 959.0, 959.0, 959.0, 956.0, 944.0, 926.0, 900.0, 848.0, 833.0, 819.0, 814.0, 814.0, 814.0, 814.0, 814.0, 814.0]	[-490.0, -490.0, -490.0, -490.0, -490.0, -490.0, -490.0, -490.0, -490.0, -490.0, -490.0, -488.0, -483.0, -479.0, -479.0, -479.0, -477.0, -476.0, -476.0, -474.0, -471.0, -466.0, -458.0, -453.0, -445.0, -438.0, -433.0, -430.0, -427.0, -427.0, -426.0, -426.0, -426.0, -424.0, -411.0, -389.0, -348.0, -297.0, -249.0, -189.0, -80.0, 3.0, 62.0, 107.0, 147.0, 173.0, 194.0, 212.0, 228.0, 243.0, 251.0, 281.0, 326.0, 384.0, 439.0, 486.0, 523.0, 539.0, 539.0, 539.0, 539.0, 539.0, 539.0, 539.0, 539.0, 539.0, 539.0, 535.0, 529.0, 521.0, 509.0, 489.0, 482.0, 472.0, 469.0, 469.0, 469.0, 469.0, 469.0, 469.0]	[0.007055970607325435, 0.015776691492646933, 0.02912350045517087, 0.04752886714413762, 0.06275061937049031, 0.08023472782224417, 0.09602718893438578, 0.11375637445598841, 0.12936827051453292, 0.14628747245296836, 0.16268853074871004, 0.1795715515036136, 0.19585962849669158, 0.21289044641889632, 0.22932632081210613, 0.24626088282093406, 0.2627022182568908, 0.27952823624946177, 0.29601531056687236, 0.31292973388917744, 0.32931304280646145, 0.34632303938269615, 0.36251349514350295, 0.3794456678442657, 0.39578869938850403, 0.41296970401890576, 0.4291086185257882, 0.44619404966942966, 0.46272379043512046, 0.479608517838642, 0.4961170961614698, 0.5129069327376783, 0.529179991222918, 0.5463712357450277, 0.5624463208951056, 0.5796184507198632, 0.5958529384806752, 0.6129284710623324, 0.6291383826173842, 0.6462098192423582, 0.6624832188244909, 0.6795870822388679, 0.6958027966320515, 0.7129278224892914, 0.7291230568662286, 0.746281191939488, 0.7624494610354304, 0.7795901882927865, 0.7957912252750248, 0.8129561871755868, 0.8291862376499921, 0.8462586982641369, 0.8626641938462853, 0.8796120677143335, 0.898123930208385, 0.9129224293865263, 0.9297494713682681, 0.9463106149341911, 0.9655048025306314, 0.9795011687092483, 0.9986076334025711, 1.0129774182569236, 1.0321907203178853, 1.0463686757721007, 1.0638497120235115, 1.0796063332818449, 1.0985315502621233, 1.1128774415701628, 1.1316367706749588, 1.146184048615396, 1.1653103108983487, 1.1794838288333267, 1.1958254952915013, 1.2126440040301532, 1.2325031084474176, 1.2460243387613446, 1.2658810541033745, 1.2793872656766325, 1.2987060397863388, 1.3126358459703624]
33	animate/a56.jpg	inanimate	animate	right	1.068	[0.0, 0.0, 0.0, 0.0, 0.0, 0.0, 0.0, 0.0, 0.0, 0.0, 2.0, 4.0, 5.0, 5.0, 5.0, 5.0, 5.0, 5.0, 5.0, 6.0, 6.0, 6.0, 6.0, 6.0, 7.0, 7.0, 8.0, 8.0, 8.0, 8.0, 8.0, 9.0, 9.0, 11.0, 11.0, 12.0, 13.0, 18.0, 29.0, 47.0, 76.0, 109.0, 181.0, 264.0, 370.0, 482.0, 590.0, 704.0, 811.0, 903.0, 959.0, 959.0, 959.0, 959.0, 959.0, 959.0, 959.0, 959.0, 959.0, 959.0, 959.0, 959.0, 959.0, 959.0, 959.0]	[-490.0, -490.0, -490.0, -490.0, -490.0, -490.0, -490.0, -490.0, -490.0, -490.0, -490.0, -489.0, -489.0, -489.0, -489.0, -489.0, -489.0, -489.0, -489.0, -488.0, -487.0, -487.0, -486.0, -485.0, -484.0, -484.0, -483.0, -483.0, -483.0, -483.0, -483.0, -481.0, -481.0, -478.0, -476.0, -471.0, -463.0, -445.0, -416.0, -373.0, -325.0, -271.0, -177.0, -78.0, 43.0, 174.0, 298.0, 405.0, 494.0, 540.0, 540.0, 540.0, 540.0, 540.0, 540.0, 540.0, 540.0, 540.0, 540.0, 540.0, 540.0, 540.0, 540.0, 540.0, 540.0]	[0.007529741153120995, 0.013407498132437468, 0.017818546388298273, 0.032939946744591, 0.04707899014465511, 0.06448356783948839, 0.08059005555696785, 0.09673409000970423, 0.11353758000768721, 0.13311542617157102, 0.14666054979898036, 0.1662540971301496, 0.180257631232962, 0.19719355856068432, 0.2135714062023908, 0.23351516132242978, 0.2468445624690503, 0.2665135443676263, 0.28000098280608654, 0.2998884180560708, 0.31365745631046593, 0.3331376810092479, 0.3469353911932558, 0.3661544960923493, 0.3802710114978254, 0.39826814364641905, 0.4135404131375253, 0.43139384407550097, 0.44688695599325, 0.4638781794346869, 0.4801887844223529, 0.49714519176632166, 0.5135298660025001, 0.5304582840763032, 0.5466361104045063, 0.563870704267174, 0.5802424077410251, 0.5971134819556028, 0.6135483321268111, 0.630510542076081, 0.6467112377285957, 0.6638004237320274, 0.6799553807359189, 0.6971237559337169, 0.7135627022944391, 0.7305307148490101, 0.7468235704582185, 0.7638151352293789, 0.7802247267682105, 0.7970988727174699, 0.8133063951972872, 0.830505148973316, 0.8467836687341332, 0.8637776225805283, 0.8800926650874317, 0.8971337229013443, 0.9133842531591654, 0.9305314659141004, 0.9466666255611926, 0.9638442166615278, 0.9800189712550491, 0.9971576503012329, 1.0132982714567333, 1.03047791053541, 1.046659833053127]
34	animate/a76.jpg	animate	inanimate	left	1.482	[0.0, 0.0, 0.0, 0.0, 0.0, 0.0, 0.0, 0.0, -1.0, -1.0, -3.0, -3.0, -3.0, -3.0, -3.0, -2.0, -1.0, 0.0, 3.0, 3.0, 4.0, 4.0, 4.0, 4.0, 4.0, 4.0, 4.0, 4.0, 6.0, 8.0, 8.0, 10.0, 11.0, 11.0, 12.0, 12.0, 12.0, 14.0, 15.0, 16.0, 17.0, 18.0, 22.0, 24.0, 24.0, 27.0, 42.0, 71.0, 95.0, 113.0, 125.0, 139.0, 154.0, 180.0, 238.0, 256.0, 308.0, 332.0, 345.0, 345.0, 330.0, 290.0, 211.0, 54.0, -2.0, -185.0, -306.0, -421.0, -511.0, -584.0, -634.0, -669.0, -685.0, -689.0, -689.0, -690.0, -691.0, -694.0, -699.0, -703.0, -705.0, -705.0, -705.0, -705.0, -707.0, -707.0, -709.0, -709.0, -709.0]	[-490.0, -490.0, -490.0, -490.0, -490.0, -490.0, -490.0, -490.0, -490.0, -490.0, -490.0, -490.0, -490.0, -490.0, -488.0, -487.0, -486.0, -485.0, -483.0, -482.0, -482.0, -481.0, -481.0, -481.0, -481.0, -481.0, -481.0, -481.0, -481.0, -481.0, -481.0, -481.0, -481.0, -481.0, -481.0, -481.0, -481.0, -481.0, -481.0, -481.0, -481.0, -481.0, -478.0, -476.0, -476.0, -474.0, -449.0, -425.0, -403.0, -383.0, -365.0, -348.0, -328.0, -291.0, -211.0, -186.0, -101.0, -46.0, 5.0, 48.0, 79.0, 123.0, 177.0, 258.0, 272.0, 301.0, 313.0, 323.0, 323.0, 323.0, 324.0, 324.0, 324.0, 326.0, 326.0, 327.0, 331.0, 336.0, 342.0, 346.0, 348.0, 348.0, 348.0, 348.0, 349.0, 351.0, 355.0, 359.0, 363.0]	[0.008575040148571134, 0.017706725979223847, 0.03212088393047452, 0.04898820328526199, 0.06540325633250177, 0.08228081557899714, 0.09878768725320697, 0.11559868650510907, 0.1320198834873736, 0.14904489880427718, 0.16542445309460163, 0.18229450308717787, 0.19875870808027685, 0.2155642460566014, 0.23207111773081124, 0.24884832510724664, 0.2654087860137224, 0.2821975986007601, 0.29873792082071304, 0.3156683868728578, 0.3320172212552279, 0.3489514417015016, 0.3653808308299631, 0.3823099313303828, 0.39873112831264734, 0.4156499889213592, 0.432084156665951, 0.4489671771880239, 0.46514056622982025, 0.4822082482278347, 0.49877314642071724, 0.5156216924078763, 0.5320814601145685, 0.5489194246474653, 0.5653969417326152, 0.5822669917251915, 0.598633233923465, 0.6155794013757259, 0.6318869343958795, 0.6489150214474648, 0.6651481438893825, 0.6822561032604426, 0.6984356362372637, 0.7156828592997044, 0.7317838857416064, 0.7490044850856066, 0.765119506046176, 0.7822837852872908, 0.7984660489019006, 0.8156337414402515, 0.8318057651631534, 0.8490130524151027, 0.8651884894352406, 0.8823411634657532, 0.8984780297614634, 0.9156119304243475, 0.9318228659685701, 0.9490649693179876, 0.9652721502352506, 0.9823371015954763, 1.0012776784133166, 1.0155952391214669, 1.034749490674585, 1.0488431367557496, 1.0663180290721357, 1.0823255302384496, 1.0990621191449463, 1.1156297479756176, 1.1318888117093593, 1.1486929843667895, 1.1651063305325806, 1.1819797940552235, 1.1988351666368544, 1.2153754888568074, 1.232009677682072, 1.2486278237774968, 1.265371580608189, 1.2821354761254042, 1.298687744885683, 1.3153297842945904, 1.3320042504929006, 1.3486370739992708, 1.3658228572458029, 1.382028331514448, 1.3989424135070294, 1.4153489330783486, 1.4322394630871713, 1.4485459721181542, 1.4655880541540682]
