trialIndex	stimulus	isAnimate	left_option	right_option	response	response_time	xTrajectory	yTrajectory	tTrajectory
0	香蕉	False	inanimate	animate	left	1.284	[0.0, 0.0, 0.0, 0.0, 0.0, 0.0, 0.0, 0.0, 0.0, 0.0, 0.0, 0.0, 0.0, 0.0, -2.0, -17.0, -20.0, -20.0, -20.0, -20.0, -20.0, -20.0, -20.0, -20.0, -20.0, -20.0, -20.0, -20.0, -20.0, -20.0, -19.0, -18.0, -15.0, -15.0, -15.0, -17.0, -20.0, -25.0, -31.0, -45.0, -63.0, -89.0, -129.0, -183.0, -245.0, -306.0, -400.0, -441.0, -459.0, -520.0, -568.0, -620.0, -653.0, -669.0, -671.0, -681.0, -682.0, -690.0, -697.0, -704.0, -708.0, -718.0, -724.0, -725.0, -728.0, -730.0, -734.0, -736.0, -739.0, -740.0, -740.0, -740.0, -740.0, -740.0, -740.0, -740.0, -740.0]	[-490.0, -490.0, -490.0, -490.0, -490.0, -490.0, -490.0, -490.0, -490.0, -490.0, -490.0, -490.0, -490.0, -490.0, -483.0, -477.0, -473.0, -473.0, -473.0, -473.0, -473.0, -473.0, -473.0, -473.0, -473.0, -473.0, -473.0, -473.0, -473.0, -473.0, -473.0, -473.0, -473.0, -473.0, -473.0, -473.0, -473.0, -473.0, -471.0, -465.0, -457.0, -446.0, -429.0, -406.0, -378.0, -355.0, -309.0, -282.0, -250.0, -104.0, -33.0, 33.0, 63.0, 83.0, 89.0, 113.0, 118.0, 148.0, 172.0, 195.0, 209.0, 246.0, 263.0, 277.0, 295.0, 315.0, 336.0, 353.0, 369.0, 377.0, 382.0, 384.0, 384.0, 385.0, 385.0, 385.0, 385.0]	[0.010372769786044955, 0.015496861393330619, 0.02038543322123587, 0.03597001725574955, 0.052832893532468006, 0.06928002618951723, 0.08601933988393284, 0.10306278135976754, 0.1178107580926735, 0.13634957961039618, 0.15269431233173236, 0.16813109916984104, 0.18604220921406522, 0.2032481251808349, 0.21803945122519508, 0.23630349963787012, 0.25289467483526096, 0.2680781925446354, 0.2861647477839142, 0.30311022663954645, 0.31801214459119365, 0.3363267102977261, 0.3528892135072965, 0.36812529648886994, 0.38621219305787235, 0.40317200793651864, 0.4177868647966534, 0.43635743026970886, 0.45346947966027074, 0.4683024483383633, 0.4861582624434959, 0.5030607333465014, 0.5178254354104865, 0.536370059591718, 0.552764968277188, 0.5680590778938495, 0.5861661130911671, 0.6032525625196286, 0.6180981605139095, 0.6363178356259596, 0.6529663547698874, 0.6681355364853516, 0.6859278626507148, 0.7029132774914615, 0.7176732008811086, 0.7362557130109053, 0.7525451497931499, 0.76807614453719, 0.78585823069443, 0.8029535547830164, 0.8183674722968135, 0.8362253343802877, 0.8526458430278581, 0.8679754512850195, 0.8859285452926997, 0.9028951868240256, 0.9178916540404316, 0.9362359156948514, 0.9529274427914061, 0.9681130085082259, 0.9883707832195796, 1.0030289893911686, 1.0178018834267277, 1.0362959903141018, 1.0548740651283879, 1.0680211899161804, 1.087423242686782, 1.102996221394278, 1.119222511566477, 1.1362106570741162, 1.157036068616435, 1.1679580433119554, 1.1860050038958434, 1.202853885537479, 1.2181626724777743, 1.2358461133844685, 1.2545641347242054]
1	老鹰	True	inanimate	animate	right	0.918	[0.0, 0.0, 0.0, 0.0, 0.0, 0.0, 0.0, 0.0, 0.0, -1.0, -8.0, -21.0, -34.0, -36.0, -36.0, -36.0, -36.0, -36.0, -36.0, -36.0, -36.0, -36.0, -36.0, -36.0, -36.0, -88.0, -156.0, -195.0, -325.0, -416.0, -500.0, -560.0, -602.0, -638.0, -677.0, -705.0, -723.0, -735.0, -737.0, -738.0, -738.0, -737.0, -723.0, -675.0, -566.0, -404.0, -196.0, 20.0, 222.0, 477.0, 604.0, 650.0, 715.0, 721.0, 723.0, 723.0]	[-490.0, -490.0, -490.0, -490.0, -490.0, -490.0, -490.0, -490.0, -490.0, -490.0, -485.0, -475.0, -469.0, -468.0, -468.0, -468.0, -468.0, -468.0, -468.0, -468.0, -468.0, -468.0, -468.0, -468.0, -468.0, -451.0, -432.0, -417.0, -349.0, -291.0, -237.0, -147.0, -50.0, 33.0, 125.0, 190.0, 228.0, 260.0, 266.0, 266.0, 270.0, 275.0, 286.0, 308.0, 348.0, 387.0, 426.0, 460.0, 485.0, 496.0, 496.0, 496.0, 497.0, 497.0, 497.0, 497.0]	[0.011156470485730097, 0.016129692899994552, 0.021021336724516004, 0.03908468130975962, 0.05561680588289164, 0.07097747543593869, 0.08899644672055729, 0.10657475705374964, 0.12079127825563774, 0.13860237773042172, 0.15544579800916836, 0.17115701662260108, 0.18874249493819661, 0.2057361017796211, 0.22074792895000428, 0.23859486839501187, 0.2553181394760031, 0.2737436384195462, 0.288802569557447, 0.3068113008630462, 0.3206014970783144, 0.34036775221466087, 0.35541712603298947, 0.371423256379785, 0.38888585483073257, 0.40610166944679804, 0.4205772624409292, 0.43898330538650043, 0.4556936058215797, 0.4706484303751495, 0.4886981216550339, 0.5056811471586116, 0.5203297959815245, 0.5388064948783722, 0.5554290727013722, 0.5706651557120495, 0.5886820789892226, 0.6056128805503249, 0.6205974010808859, 0.6388890974922106, 0.6551409876265097, 0.6707201103272382, 0.6886298550234642, 0.7055558779393323, 0.720340377301909, 0.7388440415088553, 0.7553113127942197, 0.7706569636939093, 0.788643508363748, 0.8056033232132904, 0.8205714597715996, 0.8388399455288891, 0.8553778727364261, 0.8707614116137847, 0.8885824097378645, 0.905730981787201]
2	孔雀	True	animate	inanimate	left	0.824	[0.0, 0.0, 0.0, 0.0, 0.0, 0.0, 0.0, 1.0, 1.0, 1.0, 1.0, 1.0, 1.0, 1.0, 1.0, 1.0, 1.0, 1.0, 1.0, 4.0, 5.0, 2.0, -13.0, -37.0, -71.0, -114.0, -168.0, -237.0, -290.0, -359.0, -381.0, -455.0, -508.0, -555.0, -589.0, -607.0, -618.0, -629.0, -638.0, -647.0, -651.0, -654.0, -659.0, -671.0, -685.0, -694.0, -702.0, -703.0, -705.0, -705.0]	[-490.0, -490.0, -490.0, -490.0, -490.0, -490.0, -490.0, -487.0, -481.0, -474.0, -474.0, -474.0, -474.0, -474.0, -474.0, -474.0, -474.0, -474.0, -474.0, -474.0, -474.0, -474.0, -465.0, -449.0, -425.0, -371.0, -255.0, -144.0, -51.0, 54.0, 94.0, 196.0, 251.0, 296.0, 330.0, 345.0, 356.0, 368.0, 377.0, 383.0, 386.0, 386.0, 388.0, 390.0, 392.0, 395.0, 398.0, 398.0, 399.0, 399.0]	[0.014519283606205136, 0.019550873985281214, 0.02682502244715579, 0.045509934483561665, 0.06198198444326408, 0.07741126194014214, 0.09525239872164093, 0.11242349873646162, 0.12703664891887456, 0.14561847838922404, 0.1618580805370584, 0.1773552833183203, 0.1951923241140321, 0.21231495481333695, 0.2269622383173555, 0.24558639310998842, 0.2619000645063352, 0.27721738477703184, 0.29530598799465224, 0.3122797975083813, 0.3270260675926693, 0.3456587557157036, 0.36491130461217836, 0.3773071553732734, 0.3953404626518022, 0.4123272428114433, 0.42705473958631046, 0.4455235878122039, 0.4677972754871007, 0.47710508620366454, 0.49657506425864995, 0.5122630721889436, 0.5281695332960226, 0.5453931985830422, 0.5622611948638223, 0.5774262805934995, 0.5954285265761428, 0.6122559042123612, 0.6271004782174714, 0.6450846335210372, 0.6621639149379916, 0.6772225047752727, 0.6968061467341613, 0.7120333550556097, 0.728782567428425, 0.7452884093509056, 0.7626974184822757, 0.7772702913789544, 0.7956148943922017, 0.8119609924615361]
3	金鱼	True	inanimate	animate	right	1.089	[0.0, 0.0, 0.0, 0.0, 0.0, 0.0, 0.0, 0.0, 0.0, 0.0, 0.0, 1.0, 1.0, 1.0, 1.0, 1.0, 1.0, -8.0, -11.0, -17.0, -18.0, -18.0, -18.0, -18.0, -14.0, -10.0, -10.0, -15.0, -82.0, -138.0, -166.0, -264.0, -341.0, -408.0, -463.0, -511.0, -542.0, -576.0, -608.0, -633.0, -657.0, -684.0, -691.0, -701.0, -709.0, -713.0, -717.0, -720.0, -721.0, -721.0, -721.0, -717.0, -630.0, -506.0, -420.0, -115.0, 101.0, 303.0, 479.0, 616.0, 727.0, 836.0, 857.0, 880.0, 889.0, 889.0]	[-490.0, -490.0, -490.0, -490.0, -490.0, -490.0, -490.0, -490.0, -490.0, -490.0, -490.0, -489.0, -487.0, -485.0, -484.0, -481.0, -469.0, -457.0, -453.0, -444.0, -441.0, -441.0, -441.0, -439.0, -407.0, -369.0, -304.0, -187.0, -59.0, 10.0, 44.0, 127.0, 172.0, 212.0, 238.0, 265.0, 282.0, 300.0, 314.0, 325.0, 337.0, 353.0, 357.0, 363.0, 368.0, 370.0, 373.0, 375.0, 375.0, 375.0, 375.0, 378.0, 378.0, 378.0, 378.0, 378.0, 378.0, 378.0, 378.0, 378.0, 378.0, 388.0, 392.0, 396.0, 399.0, 399.0]	[0.00818277703365311, 0.013371721928706393, 0.017376241186866537, 0.034349709370872006, 0.04976738154073246, 0.06559192269924097, 0.0831378063885495, 0.1001665705407504, 0.11482068069744855, 0.13334619021043181, 0.14992439473280683, 0.16511098443879746, 0.18314941172138788, 0.19997269337181933, 0.21504254717729054, 0.2333386809041258, 0.2498370134853758, 0.26510757111827843, 0.28315487306099385, 0.3000453973072581, 0.3150036352162715, 0.33333731556194834, 0.34970833093393594, 0.3650717311538756, 0.3831221050932072, 0.40004710396169685, 0.41503333116997965, 0.4332536889705807, 0.4496260696614627, 0.46513760843663476, 0.4829033105925191, 0.4999842986871954, 0.5147350061160978, 0.5332987449364737, 0.5494642778066918, 0.5650218965311069, 0.5827623400546145, 0.5999552853754722, 0.6147220354469027, 0.6332646116206888, 0.6494659844611306, 0.6650027818686794, 0.6828418706427328, 0.7000406186562032, 0.7147592407418415, 0.7333007929264568, 0.7495315204141662, 0.7650867498014122, 0.7828101266932208, 0.7998576641257387, 0.814681075484259, 0.8332652942917775, 0.8494731524551753, 0.8649863978789654, 0.8829353959008586, 0.9000058026867919, 0.9149531179282349, 0.9332929422671441, 0.9509982284798753, 0.9650969897920731, 0.9875816212734208, 0.999874048109632, 1.0155193894461263, 1.0331857636920176, 1.0498789974371903, 1.065189832384931]
4	蜻蜓	True	animate	inanimate	left	0.965	[0.0, 0.0, 0.0, 0.0, 0.0, 0.0, 0.0, 0.0, 0.0, 0.0, -8.0, -26.0, -50.0, -59.0, -59.0, -59.0, -59.0, -59.0, -59.0, -59.0, -59.0, -59.0, -44.0, -35.0, -34.0, -34.0, -36.0, -38.0, -60.0, -84.0, -105.0, -132.0, -169.0, -214.0, -267.0, -331.0, -421.0, -517.0, -562.0, -583.0, -640.0, -664.0, -681.0, -698.0, -713.0, -723.0, -729.0, -730.0, -730.0, -734.0, -740.0, -743.0, -748.0, -752.0, -756.0, -758.0, -759.0, -759.0]	[-490.0, -490.0, -490.0, -490.0, -490.0, -490.0, -490.0, -490.0, -490.0, -490.0, -485.0, -477.0, -467.0, -459.0, -459.0, -459.0, -459.0, -459.0, -459.0, -459.0, -459.0, -459.0, -469.0, -475.0, -476.0, -477.0, -477.0, -476.0, -462.0, -440.0, -420.0, -392.0, -344.0, -281.0, -219.0, -153.0, -68.0, 33.0, 95.0, 126.0, 207.0, 247.0, 277.0, 304.0, 324.0, 335.0, 342.0, 343.0, 343.0, 354.0, 367.0, 373.0, 382.0, 390.0, 397.0, 403.0, 405.0, 405.0]	[0.009864866238785908, 0.014639091503340751, 0.02141625905642286, 0.035523895028745756, 0.05296294146683067, 0.06735115320771001, 0.08645215022261254, 0.10223163542104885, 0.11725540927727707, 0.13519246064242907, 0.15261648842715658, 0.16732350521488115, 0.18997709653922357, 0.202010110282572, 0.21741003313218243, 0.23519587397458963, 0.25198195030679926, 0.2670954947534483, 0.2851680553285405, 0.30194457434117794, 0.31711955872015096, 0.3351480873534456, 0.3518201584520284, 0.36718287601252086, 0.3852847912348807, 0.4020814488758333, 0.4170990787388291, 0.43513170335791074, 0.4520454382582102, 0.46733067321474664, 0.48530219920212403, 0.5020288836094551, 0.5170956654183101, 0.5350173567712773, 0.5519000303756911, 0.5673180438752752, 0.5852550952404272, 0.602011816954473, 0.6171018094173633, 0.6350187221250962, 0.6518017264606897, 0.6671190467313863, 0.685242124600336, 0.7020227395987604, 0.7170980547380168, 0.7349538688431494, 0.7516491505957674, 0.7672453399572987, 0.7853397458384279, 0.8020128409552854, 0.8169072495657019, 0.8350071167806163, 0.852059432916576, 0.8671763906895649, 0.8854697937204037, 0.9015786653326359, 0.9172342466190457, 0.9349193942034617]
5	蝌蚪	True	animate	inanimate	left	0.916	[0.0, 0.0, 0.0, 0.0, 0.0, 0.0, 0.0, 0.0, 0.0, 0.0, 0.0, 0.0, 0.0, 0.0, 0.0, 0.0, 0.0, 0.0, 0.0, 0.0, 0.0, 0.0, -1.0, -14.0, -25.0, -39.0, -54.0, -92.0, -206.0, -290.0, -331.0, -436.0, -507.0, -577.0, -645.0, -696.0, -727.0, -751.0, -787.0, -800.0, -841.0, -848.0, -852.0, -853.0, -853.0, -844.0, -838.0, -831.0, -826.0, -821.0, -814.0, -811.0, -808.0, -807.0, -807.0, -807.0]	[-490.0, -490.0, -490.0, -490.0, -490.0, -490.0, -490.0, -490.0, -490.0, -490.0, -490.0, -490.0, -490.0, -490.0, -490.0, -490.0, -490.0, -490.0, -490.0, -490.0, -490.0, -490.0, -489.0, -491.0, -492.0, -492.0, -492.0, -473.0, -427.0, -403.0, -392.0, -354.0, -331.0, -312.0, -293.0, -260.0, -231.0, -182.0, -33.0, 39.0, 223.0, 270.0, 295.0, 315.0, 332.0, 349.0, 364.0, 380.0, 390.0, 399.0, 409.0, 412.0, 416.0, 417.0, 417.0, 417.0]	[0.014224371843738481, 0.019028634385904297, 0.029291153652593493, 0.04419068226707168, 0.06097607593983412, 0.07618690028903075, 0.09449395665433258, 0.11085507337702438, 0.12625226555974223, 0.14425280486466363, 0.16142561155720614, 0.17603842040989548, 0.19451819130335934, 0.21097283327253535, 0.226274793560151, 0.24410398365580477, 0.26123617170378566, 0.27615413232706487, 0.2945444739598315, 0.3110547531978227, 0.32627376954769716, 0.34417907692841254, 0.36133242762298323, 0.3758735565643292, 0.39447927934816107, 0.41072058814461343, 0.4261338229989633, 0.4440695090161171, 0.4611511797993444, 0.47583464460331015, 0.4944410500465892, 0.5107356068037916, 0.5262061856046785, 0.5440619997098111, 0.561152203794336, 0.5758537592482753, 0.5944017967558466, 0.6106905508495402, 0.626116756349802, 0.6440575623710174, 0.6610470731975511, 0.6760479777294677, 0.6943908740940969, 0.7129139942699112, 0.7262833268614486, 0.7467947120312601, 0.7613174089929089, 0.7761189750162885, 0.7944376367086079, 0.8109100279980339, 0.8262119882565457, 0.8468834586383309, 0.8609043959877454, 0.8761500363179948, 0.8943802927678917, 0.9129576849227306]
6	篮球	False	animate	inanimate	right	1.184	[0.0, 0.0, 0.0, 0.0, 0.0, 0.0, 0.0, 0.0, 0.0, -4.0, -11.0, -16.0, -21.0, -21.0, -21.0, -21.0, -21.0, -21.0, -21.0, -21.0, -21.0, -20.0, -16.0, -16.0, -16.0, -18.0, -43.0, -112.0, -232.0, -306.0, -341.0, -453.0, -524.0, -575.0, -610.0, -627.0, -636.0, -640.0, -644.0, -648.0, -652.0, -654.0, -655.0, -658.0, -661.0, -666.0, -673.0, -682.0, -691.0, -697.0, -702.0, -705.0, -707.0, -707.0, -706.0, -657.0, -551.0, -403.0, -233.0, -28.0, 159.0, 410.0, 482.0, 604.0, 691.0, 767.0, 797.0, 819.0, 834.0, 838.0, 838.0, 838.0]	[-490.0, -490.0, -490.0, -489.0, -489.0, -487.0, -486.0, -486.0, -484.0, -479.0, -472.0, -469.0, -465.0, -464.0, -464.0, -464.0, -464.0, -464.0, -464.0, -464.0, -464.0, -464.0, -465.0, -465.0, -465.0, -459.0, -439.0, -401.0, -320.0, -219.0, -180.0, -35.0, 44.0, 100.0, 143.0, 166.0, 180.0, 188.0, 195.0, 201.0, 209.0, 213.0, 214.0, 222.0, 229.0, 242.0, 256.0, 277.0, 298.0, 312.0, 325.0, 336.0, 348.0, 353.0, 359.0, 378.0, 398.0, 415.0, 432.0, 439.0, 439.0, 439.0, 439.0, 439.0, 439.0, 439.0, 439.0, 439.0, 439.0, 439.0, 439.0, 439.0]	[0.013755038933595642, 0.018683205387787893, 0.025530004873871803, 0.04419580227113329, 0.06076956947799772, 0.07559844214119948, 0.09379081064253114, 0.11380521487444639, 0.1257877113239374, 0.1458557048754301, 0.16064668959006667, 0.1760599244153127, 0.1939365598373115, 0.21280510906944983, 0.22579760997905396, 0.24492591366288252, 0.260684236214729, 0.2771579928230494, 0.29376862398930825, 0.31172342467471026, 0.3257883939950261, 0.344274650211446, 0.36041799644590355, 0.37595479385345243, 0.39393929051584564, 0.41081650275737047, 0.42576074600219727, 0.4441166130127385, 0.46064293492236175, 0.4759046178951394, 0.4937542880070396, 0.5108008014503866, 0.525784980651224, 0.5439763251342811, 0.5607030095416121, 0.5758875512401573, 0.5936170721251983, 0.610602486965945, 0.625480511575006, 0.6440514184068888, 0.6602705405675806, 0.6759363618621137, 0.693596250785049, 0.7108185507531743, 0.7255201062362175, 0.7439152265142184, 0.7603295911976602, 0.7758762872545049, 0.7938720478850883, 0.8107287801685743, 0.8256351354648359, 0.844053466396872, 0.8619239578256384, 0.8759121272305492, 0.8948161751031876, 0.9107519908284303, 0.926632851944305, 0.9439814451325219, 0.9610013346245978, 0.9759698125126306, 0.9984186040237546, 1.0106198949506506, 1.0263877748220693, 1.0439186398580205, 1.0606221136113163, 1.0759431885380764, 1.0936539360845927, 1.110493601707276, 1.1255812048329972, 1.14366127474932, 1.1621768856130075, 1.1755810341564938]
7	钥匙	False	inanimate	animate	left	0.922	[0.0, 0.0, 0.0, 0.0, 0.0, 0.0, 0.0, 0.0, 0.0, 0.0, 0.0, 0.0, 0.0, 0.0, 0.0, -6.0, -10.0, -14.0, -20.0, -30.0, -46.0, -68.0, -98.0, -169.0, -195.0, -265.0, -318.0, -371.0, -429.0, -492.0, -507.0, -539.0, -565.0, -581.0, -597.0, -615.0, -619.0, -634.0, -638.0, -638.0, -638.0, -638.0, -638.0, -638.0, -638.0, -640.0, -644.0, -653.0, -657.0, -672.0, -686.0, -697.0, -708.0, -713.0, -713.0, -713.0]	[-490.0, -490.0, -490.0, -490.0, -490.0, -490.0, -490.0, -490.0, -490.0, -490.0, -490.0, -490.0, -490.0, -490.0, -490.0, -490.0, -489.0, -487.0, -485.0, -480.0, -471.0, -460.0, -447.0, -416.0, -404.0, -368.0, -328.0, -263.0, -171.0, -84.0, -55.0, 6.0, 70.0, 130.0, 182.0, 240.0, 254.0, 280.0, 286.0, 287.0, 287.0, 287.0, 287.0, 287.0, 288.0, 296.0, 306.0, 320.0, 325.0, 342.0, 357.0, 368.0, 376.0, 380.0, 380.0, 380.0]	[0.013007519562961534, 0.017915206059115008, 0.023730838409392163, 0.042581979680107906, 0.05884069646708667, 0.07438466185703874, 0.09218040134874173, 0.109267874766374, 0.12397796355071478, 0.14262635295744985, 0.15891852040658705, 0.1744092378357891, 0.1923940758279059, 0.20924876010394655, 0.22407729146652855, 0.24260450765723363, 0.25926975210313685, 0.27439797384431586, 0.2947738498041872, 0.3092395441199187, 0.3267929371504579, 0.342613723652903, 0.360616993624717, 0.37439933919813484, 0.3936856800573878, 0.4092630961094983, 0.42694585435674526, 0.4424635370960459, 0.4641723185777664, 0.47417747270083055, 0.49351467221276835, 0.5092504667700268, 0.5253040424140636, 0.5423686465073843, 0.559592994482955, 0.5744938884454314, 0.5921442200487945, 0.6088203871331643, 0.6241472647234332, 0.6420515481149778, 0.6590724615962245, 0.6742740699555725, 0.6941229276999366, 0.7091456775378902, 0.7271646488225088, 0.7420860227721278, 0.7601517566654366, 0.7742737286316697, 0.7927405288792215, 0.8089695496892091, 0.8243397765618283, 0.8422430359642021, 0.8592260614677798, 0.8742293553368654, 0.8925562090298627, 0.9089685256767552]
8	岛屿	False	animate	inanimate	right	0.981	[0.0, 0.0, 0.0, 0.0, 0.0, 0.0, 0.0, 0.0, 0.0, 0.0, -1.0, -6.0, -15.0, -32.0, -63.0, -110.0, -203.0, -264.0, -324.0, -401.0, -469.0, -523.0, -569.0, -596.0, -619.0, -632.0, -640.0, -647.0, -663.0, -674.0, -680.0, -702.0, -720.0, -735.0, -742.0, -744.0, -744.0, -744.0, -744.0, -744.0, -744.0, -743.0, -739.0, -730.0, -722.0, -716.0, -711.0, -700.0, -653.0, -517.0, -312.0, -61.0, 346.0, 612.0, 728.0, 959.0, 959.0, 959.0, 959.0, 959.0]	[-490.0, -490.0, -490.0, -490.0, -490.0, -490.0, -490.0, -490.0, -490.0, -490.0, -488.0, -481.0, -468.0, -452.0, -426.0, -394.0, -326.0, -253.0, -146.0, -50.0, 26.0, 70.0, 103.0, 123.0, 142.0, 153.0, 158.0, 163.0, 174.0, 184.0, 190.0, 221.0, 246.0, 266.0, 278.0, 285.0, 294.0, 306.0, 320.0, 333.0, 346.0, 352.0, 360.0, 368.0, 377.0, 382.0, 385.0, 389.0, 395.0, 399.0, 399.0, 399.0, 399.0, 399.0, 399.0, 399.0, 399.0, 399.0, 399.0, 399.0]	[0.010921974666416645, 0.015976434340700507, 0.0225399274204392, 0.03799514623824507, 0.05822800361784175, 0.06970259649096988, 0.08765125318313949, 0.1042663216649089, 0.11958807928021997, 0.13766098118503578, 0.154239868366858, 0.16949711402412504, 0.18770723181660287, 0.2044718041724991, 0.21957783927791752, 0.23762548255035654, 0.25446002816897817, 0.26971624983707443, 0.2876573971880134, 0.30441923887701705, 0.3196102659276221, 0.3375002133252565, 0.3541057244874537, 0.36954046331811696, 0.3877212264633272, 0.40449057749356143, 0.41956930595915765, 0.43749816532363184, 0.4543047216429841, 0.46969781783991493, 0.48768606915837154, 0.5044639535190072, 0.5196034392574802, 0.537537418626016, 0.5541784284287132, 0.5695513859682251, 0.5876720745000057, 0.6044547375058755, 0.619585689943051, 0.6373903040657751, 0.6543409029545728, 0.6696947458549403, 0.6876137065410148, 0.7044622468529269, 0.7194488153909333, 0.7374456000397913, 0.754585297399899, 0.7696019032446202, 0.7878236263641156, 0.804109991149744, 0.8196788738423493, 0.8374496960313991, 0.8544965508044697, 0.8693462448136415, 0.8880373008432798, 0.9042864603106864, 0.9197048151690979, 0.9376227518660016, 0.9545743747439701, 0.9693322501552757]
9	铅笔	False	inanimate	animate	left	1.908	[0.0, 0.0, 0.0, 0.0, 0.0, 0.0, 0.0, 0.0, -3.0, -13.0, -24.0, -33.0, -36.0, -36.0, -36.0, -36.0, -36.0, -36.0, -36.0, -36.0, -36.0, -36.0, -36.0, -43.0, -57.0, -72.0, -101.0, -119.0, -164.0, -242.0, -317.0, -398.0, -432.0, -446.0, -477.0, -495.0, -510.0, -527.0, -542.0, -560.0, -576.0, -588.0, -596.0, -606.0, -611.0, -614.0, -620.0, -624.0, -629.0, -633.0, -637.0, -641.0, -642.0, -642.0, -642.0, -641.0, -638.0, -637.0, -634.0, -634.0, -634.0, -634.0, -634.0, -634.0, -634.0, -634.0, -634.0, -634.0, -634.0, -634.0, -634.0, -634.0, -634.0, -634.0, -634.0, -635.0, -651.0, -667.0, -687.0, -713.0, -724.0, -729.0, -740.0, -744.0, -746.0, -746.0, -746.0, -746.0, -746.0, -746.0, -746.0, -746.0, -746.0, -746.0, -746.0, -746.0, -746.0, -746.0, -746.0, -746.0, -746.0, -746.0, -746.0, -746.0, -746.0, -746.0, -746.0, -746.0, -746.0, -746.0, -746.0, -746.0, -746.0, -746.0, -746.0]	[-490.0, -490.0, -490.0, -490.0, -490.0, -490.0, -490.0, -490.0, -487.0, -481.0, -477.0, -472.0, -472.0, -472.0, -472.0, -472.0, -472.0, -472.0, -472.0, -472.0, -472.0, -472.0, -472.0, -463.0, -454.0, -438.0, -354.0, -319.0, -254.0, -143.0, -62.0, 6.0, 30.0, 40.0, 70.0, 91.0, 115.0, 133.0, 155.0, 180.0, 202.0, 222.0, 237.0, 253.0, 260.0, 263.0, 270.0, 275.0, 282.0, 291.0, 304.0, 317.0, 332.0, 340.0, 346.0, 353.0, 355.0, 357.0, 360.0, 360.0, 360.0, 360.0, 360.0, 360.0, 360.0, 360.0, 360.0, 360.0, 360.0, 360.0, 360.0, 360.0, 360.0, 360.0, 360.0, 364.0, 380.0, 391.0, 400.0, 412.0, 416.0, 419.0, 423.0, 426.0, 427.0, 427.0, 427.0, 427.0, 427.0, 427.0, 427.0, 427.0, 427.0, 427.0, 427.0, 427.0, 427.0, 427.0, 427.0, 427.0, 427.0, 427.0, 427.0, 427.0, 427.0, 427.0, 427.0, 427.0, 427.0, 427.0, 427.0, 427.0, 427.0, 427.0, 427.0]	[0.0007362553733401, 0.010489164385944605, 0.016473415278596804, 0.034937484859256074, 0.051818793115671724, 0.06658656717627309, 0.0852687485748902, 0.10153565736254677, 0.11690417758654803, 0.13506241273717023, 0.15191334235714749, 0.1668394949811045, 0.18517488197539933, 0.2043601882760413, 0.21689837492886, 0.23762616523890756, 0.25185395040898584, 0.26659510051831603, 0.28526260459329933, 0.3038772020372562, 0.31690724956570193, 0.33637142495717853, 0.3519102703721728, 0.36778089150902815, 0.38521072195726447, 0.40609757346101105, 0.4167655963683501, 0.4349344128568191, 0.45152661204338074, 0.46686475360183977, 0.4848523222608492, 0.5015909533249214, 0.516920561552979, 0.5347903703222983, 0.5514812147303019, 0.5668534896103665, 0.5848417409288231, 0.6022333420987707, 0.6168280603014864, 0.6351238526985981, 0.6516003399738111, 0.6670012868416961, 0.6849670101655647, 0.7018237424490508, 0.716840348293772, 0.7350545621011406, 0.7515511880046688, 0.7669347268820275, 0.7848594902607147, 0.8017455771914683, 0.8168079216557089, 0.8350989353784826, 0.8515511880104896, 0.8668992282473482, 0.8846901890647132, 0.9018121371336747, 0.9166061938449275, 0.9351132713782135, 0.9515580146689899, 0.9668309616390616, 0.9847154477029108, 1.0017534278449602, 1.016785735002486, 1.035210551286582, 1.051577812002506, 1.0669811481784564, 1.0847069143783301, 1.1018343237810768, 1.1165962951781694, 1.135110199364135, 1.1515658653224818, 1.1670108441612683, 1.1846618584240787, 1.2016684359114151, 1.2165969778434373, 1.2351112233882304, 1.2512675402686, 1.2669514522131067, 1.2846901890588924, 1.3016670705692377, 1.316573767195223, 1.3350443220988382, 1.351294164225692, 1.3667446043691598, 1.384600759804016, 1.4016954012331553, 1.4165642098814715, 1.4352470739395358, 1.451318057544995, 1.466896838916, 1.4875433919660281, 1.501776979828719, 1.516668657772243, 1.5352504872716963, 1.5539681672817096, 1.5669719321886078, 1.5872669121890794, 1.6018408091040328, 1.6167901723529212, 1.6351863166491967, 1.654050087206997, 1.6668879642675165, 1.6870662083674688, 1.7019203396921512, 1.7167669617047068, 1.735162423341535, 1.7536947595071979, 1.7669514522131067, 1.7903365202364512, 1.8017295345198363, 1.8176752489234786, 1.8350224767928012, 1.8521225795266218, 1.8670449774654116, 1.8849536981724668]
10	乌龟	True	animate	inanimate	left	1.014	[0.0, 0.0, 0.0, 0.0, 0.0, 0.0, 0.0, 0.0, 0.0, 0.0, 0.0, 0.0, 0.0, 0.0, 0.0, 0.0, 0.0, 0.0, 0.0, 0.0, 0.0, 0.0, -1.0, -13.0, -35.0, -131.0, -175.0, -250.0, -306.0, -356.0, -371.0, -424.0, -447.0, -455.0, -461.0, -469.0, -481.0, -494.0, -515.0, -538.0, -574.0, -594.0, -601.0, -614.0, -620.0, -628.0, -636.0, -646.0, -656.0, -665.0, -675.0, -683.0, -690.0, -696.0, -697.0, -697.0, -697.0, -697.0, -697.0, -697.0, -697.0]	[-490.0, -490.0, -490.0, -490.0, -490.0, -490.0, -490.0, -490.0, -490.0, -490.0, -490.0, -490.0, -490.0, -490.0, -490.0, -490.0, -490.0, -490.0, -490.0, -490.0, -490.0, -490.0, -490.0, -477.0, -450.0, -314.0, -237.0, -93.0, 3.0, 72.0, 88.0, 124.0, 136.0, 141.0, 149.0, 165.0, 185.0, 209.0, 246.0, 293.0, 354.0, 385.0, 393.0, 414.0, 426.0, 438.0, 447.0, 460.0, 467.0, 476.0, 483.0, 489.0, 493.0, 498.0, 498.0, 498.0, 498.0, 498.0, 498.0, 498.0, 498.0]	[0.009125197539106011, 0.014137331920210272, 0.020297369337640703, 0.03351719805505127, 0.0511002870334778, 0.06529018425499089, 0.08393311235704459, 0.10006894925027154, 0.11579313850961626, 0.1333352675428614, 0.15046267691650428, 0.16527414161828347, 0.18398328832699917, 0.20009864523308352, 0.21548662142595276, 0.23326563558657654, 0.24980834146845154, 0.2650246271514334, 0.28505405006580986, 0.30000887464848347, 0.31797186730545945, 0.3333646221726667, 0.35240964058903046, 0.36527072827448137, 0.3854486310738139, 0.3998300161329098, 0.4179657233180478, 0.43317279301118106, 0.4513928094529547, 0.4650662697968073, 0.4846280664205551, 0.49983377079479396, 0.516382961999625, 0.5330714170995634, 0.5501923411502503, 0.5648027606948745, 0.5833279288781341, 0.5996258989616763, 0.615155528386822, 0.6330775610986166, 0.650059903942747, 0.6649597738869488, 0.6833344142069109, 0.6997634561848827, 0.7151879550074227, 0.7331004303996451, 0.7501619624963496, 0.764925640571164, 0.7833214435377158, 0.7995750403497368, 0.8151988776808139, 0.8329761851637159, 0.8502278397791088, 0.8650386218214408, 0.8833262222178746, 0.899521451065084, 0.9151678163616452, 0.932878222578438, 0.9500452266074717, 0.9647846700390801, 0.9833357795432676]
11	窗户	False	inanimate	animate	left	1.083	[0.0, 0.0, 0.0, 0.0, 0.0, 0.0, -10.0, -32.0, -36.0, -36.0, -36.0, -36.0, -36.0, -36.0, -36.0, -36.0, -36.0, -36.0, -36.0, -34.0, -20.0, -17.0, -17.0, -17.0, -17.0, -25.0, -50.0, -82.0, -111.0, -141.0, -188.0, -285.0, -334.0, -356.0, -411.0, -444.0, -470.0, -485.0, -492.0, -503.0, -503.0, -520.0, -531.0, -552.0, -570.0, -584.0, -596.0, -607.0, -613.0, -617.0, -621.0, -622.0, -624.0, -624.0, -624.0, -624.0, -624.0, -624.0, -624.0, -637.0, -662.0, -697.0, -727.0, -740.0, -741.0, -741.0]	[-490.0, -490.0, -490.0, -490.0, -490.0, -490.0, -488.0, -483.0, -478.0, -478.0, -478.0, -478.0, -478.0, -478.0, -478.0, -478.0, -478.0, -478.0, -478.0, -478.0, -477.0, -476.0, -476.0, -473.0, -470.0, -465.0, -456.0, -447.0, -436.0, -425.0, -408.0, -381.0, -369.0, -361.0, -345.0, -335.0, -328.0, -319.0, -296.0, -221.0, 65.0, 177.0, 210.0, 278.0, 317.0, 342.0, 360.0, 379.0, 392.0, 402.0, 413.0, 419.0, 422.0, 422.0, 422.0, 422.0, 422.0, 422.0, 422.0, 424.0, 424.0, 428.0, 433.0, 437.0, 437.0, 437.0]	[0.012659359868848696, 0.019636889919638634, 0.025690431415569037, 0.04200785749708302, 0.058568312699208036, 0.07394843822112307, 0.09186910561402328, 0.10864596595638432, 0.12368783046258613, 0.14169656173908152, 0.1585812833509408, 0.17394297689315863, 0.19185306294821203, 0.20853469139547087, 0.22350965460645966, 0.24166618310846388, 0.2587676511902828, 0.27375524371745996, 0.2921141827246174, 0.3085060194134712, 0.32386156896245666, 0.3418747376126703, 0.3586888032441493, 0.3736019851930905, 0.39190631089149974, 0.40834149689180776, 0.4237567797244992, 0.4416760817694012, 0.4587082592479419, 0.47339650269714184, 0.4920025668106973, 0.5082684516091831, 0.5237741877208464, 0.5416235164739192, 0.558549880690407, 0.5733988920401316, 0.5920411374536343, 0.6083206755574793, 0.6237434677314013, 0.6417013404134195, 0.6587082592304796, 0.6734425826580264, 0.6920861934195273, 0.7082582116127014, 0.7237502943899017, 0.7417242097144481, 0.7586188299756031, 0.7734582839766517, 0.7921135000651702, 0.8082169103145134, 0.8237485877471045, 0.8418016923242249, 0.8586369206313975, 0.8763285535387695, 0.892038406804204, 0.9138871348113753, 0.9235717772098724, 0.9433325710124336, 0.9586597899324261, 0.9747840215277392, 0.9918834416021127, 1.0093648133333772, 1.0237881823559292, 1.042826715449337, 1.058541688718833, 1.0759503565204795]
12	沙发	False	animate	inanimate	right	2.565	[0.0, 0.0, 0.0, 0.0, 0.0, 0.0, 0.0, 0.0, 0.0, 0.0, -10.0, -31.0, -49.0, -73.0, -74.0, -74.0, -74.0, -74.0, -74.0, -74.0, -74.0, -74.0, -74.0, -74.0, -74.0, -74.0, -69.0, -67.0, -67.0, -74.0, -78.0, -89.0, -104.0, -122.0, -142.0, -189.0, -209.0, -253.0, -315.0, -379.0, -442.0, -489.0, -529.0, -573.0, -601.0, -609.0, -631.0, -644.0, -651.0, -659.0, -666.0, -676.0, -684.0, -691.0, -694.0, -698.0, -702.0, -703.0, -709.0, -712.0, -715.0, -715.0, -716.0, -717.0, -717.0, -717.0, -717.0, -717.0, -717.0, -717.0, -717.0, -717.0, -717.0, -717.0, -717.0, -717.0, -717.0, -717.0, -717.0, -717.0, -717.0, -717.0, -717.0, -717.0, -717.0, -717.0, -717.0, -717.0, -717.0, -717.0, -717.0, -717.0, -717.0, -717.0, -717.0, -717.0, -717.0, -717.0, -717.0, -717.0, -717.0, -717.0, -717.0, -717.0, -717.0, -717.0, -717.0, -717.0, -717.0, -717.0, -717.0, -717.0, -717.0, -717.0, -717.0, -717.0, -717.0, -717.0, -717.0, -717.0, -717.0, -717.0, -717.0, -717.0, -717.0, -717.0, -717.0, -717.0, -717.0, -717.0, -717.0, -717.0, -717.0, -717.0, -717.0, -717.0, -717.0, -717.0, -717.0, -717.0, -717.0, -717.0, -562.0, -354.0, -85.0, 230.0, 540.0, 809.0, 959.0, 959.0, 959.0, 959.0, 959.0, 959.0, 959.0]	[-490.0, -490.0, -490.0, -490.0, -490.0, -490.0, -490.0, -490.0, -490.0, -490.0, -484.0, -473.0, -462.0, -454.0, -454.0, -454.0, -454.0, -454.0, -454.0, -454.0, -454.0, -454.0, -454.0, -454.0, -454.0, -455.0, -455.0, -455.0, -457.0, -454.0, -452.0, -442.0, -432.0, -419.0, -404.0, -371.0, -354.0, -281.0, -171.0, -69.0, 6.0, 57.0, 99.0, 160.0, 199.0, 209.0, 233.0, 246.0, 256.0, 267.0, 279.0, 294.0, 309.0, 321.0, 327.0, 334.0, 342.0, 347.0, 360.0, 368.0, 375.0, 377.0, 379.0, 381.0, 382.0, 382.0, 382.0, 382.0, 382.0, 382.0, 382.0, 382.0, 382.0, 382.0, 382.0, 382.0, 382.0, 382.0, 382.0, 382.0, 382.0, 382.0, 382.0, 382.0, 382.0, 382.0, 382.0, 382.0, 382.0, 382.0, 382.0, 382.0, 382.0, 382.0, 382.0, 382.0, 382.0, 382.0, 382.0, 382.0, 382.0, 382.0, 382.0, 382.0, 382.0, 382.0, 382.0, 382.0, 382.0, 382.0, 382.0, 382.0, 382.0, 382.0, 382.0, 382.0, 382.0, 382.0, 382.0, 382.0, 382.0, 382.0, 382.0, 382.0, 382.0, 382.0, 382.0, 382.0, 382.0, 382.0, 382.0, 382.0, 382.0, 382.0, 382.0, 382.0, 382.0, 382.0, 382.0, 382.0, 383.0, 383.0, 385.0, 385.0, 385.0, 385.0, 385.0, 385.0, 385.0, 385.0, 391.0, 393.0, 393.0, 393.0, 393.0]	[0.007747236057184637, 0.012252149550477043, 0.016823281650431454, 0.032557710888795555, 0.04908232612069696, 0.06429417445906438, 0.08227867112145759, 0.09925316329463385, 0.11414893725304864, 0.1325382548966445, 0.1489649075374473, 0.16430236646556295, 0.18207626062212512, 0.19915895539452322, 0.2139769054192584, 0.23250378025113605, 0.24883895565290004, 0.2642914438038133, 0.2821383832488209, 0.2991596380597912, 0.31393321478390135, 0.33254678823868744, 0.3489492062362842, 0.36428666513529606, 0.3846058798080776, 0.39925213929382153, 0.4139803187281359, 0.43250480425194837, 0.4512064416485373, 0.46434298509848304, 0.4827476627251599, 0.4992545286368113, 0.5168553669645917, 0.5326184681616724, 0.5544859695073683, 0.5640197427128442, 0.5831262010615319, 0.59902856615372, 0.6166454471240286, 0.6324730602791533, 0.6494110298517626, 0.664322505122982, 0.6826797374524176, 0.6990159368433524, 0.7140035293996334, 0.7320252313511446, 0.7489393075811677, 0.7642576518410351, 0.7820090180321131, 0.7987473077373579, 0.8141888732207008, 0.8320914499636274, 0.8489038089464884, 0.8643416197737679, 0.8822667244821787, 0.8989039795997087, 0.9140769160003401, 0.9320074820134323, 0.9486730677890591, 0.9640252040408086, 0.98216466588201, 0.9989773661945947, 1.014061555993976, 1.0320651672955137, 1.0489171209337655, 1.0641992838936858, 1.0822189378377516, 1.0989562035538256, 1.1139284361270256, 1.1319873433676548, 1.149263915285701, 1.1641480839170981, 1.1824752789689228, 1.1988923742901534, 1.2142793264938518, 1.231984612706583, 1.2492000860220287, 1.2641330652695615, 1.2824821056274232, 1.2988739422871731, 1.314324382430641, 1.3321658605418634, 1.3492383153061382, 1.3639115401310846, 1.3824800576257985, 1.398836737003876, 1.4142404145095497, 1.4322057965327986, 1.4491553714033216, 1.4642026972142048, 1.4824462656397372, 1.4988520969927777, 1.5143342810915783, 1.5322092098358553, 1.5491567367280368, 1.5641955292085186, 1.5824380736448802, 1.5988828169647604, 1.6142339291982353, 1.6319665220507886, 1.6490662834548857, 1.66388662281679, 1.6823612737061922, 1.6986326198384631, 1.7143465690896846, 1.731960378063377, 1.7491273820924107, 1.7638934494752903, 1.7824759616341908, 1.798688257113099, 1.8140673586749472, 1.8320327406690922, 1.8491420593927614, 1.8641842652286869, 1.882409401674522, 1.9009308152017184, 1.914266014500754, 1.9336308619822375, 1.9491652700526174, 1.9648228993464727, 1.9823759510472883, 1.9989329929230735, 2.0142482651863247, 2.032231055170996, 2.048866603639908, 2.064110195962712, 2.0820759192865808, 2.098910464934306, 2.114318238454871, 2.132063119293889, 2.1488392970059067, 2.1638862814870663, 2.1819683993817307, 2.199346688546939, 2.2138734814943746, 2.2325075349363033, 2.249015083507402, 2.2642242012079805, 2.2822220098460093, 2.299242923327256, 2.3141711239004508, 2.3323805590334814, 2.3486792118055746, 2.3642542384914123, 2.3823131457611453, 2.3991947953472845, 2.413965641404502, 2.432482617616188, 2.4489908488758374, 2.464246046525659, 2.4823281644203234, 2.499235413997667, 2.514105246635154, 2.5326293908292428, 2.5488468063122127]
13	电脑	False	inanimate	animate	left	0.879	[0.0, 0.0, 0.0, 0.0, 0.0, 0.0, 0.0, 0.0, 0.0, 0.0, 0.0, 0.0, 0.0, 0.0, -6.0, -23.0, -64.0, -133.0, -207.0, -279.0, -398.0, -443.0, -569.0, -632.0, -676.0, -715.0, -746.0, -767.0, -784.0, -799.0, -812.0, -825.0, -846.0, -851.0, -861.0, -862.0, -863.0, -863.0, -863.0, -863.0, -863.0, -863.0, -863.0, -863.0, -863.0, -861.0, -856.0, -847.0, -837.0, -831.0, -827.0, -827.0, -827.0, -827.0]	[-490.0, -490.0, -490.0, -490.0, -490.0, -490.0, -490.0, -490.0, -490.0, -490.0, -490.0, -490.0, -490.0, -489.0, -476.0, -461.0, -438.0, -400.0, -333.0, -213.0, -47.0, 16.0, 177.0, 240.0, 291.0, 334.0, 370.0, 393.0, 414.0, 434.0, 452.0, 468.0, 492.0, 498.0, 510.0, 511.0, 512.0, 512.0, 512.0, 512.0, 512.0, 512.0, 512.0, 512.0, 511.0, 510.0, 498.0, 485.0, 472.0, 462.0, 457.0, 457.0, 457.0, 457.0]	[0.009992183448048308, 0.017639067576965317, 0.023660523787839338, 0.0367895579256583, 0.0534363703627605, 0.06878611727734096, 0.08670098197762854, 0.10330888247699477, 0.11833299766294658, 0.136503862158861, 0.15356846625218168, 0.1685922401084099, 0.18698019240400754, 0.20335701043950394, 0.21861835208255798, 0.23651000615791418, 0.25358723956742324, 0.26862193609122187, 0.28677436857833527, 0.3032825998379849, 0.31866784536396153, 0.33664722202229314, 0.3534629943605978, 0.368490864202613, 0.38682795787462965, 0.4030218214029446, 0.4187200693413615, 0.43634445962379687, 0.45347801299067214, 0.46829528035596013, 0.4867426246055402, 0.5030023654107936, 0.5185913867608178, 0.5362598090432584, 0.5534500236972235, 0.5682420324010309, 0.5867883632599842, 0.6030730213387869, 0.618586949451128, 0.6395553795446176, 0.6534449036989827, 0.6684062136046123, 0.6868556058616377, 0.7053227474389132, 0.7186610187054612, 0.7390703452983871, 0.7534674316702876, 0.768379589630058, 0.7868037232256029, 0.8048882304574363, 0.8187777546118014, 0.8419638254854362, 0.8533687864255626, 0.8689410824736115]
14	蝴蝶	True	inanimate	animate	right	1.515	[0.0, 0.0, 0.0, 0.0, 0.0, 0.0, 0.0, 0.0, 0.0, 0.0, 0.0, 0.0, 0.0, 0.0, 0.0, 0.0, 0.0, 0.0, 0.0, 0.0, 0.0, 0.0, -7.0, -46.0, -70.0, -188.0, -284.0, -376.0, -460.0, -540.0, -623.0, -722.0, -738.0, -756.0, -769.0, -784.0, -786.0, -791.0, -796.0, -801.0, -808.0, -811.0, -815.0, -820.0, -820.0, -820.0, -820.0, -817.0, -816.0, -815.0, -815.0, -815.0, -815.0, -815.0, -815.0, -815.0, -815.0, -815.0, -815.0, -815.0, -815.0, -815.0, -815.0, -815.0, -815.0, -815.0, -815.0, -815.0, -815.0, -815.0, -815.0, -815.0, -815.0, -815.0, -815.0, -815.0, -815.0, -815.0, -815.0, -807.0, -740.0, -600.0, -392.0, 15.0, 160.0, 556.0, 767.0, 921.0, 959.0, 959.0, 959.0, 959.0]	[-490.0, -490.0, -490.0, -490.0, -490.0, -490.0, -490.0, -490.0, -490.0, -490.0, -490.0, -490.0, -490.0, -490.0, -490.0, -490.0, -490.0, -490.0, -490.0, -490.0, -490.0, -490.0, -491.0, -470.0, -455.0, -395.0, -347.0, -285.0, -193.0, -82.0, 40.0, 172.0, 194.0, 219.0, 239.0, 269.0, 275.0, 294.0, 304.0, 315.0, 330.0, 344.0, 361.0, 385.0, 388.0, 394.0, 400.0, 408.0, 413.0, 415.0, 415.0, 415.0, 415.0, 415.0, 415.0, 415.0, 415.0, 415.0, 415.0, 415.0, 415.0, 415.0, 415.0, 415.0, 415.0, 415.0, 415.0, 415.0, 415.0, 415.0, 415.0, 415.0, 415.0, 415.0, 415.0, 415.0, 415.0, 415.0, 415.0, 415.0, 414.0, 402.0, 400.0, 395.0, 395.0, 395.0, 398.0, 418.0, 428.0, 431.0, 432.0, 432.0]	[0.01142612358671613, 0.01605118630686775, 0.020952387450961396, 0.03967894212109968, 0.056216869357740507, 0.07150415232172236, 0.08958285689004697, 0.10634026123443618, 0.12110632864641957, 0.13963934750063345, 0.15599841621587984, 0.17144168834784068, 0.18926473447936587, 0.20633036259096116, 0.22107185400091112, 0.23968713413341902, 0.2559656482480932, 0.27148333098739386, 0.28931115579325706, 0.30641398919397034, 0.3210285047243815, 0.33964651549467817, 0.35594687491538934, 0.3712519071996212, 0.3893664517381694, 0.4063064692891203, 0.42108414199901745, 0.43967348081059754, 0.4559909068921115, 0.4715157576429192, 0.4896101635240484, 0.5062225013389252, 0.5212814325059298, 0.5395618648908567, 0.5582242489617784, 0.5714433950197417, 0.5913755380315706, 0.6062583413149696, 0.6239079902588855, 0.6397134167782497, 0.6572040044993628, 0.6716396615374833, 0.6943970181164332, 0.7061750560533255, 0.7240247261652257, 0.7395744942186866, 0.7567729008733295, 0.7714628510002512, 0.7902522109798156, 0.8063228532555513, 0.8214264990529045, 0.8391956145351287, 0.856234618666349, 0.8711723765882198, 0.8915523485338781, 0.90604671483743, 0.9215667869138997, 0.9394256730156485, 0.9574251883313991, 0.9713051551370881, 0.9903245735913515, 1.006020773522323, 1.0220542105089407, 1.0393997317005415, 1.0563148319488391, 1.071343043120578, 1.089642590173753, 1.1060374988301191, 1.1214166003919672, 1.1393720837368164, 1.1563353119126987, 1.1712826271541417, 1.1896091395174153, 1.2060177015373483, 1.2214858910010662, 1.2393714010540862, 1.2562725066381972, 1.2712932084978092, 1.2896272301732097, 1.306006437545875, 1.321427864371799, 1.3393632090592291, 1.3563093706034124, 1.3710491553647444, 1.3895224409352522, 1.4058221176965162, 1.4214916936471127, 1.4395700568857137, 1.4562963999633212, 1.4711686219379772, 1.489747720741434, 1.5060456908249762]
15	电线	False	inanimate	animate	left	0.828	[0.0, 0.0, 0.0, 0.0, 0.0, 0.0, 0.0, 0.0, 0.0, 0.0, 0.0, 0.0, 0.0, 0.0, 0.0, 0.0, 0.0, 0.0, 0.0, 0.0, 0.0, -1.0, -10.0, -25.0, -51.0, -102.0, -171.0, -251.0, -374.0, -445.0, -515.0, -578.0, -649.0, -721.0, -772.0, -799.0, -815.0, -823.0, -829.0, -830.0, -835.0, -839.0, -846.0, -851.0, -856.0, -856.0, -856.0, -856.0, -856.0, -856.0]	[-490.0, -490.0, -490.0, -490.0, -490.0, -490.0, -490.0, -490.0, -490.0, -490.0, -490.0, -490.0, -490.0, -490.0, -490.0, -490.0, -490.0, -490.0, -490.0, -490.0, -490.0, -490.0, -485.0, -477.0, -458.0, -412.0, -355.0, -261.0, -152.0, -96.0, -37.0, 22.0, 102.0, 181.0, 221.0, 240.0, 257.0, 269.0, 280.0, 290.0, 307.0, 324.0, 347.0, 368.0, 385.0, 391.0, 395.0, 397.0, 399.0, 399.0]	[0.015793479862622917, 0.020568387786624953, 0.030323344777571037, 0.047075629147002473, 0.06478262203745544, 0.07885032205376774, 0.09825066814664751, 0.11370554563472979, 0.12990964914206415, 0.1468786799814552, 0.1640972252935171, 0.1788547593750991, 0.19692322396440431, 0.2134553485084325, 0.22863647690974176, 0.24664623220451176, 0.2636661216674838, 0.27864518089336343, 0.2984295266796835, 0.3133911779150367, 0.3292751110275276, 0.3467254214629065, 0.36417061189422384, 0.3786390369059518, 0.39696623192867264, 0.41350142846931703, 0.4287426314840559, 0.44676672274363227, 0.46360468171769753, 0.47865473822457716, 0.4969815919175744, 0.5133689912618138, 0.5287419488013256, 0.546874925319571, 0.5636500790133141, 0.5783448078145739, 0.5969112773018423, 0.6131440527678933, 0.6287583327793982, 0.6465653362683952, 0.6635384631226771, 0.6786857995321043, 0.6968665626773145, 0.7131860367371701, 0.7287153248325922, 0.7464503070223145, 0.7635780577547848, 0.7783601678092964, 0.7969433625985403, 0.8130928528262302]
16	蚯蚓	True	animate	inanimate	left	3.13	[0.0, 0.0, 0.0, 0.0, 0.0, 0.0, 0.0, 0.0, 0.0, 0.0, 0.0, 0.0, 0.0, 0.0, 0.0, 0.0, 0.0, 0.0, 0.0, 0.0, 0.0, 0.0, -8.0, -25.0, -53.0, -104.0, -166.0, -236.0, -305.0, -417.0, -450.0, -547.0, -604.0, -642.0, -666.0, -684.0, -694.0, -702.0, -707.0, -717.0, -743.0, -761.0, -763.0, -773.0, -779.0, -784.0, -785.0, -787.0, -788.0, -789.0, -790.0, -792.0, -792.0, -792.0, -792.0, -792.0, -792.0, -792.0, -792.0, -792.0, -792.0, -792.0, -792.0, -792.0, -792.0, -792.0, -792.0, -792.0, -792.0, -792.0, -792.0, -792.0, -792.0, -792.0, -792.0, -792.0, -792.0, -792.0, -792.0, -792.0, -792.0, -792.0, -792.0, -792.0, -792.0, -792.0, -792.0, -792.0, -792.0, -792.0, -792.0, -792.0, -792.0, -792.0, -792.0, -792.0, -792.0, -792.0, -792.0, -792.0, -792.0, -792.0, -792.0, -792.0, -792.0, -792.0, -792.0, -792.0, -792.0, -792.0, -792.0, -792.0, -792.0, -792.0, -792.0, -792.0, -792.0, -792.0, -792.0, -792.0, -792.0, -792.0, -792.0, -792.0, -792.0, -792.0, -792.0, -792.0, -792.0, -792.0, -792.0, -792.0, -792.0, -792.0, -792.0, -792.0, -792.0, -792.0, -792.0, -792.0, -792.0, -792.0, -792.0, -792.0, -792.0, -792.0, -792.0, -792.0, -792.0, -792.0, -792.0, -792.0, -792.0, -792.0, -792.0, -792.0, -792.0, -792.0, -792.0, -792.0, -792.0, -792.0, -792.0, -792.0, -792.0, -792.0, -792.0, -792.0, -792.0, -792.0, -792.0, -792.0, -792.0, -792.0, -792.0, -792.0, -792.0, -792.0, -792.0, -792.0, -792.0, -792.0, -792.0, -792.0, -792.0, -792.0, -792.0, -792.0, -792.0]	[-490.0, -490.0, -490.0, -490.0, -490.0, -490.0, -490.0, -490.0, -490.0, -490.0, -490.0, -490.0, -490.0, -490.0, -490.0, -490.0, -490.0, -490.0, -490.0, -490.0, -490.0, -490.0, -487.0, -478.0, -462.0, -441.0, -414.0, -385.0, -347.0, -277.0, -256.0, -152.0, -75.0, -27.0, 6.0, 31.0, 53.0, 74.0, 96.0, 127.0, 188.0, 238.0, 245.0, 279.0, 304.0, 322.0, 334.0, 343.0, 351.0, 361.0, 371.0, 382.0, 388.0, 391.0, 394.0, 394.0, 394.0, 394.0, 394.0, 394.0, 394.0, 394.0, 394.0, 394.0, 394.0, 394.0, 394.0, 394.0, 394.0, 394.0, 394.0, 394.0, 394.0, 394.0, 394.0, 394.0, 394.0, 394.0, 394.0, 394.0, 394.0, 394.0, 394.0, 394.0, 394.0, 394.0, 394.0, 394.0, 394.0, 394.0, 394.0, 394.0, 394.0, 394.0, 394.0, 394.0, 394.0, 394.0, 394.0, 394.0, 394.0, 394.0, 394.0, 394.0, 394.0, 394.0, 394.0, 394.0, 394.0, 394.0, 394.0, 394.0, 394.0, 394.0, 394.0, 394.0, 394.0, 394.0, 394.0, 394.0, 394.0, 394.0, 394.0, 394.0, 394.0, 394.0, 394.0, 394.0, 394.0, 394.0, 394.0, 394.0, 394.0, 394.0, 394.0, 394.0, 394.0, 394.0, 394.0, 394.0, 394.0, 394.0, 394.0, 394.0, 394.0, 394.0, 394.0, 394.0, 394.0, 394.0, 394.0, 394.0, 394.0, 394.0, 394.0, 394.0, 394.0, 394.0, 394.0, 394.0, 394.0, 394.0, 394.0, 394.0, 394.0, 394.0, 394.0, 394.0, 394.0, 394.0, 394.0, 394.0, 394.0, 394.0, 394.0, 394.0, 394.0, 394.0, 394.0, 394.0, 394.0, 394.0, 394.0, 394.0, 394.0, 394.0, 394.0, 394.0, 394.0]	[0.008092323783785105, 0.012719775812001899, 0.01716973469592631, 0.03323764630476944, 0.04950250711408444, 0.06496694189263508, 0.08279135337215848, 0.09985493347630836, 0.11454249426606111, 0.13324515565182082, 0.14947793111787178, 0.16490106462151743, 0.18283709199749865, 0.19985834680846892, 0.21459096355829388, 0.23320419568335637, 0.24942707250011154, 0.2647952513943892, 0.2828944359498564, 0.29992115206550807, 0.31461861153366044, 0.33324174230801873, 0.3497008215927053, 0.36485498465481214, 0.3830422331520822, 0.39992012808215804, 0.414681758149527, 0.4331557263794821, 0.45237687265034765, 0.4648065153742209, 0.485055074095726, 0.4997685762064066, 0.5176032276649494, 0.5331622117082588, 0.5503415037237573, 0.5649997098662425, 0.5832030010060407, 0.5998163628391922, 0.6147472940792795, 0.6326488468039315, 0.6516648519318551, 0.664831091358792, 0.6844543279439677, 0.6994996057765093, 0.7160870262887329, 0.7328949479269795, 0.7506452901288867, 0.7648529366706498, 0.7835470647260081, 0.799591765680816, 0.8150831657985691, 0.8326717161398847, 0.8497557762311772, 0.8646249262092169, 0.8831589690526016, 0.8995142830826808, 0.914970867219381, 0.9328768572886474, 0.9498475948057603, 0.9648689793248195, 0.9831159610766917, 0.9995729923830368, 1.0149435605853796, 1.0329468305571936, 1.049776597530581, 1.064620488876244, 1.083133369073039, 1.099547733727377, 1.1149889578809962, 1.1328509159793612, 1.1498680747754406, 1.1646751021617092, 1.1831248357484583, 1.1995576323824935, 1.2149346859368961, 1.2328870972851291, 1.2498325761407614, 1.264858398004435, 1.283157262369059, 1.2993538565642666, 1.314950728585245, 1.3327195027668495, 1.3498656854499131, 1.3646382381848525, 1.383005369163584, 1.39933883791673, 1.4149510699207895, 1.4326679614605382, 1.4497656748862937, 1.4645873795670923, 1.483083534432808, 1.499341909890063, 1.5150080725434236, 1.5326597694656812, 1.5497670402110089, 1.5646262915397529, 1.583162382390583, 1.599386965855956, 1.6148845099669416, 1.6330239718372468, 1.6497728428803384, 1.6646798808069434, 1.6830760251032189, 1.7015817373176105, 1.7150364031840581, 1.7354593830823433, 1.7498124375124462, 1.7676662036101334, 1.7832439609628636, 1.8015629640140105, 1.814930589927826, 1.8354996603738982, 1.8498008321912494, 1.8673146305663977, 1.8831483877147548, 1.9011291297210846, 1.9149913472065236, 1.9342848560772836, 1.949839744134806, 1.9663124767539557, 1.9830053691694047, 2.000522239570273, 2.0150316245271824, 2.033083705115132, 2.0496875095996074, 2.064946120575769, 2.0826937321107835, 2.0994606938038487, 2.1149804245505948, 2.1329133799299598, 2.1497963948349934, 2.164690803474514, 2.182633998832898, 2.1999320747272577, 2.214780744718155, 2.2332256996596698, 2.24949294977705, 2.2649485099245794, 2.282882830622839, 2.299883264116943, 2.3148694913252257, 2.3330867771001067, 2.3495141124294605, 2.3649724032438826, 2.3828603026340716, 2.3997631148668006, 2.414873928646557, 2.4331465103896335, 2.449601493688533, 2.4649563605780713, 2.4828947772621177, 2.4998429868137464, 2.514636360865552, 2.5330908730975352, 2.549406933860155, 2.564949875260936, 2.582644921494648, 2.5997764268540777, 2.6145431769255083, 2.633138659730321, 2.649308971274877, 2.665011997858528, 2.6826725694700144, 2.699654229625594, 2.714539080945542, 2.733109987748321, 2.7493222832563333, 2.7650413525116164, 2.78268827078864, 2.799759018875193, 2.8145749208924826, 2.8330495718109887, 2.849416832497809, 2.864831432700157, 2.8826834921201225, 2.8997187415952794, 2.9145851609064266, 2.9332045369956177, 2.9493629018834326, 2.964921885955846, 2.982775652053533, 2.999846400140086, 3.014829214022029, 3.0332523236284032, 3.0516348146193195, 3.0649235926102847, 3.08481341029983, 3.0999696213693824, 3.1147206701280084]
17	家庭	True	inanimate	animate	right	3.723	[0.0, 0.0, 0.0, 0.0, 0.0, 0.0, 0.0, 0.0, 0.0, 0.0, -2.0, -3.0, -5.0, -8.0, -16.0, -26.0, -43.0, -71.0, -112.0, -157.0, -228.0, -257.0, -379.0, -460.0, -516.0, -552.0, -576.0, -599.0, -612.0, -622.0, -626.0, -632.0, -635.0, -645.0, -652.0, -655.0, -660.0, -673.0, -678.0, -688.0, -698.0, -701.0, -702.0, -702.0, -702.0, -702.0, -682.0, -609.0, -479.0, -286.0, -45.0, 197.0, 443.0, 648.0, 796.0, 907.0, 959.0, 959.0, 959.0, 959.0, 959.0, 959.0, 959.0, 959.0, 959.0, 959.0, 959.0, 959.0, 959.0, 959.0, 959.0, 959.0, 959.0, 959.0, 959.0, 959.0, 959.0, 959.0, 959.0, 959.0, 959.0, 959.0, 959.0, 959.0, 959.0, 959.0, 959.0, 959.0, 959.0, 959.0, 959.0, 959.0, 959.0, 959.0, 959.0, 959.0, 959.0, 959.0, 959.0, 959.0, 959.0, 959.0, 959.0, 959.0, 959.0, 959.0, 959.0, 959.0, 959.0, 959.0, 959.0, 959.0, 959.0, 959.0, 959.0, 959.0, 959.0, 959.0, 959.0, 959.0, 959.0, 959.0, 959.0, 959.0, 959.0, 959.0, 959.0, 959.0, 959.0, 959.0, 959.0, 959.0, 959.0, 959.0, 959.0, 959.0, 959.0, 959.0, 959.0, 959.0, 959.0, 959.0, 959.0, 959.0, 959.0, 959.0, 959.0, 959.0, 959.0, 959.0, 959.0, 959.0, 959.0, 959.0, 959.0, 959.0, 959.0, 959.0, 959.0, 959.0, 959.0, 959.0, 959.0, 959.0, 959.0, 959.0, 959.0, 959.0, 959.0, 959.0, 959.0, 959.0, 959.0, 959.0, 959.0, 959.0, 959.0, 959.0, 959.0, 959.0, 959.0, 959.0, 959.0, 959.0, 959.0, 959.0, 959.0, 959.0, 959.0, 959.0, 959.0, 959.0, 959.0, 959.0, 959.0, 959.0, 959.0, 959.0, 959.0, 959.0, 959.0, 959.0, 959.0, 959.0, 959.0, 959.0, 959.0, 959.0, 959.0, 959.0, 959.0, 959.0, 959.0, 959.0, 959.0, 959.0, 959.0, 959.0, 959.0, 959.0, 959.0, 959.0, 959.0, 959.0]	[-490.0, -490.0, -490.0, -490.0, -490.0, -490.0, -490.0, -490.0, -488.0, -486.0, -483.0, -481.0, -479.0, -476.0, -470.0, -462.0, -450.0, -430.0, -400.0, -364.0, -181.0, -120.0, 94.0, 193.0, 265.0, 310.0, 337.0, 364.0, 380.0, 394.0, 402.0, 416.0, 422.0, 439.0, 446.0, 448.0, 450.0, 451.0, 451.0, 451.0, 451.0, 451.0, 451.0, 451.0, 451.0, 451.0, 446.0, 437.0, 421.0, 401.0, 394.0, 392.0, 392.0, 392.0, 392.0, 392.0, 392.0, 392.0, 392.0, 392.0, 392.0, 392.0, 392.0, 392.0, 392.0, 392.0, 392.0, 392.0, 392.0, 392.0, 392.0, 392.0, 392.0, 392.0, 392.0, 392.0, 392.0, 392.0, 392.0, 392.0, 392.0, 392.0, 392.0, 392.0, 392.0, 392.0, 392.0, 392.0, 392.0, 392.0, 392.0, 392.0, 392.0, 392.0, 392.0, 392.0, 392.0, 392.0, 392.0, 392.0, 392.0, 392.0, 392.0, 392.0, 392.0, 392.0, 392.0, 392.0, 392.0, 392.0, 392.0, 392.0, 392.0, 392.0, 392.0, 392.0, 392.0, 392.0, 392.0, 392.0, 392.0, 392.0, 392.0, 392.0, 392.0, 392.0, 392.0, 392.0, 392.0, 392.0, 392.0, 392.0, 392.0, 392.0, 392.0, 392.0, 392.0, 392.0, 392.0, 392.0, 392.0, 392.0, 392.0, 392.0, 392.0, 392.0, 392.0, 392.0, 392.0, 392.0, 392.0, 392.0, 392.0, 392.0, 392.0, 392.0, 392.0, 392.0, 392.0, 392.0, 392.0, 392.0, 392.0, 392.0, 392.0, 392.0, 392.0, 392.0, 392.0, 392.0, 392.0, 392.0, 392.0, 392.0, 392.0, 392.0, 392.0, 392.0, 392.0, 392.0, 392.0, 392.0, 392.0, 392.0, 392.0, 392.0, 392.0, 392.0, 392.0, 392.0, 392.0, 392.0, 392.0, 392.0, 392.0, 392.0, 392.0, 392.0, 392.0, 392.0, 392.0, 392.0, 392.0, 392.0, 392.0, 392.0, 392.0, 392.0, 392.0, 392.0, 392.0, 392.0, 392.0, 392.0, 392.0, 392.0, 392.0, 392.0, 392.0, 392.0, 392.0, 392.0, 392.0, 392.0]	[0.01314644212834537, 0.017296710575465113, 0.024339776573469862, 0.04284651277703233, 0.059308664058335125, 0.07469800559920259, 0.09251422507804818, 0.10955186386127025, 0.12451556310406886, 0.1429147793969605, 0.1593803440046031, 0.17461949901189655, 0.19257600634591654, 0.209507490566466, 0.22421348336501978, 0.24286562742781825, 0.25912161357700825, 0.2745560110488441, 0.2924145558208693, 0.30943546930211596, 0.32422133401269093, 0.3427055422507692, 0.3589994163485244, 0.37449696043040603, 0.39243025713949464, 0.4094812079274561, 0.42467018697061576, 0.44281579280504957, 0.4617140380141791, 0.47458195238141343, 0.4953076946840156, 0.5093303387111519, 0.5244746031239629, 0.5428410514432471, 0.5606258682673797, 0.5746502189722378, 0.5978649618336931, 0.6094351279607508, 0.6254361383034848, 0.6427820008539129, 0.6597172397305258, 0.674685376288835, 0.6925200277182739, 0.7090780936123338, 0.7244278404978104, 0.7424768490891438, 0.7590857736067846, 0.7745454297401011, 0.7925514303788077, 0.8091217842302285, 0.824471531144809, 0.842542726371903, 0.8592905734258238, 0.8746328109991737, 0.8926196969696321, 0.9094279599667061, 0.9244408111553639, 0.9424901610764209, 0.9592946694174316, 0.974650901654968, 0.9925029610749334, 1.0092641201044898, 1.0244920111144893, 1.0425297557085287, 1.0593025200651027, 1.074594240373699, 1.092457905120682, 1.1091914161806926, 1.1245002031209879, 1.1425014250853565, 1.1596387331082951, 1.174329365923768, 1.1929589820210822, 1.2092511494411156, 1.2247346989170182, 1.2424826517526526, 1.2595080025785137, 1.274198294035159, 1.292830640799366, 1.3091170055558905, 1.324429547181353, 1.3424799210915808, 1.3593878533283714, 1.3742406193341594, 1.3928647740976885, 1.409290061419597, 1.4245865603734273, 1.4426359102944843, 1.4594667012570426, 1.4743092272838112, 1.4928497554501519, 1.5096638211107347, 1.524667456309544, 1.5452303827623837, 1.5595312132209074, 1.576932371710427, 1.592875355418073, 1.6105905403092038, 1.6246353710012045, 1.6482143161993008, 1.6595554478699341, 1.6754960422695149, 1.6927647635166068, 1.7099266475415789, 1.7247029549325816, 1.743502896220889, 1.7594008239975665, 1.7748440961586311, 1.7927132222393993, 1.8092832347610965, 1.8244421764975414, 1.8426219156535808, 1.8593410907196812, 1.8745027630939148, 1.8925391423690598, 1.9092054108332377, 1.9243807365419343, 1.9424471531237941, 1.9591762268391903, 1.9744665817997884, 1.9926343742990866, 2.0091159815783612, 2.024338752584299, 2.0428147688216995, 2.0592332294618245, 2.074629056325648, 2.0927231208770536, 2.1095317252038512, 2.124517269752687, 2.1428871314274147, 2.159285794768948, 2.1746420269773807, 2.192688646260649, 2.209544695855584, 2.224504981772043, 2.242860166094033, 2.2593226587341633, 2.274673770967638, 2.2926797716063447, 2.3094429786142427, 2.3244281818333548, 2.342944134026766, 2.35915165086044, 2.374634176318068, 2.3926138943061233, 2.4096027224732097, 2.424259221967077, 2.4428222781280056, 2.459367714676773, 2.474680256273132, 2.492523441062076, 2.5094986158946995, 2.5242619526397903, 2.5429519847093616, 2.5591216135653667, 2.5745420164021198, 2.592478726437548, 2.609493154566735, 2.624211776681477, 2.64276834751945, 2.659220600151457, 2.6745693230477627, 2.692459270445397, 2.709518071904313, 2.724244203331182, 2.7429608593520243, 2.7592581467761192, 2.7746010670089163, 2.7929668326687533, 2.8095037359162234, 2.824398827186087, 2.842868016770808, 2.8617324699880555, 2.8747055149287917, 2.894759172486374, 2.9095924824941903, 2.9251040212693624, 2.9428714301029686, 2.9610538999259006, 2.974692202929873, 2.9980062737013213, 3.0095091972325463, 3.0250244906637818, 3.0426970089029055, 3.0634534712007735, 3.0744628271495458, 3.0970887705043424, 3.1093668613466434, 3.12457768569584, 3.142483334435383, 3.1592311814602, 3.174331072572386, 3.194416474114405, 3.209336141386302, 3.2271823981427588, 3.2426741395902354, 3.2600759807392024, 3.2744546351605095, 3.293410906975623, 3.3091323655680753, 3.325021418655524, 3.342707590229111, 3.360268833930604, 3.3744385924946982, 3.3930374886258505, 3.4093760773539543, 3.4247012482665014, 3.442469681118382, 3.4595489625353366, 3.4745044697774574, 3.492855216783937, 3.5091709361877292, 3.5247145602479577, 3.542650587623939, 3.5595083438965958, 3.574490133789368, 3.592853510112036, 3.609257976117078, 3.6246121603471693, 3.642620550323045, 3.6596083544718567, 3.674351211229805, 3.6928995900671, 3.7093852933321614]
18	燕子	True	animate	inanimate	left	0.944	[0.0, 0.0, 0.0, 0.0, 0.0, 0.0, 0.0, 0.0, 0.0, 0.0, 0.0, 0.0, 0.0, 0.0, -6.0, -19.0, -30.0, -31.0, -31.0, -31.0, -31.0, -31.0, -31.0, -31.0, -31.0, -31.0, -31.0, -31.0, -31.0, -30.0, -30.0, -71.0, -93.0, -154.0, -259.0, -323.0, -390.0, -454.0, -519.0, -578.0, -631.0, -678.0, -723.0, -793.0, -823.0, -831.0, -848.0, -852.0, -853.0, -855.0, -855.0, -856.0, -859.0, -859.0, -859.0, -859.0]	[-490.0, -490.0, -490.0, -490.0, -490.0, -490.0, -490.0, -490.0, -490.0, -490.0, -490.0, -490.0, -490.0, -490.0, -490.0, -483.0, -478.0, -475.0, -472.0, -472.0, -472.0, -472.0, -472.0, -472.0, -472.0, -472.0, -472.0, -472.0, -472.0, -471.0, -469.0, -457.0, -450.0, -428.0, -359.0, -310.0, -255.0, -191.0, -103.0, -21.0, 57.0, 130.0, 207.0, 340.0, 384.0, 399.0, 433.0, 445.0, 451.0, 455.0, 459.0, 467.0, 482.0, 484.0, 485.0, 485.0]	[0.010486775048775598, 0.014776307391002774, 0.02143537369556725, 0.03777976508717984, 0.05418593776994385, 0.06952749265474267, 0.0876355518703349, 0.10437930293846875, 0.11951059667626396, 0.13749304533121176, 0.15466960667981766, 0.17092320349183865, 0.1879284156311769, 0.2043700869253371, 0.21961845792247914, 0.23767531718476675, 0.2545419481175486, 0.2694677593826782, 0.28781884771888144, 0.30414207646390423, 0.3196191405877471, 0.3376405012095347, 0.35442248155595735, 0.36953773265122436, 0.38788028768613003, 0.4042103430838324, 0.41961709258612245, 0.43764698653831147, 0.45458120142575353, 0.4696196525765117, 0.4879645969485864, 0.5041922524105757, 0.5195645272906404, 0.537654495856259, 0.5545975854038261, 0.5693950554414187, 0.5879625489469618, 0.6043748655938543, 0.6197392898320686, 0.63761558389524, 0.6543941509153228, 0.6692015196022112, 0.6877253224665765, 0.7039942792616785, 0.7195140100084245, 0.7372964374953881, 0.7544825561635662, 0.769197423622245, 0.7877604797831737, 0.8039591219567228, 0.8196826285275165, 0.8372827841958497, 0.8543630896019749, 0.8692192689341027, 0.8877242984599434, 0.903942737961188]
19	钉子	False	inanimate	animate	left	2.139	[0.0, 0.0, 0.0, 0.0, 0.0, 0.0, 0.0, 0.0, 0.0, 0.0, 0.0, 0.0, 0.0, 0.0, 0.0, 0.0, 0.0, 0.0, 0.0, 0.0, 0.0, 0.0, -8.0, -27.0, -58.0, -129.0, -159.0, -252.0, -384.0, -494.0, -591.0, -651.0, -690.0, -712.0, -731.0, -742.0, -747.0, -751.0, -752.0, -753.0, -753.0, -753.0, -753.0, -753.0, -755.0, -755.0, -757.0, -757.0, -758.0, -758.0, -758.0, -758.0, -758.0, -758.0, -758.0, -758.0, -758.0, -758.0, -758.0, -758.0, -758.0, -758.0, -758.0, -758.0, -758.0, -758.0, -758.0, -758.0, -758.0, -758.0, -758.0, -758.0, -758.0, -758.0, -758.0, -711.0, -578.0, -418.0, -205.0, 24.0, 242.0, 442.0, 606.0, 726.0, 806.0, 840.0, 865.0, 868.0, 870.0, 870.0, 870.0, 870.0, 870.0, 870.0, 870.0, 870.0, 870.0, 870.0, 870.0, 856.0, 740.0, 605.0, 529.0, 267.0, 72.0, -103.0, -251.0, -370.0, -456.0, -514.0, -544.0, -559.0, -568.0, -568.0, -568.0, -568.0, -568.0, -568.0, -568.0, -568.0, -575.0, -599.0, -683.0, -721.0, -819.0, -859.0, -870.0, -870.0]	[-490.0, -490.0, -490.0, -490.0, -490.0, -490.0, -490.0, -490.0, -490.0, -490.0, -490.0, -490.0, -490.0, -490.0, -490.0, -490.0, -490.0, -490.0, -490.0, -490.0, -490.0, -490.0, -484.0, -467.0, -433.0, -376.0, -355.0, -264.0, -46.0, 113.0, 221.0, 280.0, 317.0, 338.0, 354.0, 364.0, 369.0, 373.0, 374.0, 374.0, 375.0, 375.0, 375.0, 375.0, 376.0, 379.0, 383.0, 384.0, 386.0, 386.0, 386.0, 386.0, 386.0, 386.0, 386.0, 386.0, 386.0, 386.0, 386.0, 386.0, 386.0, 386.0, 386.0, 386.0, 386.0, 386.0, 386.0, 386.0, 386.0, 386.0, 386.0, 386.0, 386.0, 386.0, 386.0, 395.0, 399.0, 399.0, 399.0, 399.0, 399.0, 399.0, 399.0, 401.0, 407.0, 409.0, 412.0, 413.0, 414.0, 414.0, 414.0, 414.0, 414.0, 414.0, 414.0, 414.0, 414.0, 414.0, 414.0, 414.0, 414.0, 414.0, 414.0, 418.0, 429.0, 445.0, 461.0, 465.0, 471.0, 472.0, 475.0, 477.0, 478.0, 478.0, 478.0, 478.0, 478.0, 478.0, 478.0, 478.0, 478.0, 478.0, 478.0, 478.0, 478.0, 484.0, 486.0, 486.0]	[0.015628616034518927, 0.02039260129095055, 0.030513808655086905, 0.047859329846687615, 0.06490516063058749, 0.07967156937229447, 0.09767176734749228, 0.1143554437730927, 0.12955363880610093, 0.14750980481039733, 0.16431055846624076, 0.1794363908993546, 0.19752909013186581, 0.21432472381275147, 0.23250378028023988, 0.24780471654958092, 0.2663476340821944, 0.2795401561597828, 0.2999566507351119, 0.31438821175834164, 0.3312309493776411, 0.3477238206251059, 0.3652331816847436, 0.37962207608507015, 0.3988363956741523, 0.4143155078054406, 0.4302673662023153, 0.447550764773041, 0.4647099181311205, 0.4795490308024455, 0.4976325140451081, 0.5141639559296891, 0.5296461400575936, 0.5476142527186312, 0.5644310490461066, 0.5792640177241992, 0.5977885032480117, 0.6140072840789799, 0.6296522840566467, 0.6475367701204959, 0.6645058009889908, 0.6794985135202296, 0.6978028392186388, 0.7142414385452867, 0.7297905239393003, 0.7476773993403185, 0.7645085316326004, 0.7795131908496842, 0.7977977192495018, 0.8140212787257042, 0.8297154306783341, 0.8476149353955407, 0.8645433476194739, 0.8795719001209363, 0.8977516392769758, 0.9144605743640568, 0.9297475159692112, 0.9474807915103156, 0.9645610969455447, 0.9793179483385757, 0.9977219433058053, 1.014218910568161, 1.0297212333243806, 1.047394775581779, 1.064419443719089, 1.0792756230512168, 1.0977652925939765, 1.114034590718802, 1.1295290628331713, 1.147371223603841, 1.1644566490140278, 1.1793172656616662, 1.1978820285003167, 1.215389341552509, 1.2297273773292545, 1.2474203755555209, 1.264484638319118, 1.2795015855226666, 1.297997057728935, 1.316223900852492, 1.3298314838903025, 1.3496216323401313, 1.3643846277554985, 1.381861903500976, 1.397825708554592, 1.4159201144357212, 1.4296382894099224, 1.4492458246531896, 1.4644484570308123, 1.4824049643648323, 1.4978059112327173, 1.5150565418298356, 1.529826705227606, 1.5478071059042122, 1.5642443398828618, 1.5793674416199792, 1.5974423915322404, 1.6140816946863197, 1.629480934876483, 1.64737361294101, 1.6644228570512496, 1.6792588977259584, 1.6973191703145858, 1.7142148145649116, 1.729595281445654, 1.7476330260396935, 1.7644348037138116, 1.7794838362024166, 1.7976577726949472, 1.8142752305138856, 1.8297072386776563, 1.847583191411104, 1.8643231877940707, 1.8794862255163025, 1.8973229249822907, 1.9145343022828456, 1.9295379374816548, 1.94783407120849, 1.964239561202703, 1.9796070574375335, 1.9975290901202243, 2.01449573165155, 2.029501073528081, 2.0477221139590256, 2.064310558489524, 2.079653478722321, 2.0973399916256312, 2.1145284996309783]
20	蚊子	True	animate	inanimate	left	0.831	[0.0, 0.0, 0.0, 0.0, 0.0, 0.0, 0.0, 0.0, 0.0, 0.0, 1.0, -6.0, -25.0, -59.0, -109.0, -177.0, -248.0, -346.0, -378.0, -463.0, -510.0, -543.0, -573.0, -597.0, -622.0, -661.0, -707.0, -744.0, -784.0, -793.0, -800.0, -804.0, -809.0, -815.0, -828.0, -832.0, -834.0, -834.0, -834.0, -834.0, -834.0, -834.0, -828.0, -817.0, -809.0, -804.0, -801.0, -799.0, -799.0, -799.0]	[-490.0, -490.0, -490.0, -490.0, -490.0, -490.0, -490.0, -490.0, -490.0, -490.0, -491.0, -480.0, -467.0, -438.0, -400.0, -354.0, -320.0, -255.0, -231.0, -172.0, -140.0, -115.0, -96.0, -79.0, -61.0, -31.0, 21.0, 50.0, 82.0, 91.0, 103.0, 117.0, 135.0, 153.0, 200.0, 211.0, 221.0, 232.0, 253.0, 263.0, 283.0, 291.0, 308.0, 348.0, 374.0, 393.0, 405.0, 410.0, 410.0, 410.0]	[0.010003447445342317, 0.01586277046590112, 0.020826776890316978, 0.03687864585663192, 0.05324317587655969, 0.06858780278707854, 0.08637261961121112, 0.1032634852163028, 0.1183978509507142, 0.13670968599035405, 0.15323566657025367, 0.1684987148619257, 0.1865565981133841, 0.20340855175163597, 0.21835723231197335, 0.2365089821687434, 0.253165010624798, 0.26862876274390146, 0.28648184618214145, 0.3033105891663581, 0.31859002145938575, 0.3366820380324498, 0.35313429063535295, 0.36858780280454084, 0.38682283789967187, 0.4035129996482283, 0.4184094562660903, 0.4365304861566983, 0.45311824799864553, 0.4685509388218634, 0.48649549949914217, 0.503278845193563, 0.5182596110680606, 0.5365902194171213, 0.5529776187904645, 0.5686758667288814, 0.5863473609788343, 0.603494226350449, 0.618138096499024, 0.6366516593843699, 0.6531421412946656, 0.6686437814205419, 0.6864466888946481, 0.7035566902777646, 0.7184319842490368, 0.7368796698574442, 0.7530639760370832, 0.7688424372463487, 0.7864320115768351, 0.8032583651947789]
21	观众	True	animate	inanimate	left	0.815	[0.0, 0.0, 0.0, 0.0, 0.0, 0.0, 0.0, 0.0, 0.0, 0.0, 0.0, 0.0, 0.0, 0.0, 0.0, 0.0, -4.0, -14.0, -27.0, -53.0, -113.0, -182.0, -280.0, -355.0, -435.0, -533.0, -608.0, -622.0, -644.0, -652.0, -656.0, -658.0, -659.0, -659.0, -659.0, -659.0, -659.0, -659.0, -659.0, -659.0, -662.0, -674.0, -688.0, -706.0, -726.0, -742.0, -753.0, -753.0, -753.0, -753.0]	[-490.0, -490.0, -490.0, -490.0, -490.0, -490.0, -490.0, -490.0, -490.0, -490.0, -490.0, -490.0, -490.0, -490.0, -490.0, -490.0, -490.0, -487.0, -478.0, -462.0, -424.0, -368.0, -274.0, -88.0, 118.0, 269.0, 377.0, 399.0, 437.0, 449.0, 456.0, 458.0, 459.0, 459.0, 459.0, 459.0, 459.0, 459.0, 459.0, 459.0, 459.0, 459.0, 459.0, 457.0, 455.0, 452.0, 450.0, 450.0, 450.0, 450.0]	[0.014861982024740428, 0.020185753470286727, 0.027740477700717747, 0.04614481399767101, 0.06298618626897223, 0.07794613085570745, 0.0963057525223121, 0.1128037437738385, 0.12811116536613554, 0.14608576337923296, 0.16306571688619442, 0.1779683174972888, 0.19639757109689526, 0.21274059716961347, 0.22817260533338413, 0.2459976994432509, 0.2630459195643198, 0.27771026972914115, 0.2962989258521702, 0.3125941652688198, 0.32813403467298485, 0.34591748617822304, 0.3628807143832091, 0.3775713471695781, 0.39600776878069155, 0.4124511467234697, 0.427879400231177, 0.445792216953123, 0.46284658106742427, 0.4779631975106895, 0.49619686728692614, 0.5157545679248869, 0.5279681468382478, 0.5482938468048815, 0.563007348915562, 0.5778082323085982, 0.5962091552501079, 0.6129938662634231, 0.6280545040790457, 0.647946028446313, 0.6628967570140958, 0.6807689550914802, 0.6962521632376593, 0.7139455027936492, 0.7281610000063665, 0.7503817810211331, 0.7627537384687457, 0.7786499595677014, 0.7960954913578462, 0.81288941836101]
22	燕子	True	inanimate	animate	right	3.238	[0.0, 0.0, 0.0, 0.0, 0.0, 0.0, 0.0, 0.0, 0.0, 0.0, -3.0, -15.0, -30.0, -48.0, -66.0, -67.0, -67.0, -67.0, -67.0, -67.0, -67.0, -67.0, -67.0, -67.0, -67.0, -67.0, -67.0, -67.0, -59.0, -53.0, -50.0, -46.0, -45.0, -45.0, -50.0, -57.0, -70.0, -91.0, -106.0, -122.0, -136.0, -151.0, -167.0, -194.0, -212.0, -229.0, -248.0, -267.0, -284.0, -295.0, -306.0, -316.0, -326.0, -336.0, -359.0, -406.0, -418.0, -422.0, -437.0, -445.0, -456.0, -465.0, -474.0, -486.0, -498.0, -509.0, -520.0, -531.0, -541.0, -549.0, -560.0, -567.0, -577.0, -583.0, -593.0, -603.0, -617.0, -627.0, -640.0, -660.0, -671.0, -679.0, -698.0, -711.0, -720.0, -728.0, -730.0, -731.0, -731.0, -731.0, -731.0, -731.0, -732.0, -734.0, -738.0, -740.0, -744.0, -744.0, -745.0, -745.0, -745.0, -745.0, -745.0, -745.0, -745.0, -745.0, -745.0, -745.0, -745.0, -745.0, -745.0, -745.0, -745.0, -745.0, -745.0, -745.0, -745.0, -745.0, -745.0, -745.0, -745.0, -745.0, -745.0, -745.0, -745.0, -745.0, -745.0, -745.0, -745.0, -745.0, -745.0, -745.0, -745.0, -745.0, -745.0, -745.0, -745.0, -745.0, -745.0, -745.0, -745.0, -745.0, -745.0, -745.0, -745.0, -745.0, -745.0, -745.0, -745.0, -745.0, -745.0, -745.0, -745.0, -745.0, -745.0, -745.0, -745.0, -745.0, -745.0, -745.0, -745.0, -745.0, -745.0, -745.0, -745.0, -745.0, -745.0, -745.0, -745.0, -745.0, -745.0, -745.0, -745.0, -745.0, -745.0, -745.0, -745.0, -723.0, -538.0, -348.0, -135.0, 76.0, 259.0, 427.0, 570.0, 745.0, 806.0, 956.0, 959.0, 959.0, 959.0, 959.0, 959.0, 959.0, 959.0]	[-490.0, -490.0, -490.0, -490.0, -490.0, -490.0, -490.0, -490.0, -490.0, -487.0, -478.0, -465.0, -451.0, -441.0, -435.0, -435.0, -435.0, -435.0, -435.0, -435.0, -435.0, -435.0, -435.0, -435.0, -435.0, -435.0, -435.0, -435.0, -436.0, -442.0, -444.0, -447.0, -448.0, -448.0, -447.0, -446.0, -442.0, -438.0, -437.0, -432.0, -428.0, -424.0, -418.0, -403.0, -391.0, -378.0, -361.0, -339.0, -320.0, -304.0, -289.0, -275.0, -261.0, -248.0, -191.0, -69.0, -40.0, -29.0, -2.0, 12.0, 25.0, 38.0, 53.0, 68.0, 81.0, 96.0, 107.0, 118.0, 125.0, 131.0, 139.0, 144.0, 151.0, 160.0, 171.0, 184.0, 200.0, 211.0, 228.0, 251.0, 265.0, 274.0, 296.0, 313.0, 327.0, 338.0, 340.0, 341.0, 342.0, 342.0, 342.0, 342.0, 342.0, 344.0, 350.0, 353.0, 358.0, 359.0, 361.0, 361.0, 361.0, 361.0, 361.0, 361.0, 361.0, 361.0, 361.0, 361.0, 361.0, 361.0, 361.0, 361.0, 361.0, 361.0, 361.0, 361.0, 361.0, 361.0, 361.0, 361.0, 361.0, 361.0, 361.0, 361.0, 361.0, 361.0, 361.0, 361.0, 361.0, 361.0, 361.0, 361.0, 361.0, 361.0, 361.0, 361.0, 361.0, 361.0, 361.0, 361.0, 361.0, 361.0, 361.0, 361.0, 361.0, 361.0, 361.0, 361.0, 361.0, 361.0, 361.0, 361.0, 361.0, 361.0, 361.0, 361.0, 361.0, 361.0, 361.0, 361.0, 361.0, 361.0, 361.0, 361.0, 361.0, 361.0, 361.0, 361.0, 361.0, 361.0, 361.0, 361.0, 361.0, 361.0, 361.0, 361.0, 363.0, 369.0, 387.0, 398.0, 407.0, 407.0, 407.0, 407.0, 407.0, 421.0, 432.0, 447.0, 458.0, 461.0, 470.0, 471.0, 471.0, 471.0, 471.0]	[0.013778249587630853, 0.017965723352972418, 0.02550303959287703, 0.044290351535892114, 0.06266772252274677, 0.07604319910751656, 0.09828104681218974, 0.11083220411092043, 0.1273110806941986, 0.14421423428575508, 0.16201475242269225, 0.17603534847148694, 0.19424717291258276, 0.2109905826218892, 0.226065556431422, 0.243988954462111, 0.26061596962972544, 0.27599950847798027, 0.2939805918140337, 0.31078680680366233, 0.32589045257191174, 0.34398929579765536, 0.3607344121846836, 0.37610907640191726, 0.39403247443260625, 0.4108875000674743, 0.4257231993833557, 0.4438892852340359, 0.4620294297346845, 0.4758981325721834, 0.4951868627977092, 0.5108451747510117, 0.527307667362038, 0.5440667784132529, 0.5619072325062007, 0.5759097379050218, 0.5948714710539207, 0.6106973775604274, 0.6264447774447035, 0.6440606344258413, 0.6611105611955281, 0.6756400848098565, 0.6941949489701074, 0.710720246861456, 0.7260580471192952, 0.7440961330430582, 0.7611221665283665, 0.7759124685544521, 0.7943632261594757, 0.8107038628659211, 0.8262741109356284, 0.8440777010691818, 0.8609071267128456, 0.8759899511642288, 0.8941748103243299, 0.9107011322048493, 0.9260283511248417, 0.9439916851406451, 0.9609146360307932, 0.9758916472492274, 0.9942342022550292, 1.0107079588633496, 1.026041663135402, 1.043983493145788, 1.0609337506757583, 1.076036372454837, 1.0941492103447672, 1.1106690469023306, 1.1260597537620924, 1.1439694984874222, 1.1609801719605457, 1.1758315726474393, 1.194338991510449, 1.210494967061095, 1.2259935351612512, 1.2440224051242694, 1.2609317026799545, 1.2759534285287373, 1.2941430663340725, 1.3107246841827873, 1.3260836470872164, 1.344000901124673, 1.3611173878598493, 1.3760138444777112, 1.394524335337337, 1.4105072550300974, 1.4260918390646111, 1.4437114507018123, 1.4608620707294904, 1.4756397434684914, 1.494164911651751, 1.5103912018239498, 1.5260252791340463, 1.543716229381971, 1.5607275855145417, 1.5756619301100727, 1.5942072369507514, 1.6104734630789608, 1.62582594063133, 1.6437305653525982, 1.660829644097248, 1.6756738767726347, 1.694155695673544, 1.7104424017597921, 1.7259512098680716, 1.7440701917512342, 1.7609221453603823, 1.7759711778489873, 1.7942335195839405, 1.8105635750107467, 1.8260099191393238, 1.843890309217386, 1.8608743587392382, 1.8759233912278432, 1.894201434304705, 1.9133679672668222, 1.9258781645912677, 1.9461594912863802, 1.9608549027470872, 1.9784519863897003, 1.9941717383044306, 2.012456608033972, 2.0260266444820445, 2.045381251955405, 2.0609231693670154, 2.077129662182415, 2.094142725021811, 2.115049715153873, 2.1258576846157666, 2.144000559783308, 2.160798924131086, 2.1756779727584217, 2.193726298690308, 2.210829132091021, 2.2260457591037266, 2.2458372729015537, 2.260657612263458, 2.2787236874864902, 2.293984346470097, 2.312202314933529, 2.3259641805198044, 2.3452088787744287, 2.3606869668874424, 2.376614590641111, 2.3940123357751872, 2.411401206278242, 2.425989439158002, 2.4442070662917104, 2.460670241562184, 2.476181780337356, 2.49399629313848, 2.511036321258871, 2.5259225378977135, 2.5442978608771227, 2.560681164235575, 2.577532435185276, 2.5940317917556968, 2.610944161337102, 2.6259529165399726, 2.6442115036188625, 2.660649761586683, 2.6760186231404077, 2.6940164317784365, 2.7109008120314684, 2.725988756486913, 2.7441661063348874, 2.760455543088028, 2.7760766497522127, 2.7937539466656744, 2.81086940941168, 2.8256409381283447, 2.8441224156995304, 2.860455543093849, 2.8760401271283627, 2.893723226705333, 2.9108738467330113, 2.9256474234571215, 2.944162010331638, 2.9604234577855095, 2.9760483191057574, 2.993766917323228, 3.0110520225716755, 3.0256747301027644, 3.0441326556901913, 3.060346316517098, 3.0758527352882084, 3.093842693255283, 3.1108216227730736, 3.1256463994504884, 3.1442510982451495, 3.1608156494621653, 3.1760373964498285, 3.1971321197925135, 3.2109175373625476, 3.2285211063281167]
23	蟋蟀	True	inanimate	animate	right	1.044	[0.0, 0.0, 0.0, 0.0, 0.0, 0.0, 0.0, 0.0, 0.0, 0.0, 0.0, 0.0, 0.0, 0.0, 1.0, 1.0, 1.0, 1.0, 1.0, 1.0, -5.0, -9.0, -29.0, -39.0, -39.0, -39.0, -39.0, -39.0, -39.0, -39.0, -39.0, -39.0, -39.0, -39.0, -45.0, -72.0, -121.0, -178.0, -239.0, -301.0, -351.0, -464.0, -511.0, -598.0, -622.0, -639.0, -648.0, -656.0, -660.0, -661.0, -661.0, -657.0, -580.0, -333.0, -224.0, 141.0, 354.0, 512.0, 629.0, 713.0, 765.0, 789.0, 792.0, 792.0]	[-490.0, -490.0, -490.0, -490.0, -490.0, -490.0, -490.0, -490.0, -490.0, -490.0, -490.0, -490.0, -490.0, -490.0, -490.0, -490.0, -490.0, -490.0, -490.0, -489.0, -485.0, -482.0, -461.0, -450.0, -450.0, -450.0, -450.0, -450.0, -450.0, -450.0, -450.0, -450.0, -450.0, -450.0, -443.0, -415.0, -361.0, -275.0, -173.0, -66.0, 35.0, 240.0, 303.0, 411.0, 447.0, 475.0, 492.0, 504.0, 509.0, 510.0, 510.0, 513.0, 515.0, 498.0, 482.0, 438.0, 415.0, 400.0, 397.0, 397.0, 397.0, 397.0, 397.0, 397.0]	[0.013948916108347476, 0.018249371089041233, 0.022187671740539372, 0.04080738918855786, 0.05727670845226385, 0.07257525541353971, 0.09066795464605093, 0.10757076687877998, 0.12248155949055217, 0.14087667979765683, 0.15735521505121142, 0.17263089268817566, 0.19075397055712529, 0.20777420137892477, 0.22241977820522152, 0.24080329318530858, 0.2573002604476642, 0.27268414065474644, 0.290462472155923, 0.3074417430034373, 0.32215456242556684, 0.34076745322090574, 0.3570927299442701, 0.37222982637467794, 0.39038430686923675, 0.40747724162065424, 0.422182551730657, 0.4408265038218815, 0.4571210606081877, 0.47246602884843014, 0.49056316539645195, 0.5075093269406352, 0.5222463810350746, 0.5407708665588871, 0.557063375308644, 0.5725513621000573, 0.5904908028023783, 0.6074304789945018, 0.6221972290659323, 0.6407739385322202, 0.6599616341700312, 0.6724264342046808, 0.6903238909435458, 0.7073267137457151, 0.7222003010683693, 0.7407404879049864, 0.7593462106888182, 0.772527127439389, 0.793067184597021, 0.8073632363812067, 0.8223371756030247, 0.8407442425668705, 0.8591158108902164, 0.8725441941060126, 0.8926681662560441, 0.9073478764039464, 0.925079445267329, 0.9407596025557723, 0.9583822861895896, 0.9725994900509249, 0.9914219593338203, 1.0074663189589046, 1.023180950898677, 1.0406435493205208]
24	雪花	False	animate	inanimate	right	2.6	[0.0, 0.0, 0.0, 0.0, 0.0, 0.0, 0.0, 0.0, 0.0, 0.0, 0.0, 0.0, 0.0, 0.0, 0.0, 0.0, 0.0, 0.0, 0.0, 0.0, 0.0, 0.0, 0.0, 0.0, -4.0, -27.0, -29.0, -59.0, -106.0, -165.0, -220.0, -269.0, -311.0, -354.0, -401.0, -449.0, -501.0, -556.0, -591.0, -621.0, -646.0, -663.0, -675.0, -683.0, -687.0, -692.0, -699.0, -708.0, -718.0, -733.0, -741.0, -747.0, -748.0, -750.0, -750.0, -750.0, -750.0, -750.0, -750.0, -752.0, -752.0, -754.0, -756.0, -757.0, -758.0, -761.0, -762.0, -765.0, -766.0, -766.0, -766.0, -761.0, -756.0, -743.0, -732.0, -719.0, -705.0, -697.0, -688.0, -678.0, -664.0, -643.0, -617.0, -581.0, -538.0, -492.0, -469.0, -464.0, -454.0, -454.0, -455.0, -463.0, -474.0, -490.0, -509.0, -531.0, -555.0, -588.0, -605.0, -616.0, -636.0, -647.0, -652.0, -653.0, -653.0, -653.0, -651.0, -631.0, -581.0, -400.0, -238.0, -73.0, 97.0, 232.0, 338.0, 415.0, 490.0, 564.0, 626.0, 685.0, 734.0, 782.0, 800.0, 805.0, 813.0, 813.0, 815.0, 815.0, 815.0, 815.0, 815.0, 815.0, 815.0, 815.0, 817.0, 821.0, 822.0, 824.0, 824.0, 824.0, 824.0, 824.0, 824.0, 824.0, 824.0, 824.0, 820.0, 815.0, 801.0, 792.0, 787.0, 785.0, 785.0, 785.0, 785.0, 785.0]	[-490.0, -490.0, -490.0, -490.0, -490.0, -490.0, -490.0, -490.0, -490.0, -490.0, -490.0, -490.0, -490.0, -490.0, -490.0, -490.0, -490.0, -490.0, -490.0, -490.0, -490.0, -490.0, -490.0, -490.0, -477.0, -412.0, -269.0, -92.0, 41.0, 140.0, 216.0, 271.0, 305.0, 331.0, 355.0, 375.0, 400.0, 431.0, 450.0, 465.0, 478.0, 487.0, 493.0, 497.0, 500.0, 501.0, 504.0, 506.0, 508.0, 508.0, 508.0, 506.0, 506.0, 506.0, 506.0, 506.0, 506.0, 506.0, 504.0, 502.0, 501.0, 496.0, 494.0, 490.0, 487.0, 481.0, 476.0, 462.0, 458.0, 452.0, 446.0, 437.0, 432.0, 417.0, 407.0, 391.0, 376.0, 369.0, 363.0, 357.0, 352.0, 349.0, 348.0, 348.0, 348.0, 356.0, 364.0, 368.0, 381.0, 388.0, 398.0, 410.0, 417.0, 426.0, 432.0, 438.0, 442.0, 445.0, 447.0, 448.0, 448.0, 448.0, 448.0, 448.0, 448.0, 448.0, 445.0, 440.0, 435.0, 435.0, 431.0, 431.0, 431.0, 431.0, 431.0, 433.0, 442.0, 453.0, 461.0, 466.0, 472.0, 479.0, 480.0, 480.0, 483.0, 483.0, 483.0, 483.0, 483.0, 483.0, 483.0, 483.0, 483.0, 483.0, 477.0, 470.0, 463.0, 458.0, 452.0, 448.0, 445.0, 445.0, 445.0, 445.0, 445.0, 443.0, 438.0, 436.0, 431.0, 430.0, 428.0, 428.0, 428.0, 428.0, 428.0, 428.0]	[0.016686748422216624, 0.021117592637892812, 0.03171461826423183, 0.050053759943693876, 0.06643433263525367, 0.08175643158028834, 0.09977403751690872, 0.11663384179701097, 0.13135587723809294, 0.14963801630074158, 0.16640736733097583, 0.1818137755326461, 0.1997125975904055, 0.21654919121647254, 0.2313350559270475, 0.24979366417392157, 0.2664189726638142, 0.28180933819385245, 0.29973000555764884, 0.3165969778492581, 0.3315378077677451, 0.34982848016079515, 0.3662834634305909, 0.3817588209058158, 0.3997323949006386, 0.41651847123284824, 0.43156340773566626, 0.4498615894408431, 0.4663452447275631, 0.4818769221310504, 0.49969723759568296, 0.5165730845183134, 0.5317013062885962, 0.549723349569831, 0.5662776607787237, 0.5817649648815859, 0.5996460376481991, 0.616505500569474, 0.6315879837202374, 0.6499117654166184, 0.6663322740641888, 0.6817977328610141, 0.6996965549187735, 0.7164679539564531, 0.7315558984118979, 0.7498158508096822, 0.7663025780930184, 0.7817833968729246, 0.7996620803023688, 0.8165966364904307, 0.8315057224535849, 0.8498731947620399, 0.8661175755842123, 0.8817997808509972, 0.8996180483372882, 0.9165095965727232, 0.9315934450423811, 0.9498424748016987, 0.9663152074208483, 0.9818403995013796, 0.9994108591636177, 1.0164645406184718, 1.0316436209832318, 1.0498677334398963, 1.0662984820955899, 1.081768036878202, 1.099671296280576, 1.1165519218775444, 1.1316323570208624, 1.149830528156599, 1.1663251060817856, 1.1818141168623697, 1.1994224645022769, 1.216586055175867, 1.231321061262861, 1.249786837521242, 1.266260935459286, 1.2817915888736024, 1.2995006297715008, 1.316505841910839, 1.3316129010345321, 1.3498161921452265, 1.3663281780609395, 1.3817758875375148, 1.3996050776622724, 1.4164747806207743, 1.4314060531905852, 1.4498103894875385, 1.466311452735681, 1.4818799941276666, 1.499553536385065, 1.516461127292132, 1.5315999303711578, 1.5497417815495282, 1.566151367558632, 1.5817622342437971, 1.5996596909535583, 1.6165072072471958, 1.6315586290729698, 1.6498380374687258, 1.6660926582699176, 1.6818014875170775, 1.699633066979004, 1.7164894579327665, 1.7314770504599437, 1.7497366615571082, 1.7663169140869286, 1.7817874928878155, 1.799487659096485, 1.8165724018472247, 1.8313545119017363, 1.8500155306537636, 1.8661261089146137, 1.8817676955659408, 1.8995589977130294, 1.9164877512666862, 1.9315528263978194, 1.949755093548447, 1.9663148660911247, 1.981782031536568, 1.999635114974808, 2.016464199288748, 2.0313289119221736, 2.0497335895488504, 2.0663401247293223, 2.0818410821666475, 2.0996651522873435, 2.1165645511937328, 2.1316234823607374, 2.149772501521511, 2.166306332743261, 2.1818175301887095, 2.1996197550033685, 2.216533489903668, 2.231569551717257, 2.249814144161064, 2.2662954100815114, 2.2831326863961294, 2.2999013547378127, 2.3165877618594095, 2.3315917383879423, 2.349799466843251, 2.3663476340589114, 2.381789540871978, 2.399755605554674, 2.4164543006336316, 2.4313968372007366, 2.449802538845688, 2.466183111537248, 2.4818557594844606, 2.4997306882287376, 2.516562161879847, 2.53157057572389, 2.5497318829002324, 2.5663240820576902, 2.5817137649282813]
25	樱桃	False	animate	inanimate	right	1.3	[0.0, 0.0, 0.0, 0.0, 0.0, 0.0, 0.0, 0.0, 0.0, 0.0, 0.0, 0.0, -1.0, -22.0, -44.0, -54.0, -54.0, -54.0, -54.0, -54.0, -54.0, -54.0, -54.0, -54.0, -54.0, -54.0, -54.0, -57.0, -80.0, -100.0, -116.0, -133.0, -152.0, -187.0, -240.0, -304.0, -392.0, -543.0, -645.0, -689.0, -777.0, -795.0, -800.0, -801.0, -801.0, -801.0, -801.0, -801.0, -801.0, -801.0, -801.0, -801.0, -801.0, -801.0, -801.0, -801.0, -801.0, -801.0, -801.0, -801.0, -799.0, -778.0, -723.0, -609.0, -466.0, -293.0, -126.0, 36.0, 210.0, 372.0, 505.0, 602.0, 687.0, 783.0, 816.0, 827.0, 833.0, 833.0, 833.0]	[-490.0, -490.0, -490.0, -490.0, -490.0, -490.0, -490.0, -490.0, -490.0, -490.0, -490.0, -488.0, -484.0, -474.0, -465.0, -458.0, -458.0, -458.0, -458.0, -458.0, -458.0, -458.0, -458.0, -458.0, -458.0, -458.0, -463.0, -464.0, -464.0, -459.0, -452.0, -442.0, -430.0, -404.0, -375.0, -339.0, -286.0, -183.0, -37.0, 40.0, 178.0, 214.0, 234.0, 245.0, 254.0, 261.0, 263.0, 268.0, 273.0, 281.0, 284.0, 286.0, 289.0, 296.0, 306.0, 313.0, 317.0, 320.0, 322.0, 324.0, 328.0, 337.0, 343.0, 345.0, 345.0, 345.0, 345.0, 345.0, 353.0, 375.0, 396.0, 407.0, 422.0, 435.0, 439.0, 442.0, 443.0, 443.0, 443.0]	[0.014141769264824688, 0.01964235122432001, 0.026308244210667908, 0.04473101248731837, 0.06155839012353681, 0.07652208936633542, 0.09489160968223587, 0.11136639027972706, 0.12677825981518254, 0.14480337509303354, 0.16155941411852837, 0.17655622266465798, 0.1948547456995584, 0.21135649163625203, 0.22668678255286068, 0.24470302317058668, 0.2615362034703139, 0.27650229205028154, 0.29475234579876997, 0.311341814318439, 0.32672330518835224, 0.34470029250951484, 0.3615187954856083, 0.3765244786918629, 0.39479364710859954, 0.41142305158427916, 0.4267816731298808, 0.4446811778470874, 0.46149695018539205, 0.47650570535915904, 0.4948127617535647, 0.5114001822657883, 0.5267096518655308, 0.5446682072069962, 0.5614430195419118, 0.576654867909383, 0.594750980468234, 0.6112612597062252, 0.6266355825937353, 0.6446084739291109, 0.6614853448409121, 0.6765377906849608, 0.6947588311159052, 0.7112162037519738, 0.7267308144946583, 0.744611545902444, 0.7614273182407487, 0.7765125320293009, 0.79471684715827, 0.811281398346182, 0.8266850758809596, 0.8446159832528792, 0.8614682781917509, 0.8765299400256481, 0.8947130925080273, 0.9113131423364393, 0.9267205745272804, 0.944613593921531, 0.9615201608103234, 0.9766473585914355, 0.9948489430535119, 1.0112496543733869, 1.0267366171756294, 1.0445958446071018, 1.0614641821885016, 1.0765166280325502, 1.0948052524181549, 1.1113172383338679, 1.126680297224084, 1.1446026712656021, 1.1614024009322748, 1.1765200413647108, 1.1947885270928964, 1.2112561397079844, 1.2266707398812287, 1.2443930927838665, 1.2615003635000903, 1.2765374493319541, 1.2948561110533774]
26	珍珠	False	inanimate	animate	left	0.834	[0.0, 0.0, 0.0, 0.0, 0.0, 0.0, 0.0, 0.0, 0.0, 0.0, 0.0, 0.0, 0.0, 0.0, 0.0, 0.0, 0.0, 0.0, 0.0, 0.0, 0.0, 0.0, 0.0, 0.0, -14.0, -38.0, -72.0, -109.0, -209.0, -294.0, -364.0, -425.0, -487.0, -546.0, -602.0, -635.0, -667.0, -690.0, -710.0, -726.0, -744.0, -751.0, -756.0, -759.0, -768.0, -777.0, -786.0, -788.0, -788.0, -788.0]	[-490.0, -490.0, -490.0, -490.0, -490.0, -490.0, -490.0, -490.0, -490.0, -490.0, -490.0, -490.0, -490.0, -490.0, -490.0, -490.0, -490.0, -490.0, -490.0, -490.0, -490.0, -490.0, -490.0, -488.0, -476.0, -458.0, -395.0, -273.0, -107.0, 13.0, 103.0, 164.0, 221.0, 267.0, 301.0, 317.0, 330.0, 341.0, 352.0, 360.0, 370.0, 376.0, 380.0, 384.0, 392.0, 400.0, 407.0, 409.0, 409.0, 409.0]	[0.016593905835179612, 0.02087422218755819, 0.03141936520114541, 0.04987933876691386, 0.06634114871849306, 0.0816410609986633, 0.09942553649307229, 0.1166314524889458, 0.13143370117177255, 0.1496240216656588, 0.1662285088095814, 0.18159771169302985, 0.19958732835948467, 0.2163877406856045, 0.23142038920195773, 0.24971174425445497, 0.26623533546808176, 0.28163491701707244, 0.299595861666603, 0.31639559133327566, 0.3314627145009581, 0.3496885336062405, 0.36627049278467894, 0.38158986103371717, 0.3995620697096456, 0.416365212702658, 0.431235045340145, 0.4496625922911335, 0.4661790155223571, 0.48157142905984074, 0.4994774191000033, 0.5163402954058256, 0.5314732958213426, 0.5496690776199102, 0.5659578317136038, 0.5816424263466615, 0.5994344111531973, 0.6162761247833259, 0.6313797705515753, 0.6496407469676342, 0.6662220234866254, 0.6815782557241619, 0.6995344217284583, 0.7163775007065851, 0.7312688373203855, 0.7497533868881874, 0.7660322423325852, 0.781630479672458, 0.7994927791005466, 0.8162771487841383]
27	婴儿	True	animate	inanimate	left	0.725	[0.0, 0.0, 0.0, 0.0, 0.0, 0.0, 0.0, 0.0, 0.0, 0.0, 0.0, 0.0, 0.0, -1.0, -2.0, -4.0, -17.0, -32.0, -56.0, -113.0, -179.0, -231.0, -354.0, -407.0, -493.0, -559.0, -603.0, -633.0, -662.0, -677.0, -693.0, -705.0, -713.0, -719.0, -721.0, -722.0, -722.0, -722.0, -722.0, -722.0, -722.0, -722.0, -722.0, -722.0]	[-490.0, -490.0, -490.0, -490.0, -490.0, -490.0, -490.0, -490.0, -490.0, -490.0, -490.0, -490.0, -487.0, -486.0, -484.0, -481.0, -472.0, -460.0, -434.0, -394.0, -342.0, -226.0, 24.0, 97.0, 204.0, 272.0, 311.0, 338.0, 361.0, 374.0, 388.0, 397.0, 403.0, 408.0, 410.0, 411.0, 411.0, 411.0, 411.0, 411.0, 411.0, 411.0, 411.0, 411.0]	[0.007650980114703998, 0.012320757465204224, 0.016926364216487855, 0.032079161959700286, 0.04863347313948907, 0.06397502805339172, 0.08196191405295394, 0.09879202235606499, 0.11390044679865241, 0.13202966866083443, 0.14861777183250524, 0.1639415774261579, 0.18179534352384508, 0.19875754771055654, 0.2135915403778199, 0.2321119299158454, 0.2486061665113084, 0.26397980673937127, 0.28197966335574165, 0.2987483317265287, 0.3138270601921249, 0.33198461268329993, 0.34849625726928934, 0.3640006280329544, 0.38161204766947776, 0.39869440111215226, 0.41380760419997387, 0.4319555993715767, 0.44829999076318927, 0.4640214493556414, 0.48182538081891835, 0.49873672641115263, 0.5135966603993438, 0.5319832473760471, 0.5484522253100295, 0.5639340681082103, 0.5818444954929873, 0.5987438943993766, 0.613834569521714, 0.6319689113879576, 0.648475777299609, 0.6639716147328727, 0.6818690714717377, 0.6987554997031111]
28	手表	False	animate	inanimate	right	1.253	[0.0, 0.0, 0.0, 0.0, 0.0, 0.0, 0.0, 0.0, 0.0, 0.0, 0.0, 0.0, 0.0, 0.0, 0.0, 0.0, 0.0, 0.0, 0.0, 0.0, 0.0, 0.0, 0.0, -9.0, -28.0, -53.0, -142.0, -178.0, -308.0, -410.0, -497.0, -564.0, -618.0, -664.0, -705.0, -730.0, -751.0, -766.0, -773.0, -774.0, -783.0, -788.0, -794.0, -797.0, -799.0, -803.0, -807.0, -811.0, -813.0, -816.0, -817.0, -817.0, -817.0, -817.0, -817.0, -817.0, -807.0, -745.0, -491.0, -377.0, -138.0, 110.0, 337.0, 496.0, 659.0, 699.0, 721.0, 737.0, 747.0, 756.0, 767.0, 770.0, 775.0, 782.0, 788.0, 788.0]	[-490.0, -490.0, -490.0, -490.0, -490.0, -490.0, -490.0, -490.0, -490.0, -490.0, -490.0, -490.0, -490.0, -490.0, -490.0, -490.0, -490.0, -490.0, -490.0, -490.0, -490.0, -490.0, -490.0, -481.0, -471.0, -459.0, -425.0, -411.0, -341.0, -284.0, -237.0, -199.0, -152.0, -82.0, -10.0, 47.0, 98.0, 147.0, 181.0, 191.0, 222.0, 239.0, 252.0, 258.0, 264.0, 275.0, 286.0, 299.0, 310.0, 318.0, 325.0, 327.0, 329.0, 330.0, 331.0, 333.0, 338.0, 350.0, 352.0, 352.0, 352.0, 352.0, 352.0, 355.0, 370.0, 374.0, 381.0, 386.0, 388.0, 392.0, 397.0, 397.0, 400.0, 404.0, 406.0, 406.0]	[0.002381480619078502, 0.007687844103202224, 0.019528687320416793, 0.03813031411846168, 0.05450952149112709, 0.06994118829607032, 0.08786083167069592, 0.10475237993523479, 0.11953722065663897, 0.1378589543455746, 0.15450406013405882, 0.16987292168778367, 0.1878410343779251, 0.20468513731611893, 0.21966556188999675, 0.2379442876263056, 0.2544938201608602, 0.26984902838012204, 0.28783762102830224, 0.3046636333456263, 0.3196495192241855, 0.33793916762806475, 0.35448699348489754, 0.3698131884157192, 0.3876887998194434, 0.40468035865342245, 0.41957510862266645, 0.4378582716744859, 0.45456003877916373, 0.46984766304376535, 0.4878007570805494, 0.5047407746023964, 0.5197037911857478, 0.5379323409579229, 0.554219729732722, 0.5698483457090333, 0.5876570558466483, 0.604625404055696, 0.6197109591739718, 0.6377818130713422, 0.6543521669518668, 0.6698285484162625, 0.6876946025004145, 0.7045445081021171, 0.7197014018602204, 0.7379186876351014, 0.7543613829475362, 0.769902276340872, 0.787638282548869, 0.8045595267612953, 0.8194566660677083, 0.8378173117234837, 0.8543265669723041, 0.8698459563893266, 0.8877772050909698, 0.9046407640271354, 0.9197440684656613, 0.9380115302337799, 0.9544265775475651, 0.9698408363910858, 0.9877137171570212, 1.0046342787100002, 1.0196781911945436, 1.0379159569565672, 1.0543176922947168, 1.069873604370514, 1.087701770476997, 1.1046680706785992, 1.1197232471604366, 1.1378026343882084, 1.1541408817865886, 1.169832985731773, 1.187681973184226, 1.2046513453533407, 1.219727684481768, 1.2379767142410856]
29	乐队	True	animate	inanimate	left	1.032	[0.0, 0.0, 0.0, 0.0, 0.0, 0.0, 0.0, 0.0, 0.0, 0.0, 0.0, 0.0, 0.0, 0.0, 0.0, 0.0, 0.0, 0.0, 0.0, 0.0, 0.0, 0.0, 0.0, 0.0, 0.0, 0.0, 0.0, 0.0, -3.0, -17.0, -36.0, -76.0, -134.0, -223.0, -309.0, -439.0, -512.0, -578.0, -628.0, -660.0, -677.0, -686.0, -690.0, -691.0, -692.0, -694.0, -696.0, -698.0, -698.0, -703.0, -704.0, -704.0, -704.0, -704.0, -704.0, -704.0, -704.0, -704.0, -704.0, -704.0, -704.0, -704.0, -704.0]	[-490.0, -490.0, -490.0, -490.0, -490.0, -490.0, -490.0, -490.0, -490.0, -490.0, -490.0, -490.0, -490.0, -490.0, -490.0, -490.0, -490.0, -490.0, -490.0, -490.0, -490.0, -490.0, -490.0, -490.0, -490.0, -490.0, -490.0, -490.0, -490.0, -476.0, -458.0, -426.0, -384.0, -300.0, -168.0, 52.0, 160.0, 255.0, 314.0, 351.0, 375.0, 387.0, 397.0, 400.0, 404.0, 407.0, 411.0, 411.0, 411.0, 413.0, 414.0, 414.0, 414.0, 414.0, 414.0, 414.0, 414.0, 414.0, 414.0, 414.0, 414.0, 414.0, 414.0]	[0.014189555862685665, 0.020273817353881896, 0.026456382736796513, 0.04530718264868483, 0.06150719017023221, 0.07707368355477229, 0.09501483090571128, 0.11184357386082411, 0.12682160909753293, 0.14512252146960236, 0.16160549406777136, 0.17703579558292404, 0.19501175891491584, 0.21180056591401808, 0.22680590776144527, 0.24513105480582453, 0.26169116867822595, 0.2770521795609966, 0.2950653481821064, 0.31189306717715226, 0.32682502243551426, 0.3451430014683865, 0.3616833180130925, 0.37700985427363776, 0.39498718292452395, 0.411832651210716, 0.4266690332151484, 0.44502251088852063, 0.46168673134525307, 0.4784287757356651, 0.4949725056067109, 0.5117589232686441, 0.5268328730890062, 0.5450262655504048, 0.5615563421160914, 0.5770047342812177, 0.5949223296483979, 0.6117920325777959, 0.6268506224150769, 0.6450784895278048, 0.6613590516208205, 0.6770255555748008, 0.6948516737029422, 0.7117104539938737, 0.7269236676802393, 0.7450853161863051, 0.7615679474547505, 0.7769804996205494, 0.794875908351969, 0.8118244592333212, 0.826644457236398, 0.8449559509463143, 0.8615778461098671, 0.8770211182709318, 0.8949684096151032, 0.9118162672384642, 0.9269038703641854, 0.9450614228553604, 0.9613849929301068, 0.9770808515313547, 0.9948899029986933, 1.0117486832896248, 1.026836286415346]
30	白菜	False	inanimate	animate	left	1.561	[0.0, 0.0, 0.0, 0.0, 0.0, 0.0, 0.0, 0.0, 0.0, 0.0, 0.0, 0.0, 0.0, 0.0, 0.0, 0.0, -1.0, -4.0, -8.0, -18.0, -32.0, -59.0, -104.0, -171.0, -223.0, -284.0, -356.0, -421.0, -503.0, -598.0, -622.0, -668.0, -692.0, -713.0, -733.0, -748.0, -757.0, -762.0, -765.0, -767.0, -767.0, -767.0, -767.0, -767.0, -767.0, -767.0, -767.0, -767.0, -767.0, -767.0, -767.0, -767.0, -767.0, -767.0, -767.0, -767.0, -767.0, -767.0, -767.0, -767.0, -767.0, -767.0, -767.0, -767.0, -767.0, -767.0, -767.0, -767.0, -767.0, -767.0, -767.0, -767.0, -767.0, -767.0, -767.0, -767.0, -767.0, -767.0, -767.0, -767.0, -767.0, -767.0, -767.0, -767.0, -767.0, -767.0, -767.0, -767.0, -767.0, -767.0]	[-490.0, -490.0, -490.0, -490.0, -490.0, -490.0, -490.0, -490.0, -490.0, -490.0, -490.0, -490.0, -488.0, -487.0, -485.0, -483.0, -476.0, -470.0, -462.0, -446.0, -429.0, -405.0, -374.0, -328.0, -247.0, -130.0, -42.0, 43.0, 140.0, 247.0, 270.0, 313.0, 335.0, 354.0, 371.0, 385.0, 393.0, 399.0, 403.0, 404.0, 404.0, 404.0, 404.0, 404.0, 404.0, 404.0, 404.0, 404.0, 404.0, 404.0, 404.0, 404.0, 404.0, 404.0, 404.0, 404.0, 404.0, 404.0, 404.0, 404.0, 404.0, 404.0, 404.0, 404.0, 404.0, 404.0, 404.0, 404.0, 404.0, 404.0, 404.0, 404.0, 404.0, 404.0, 404.0, 404.0, 404.0, 404.0, 404.0, 404.0, 404.0, 404.0, 404.0, 404.0, 404.0, 404.0, 404.0, 404.0, 404.0, 404.0]	[0.016636231128359213, 0.021559618937317282, 0.031520058430032805, 0.04996945068705827, 0.06628926607663743, 0.0816383303317707, 0.0996852909156587, 0.11656318584573455, 0.13149650645209476, 0.14977728016674519, 0.1663885939924512, 0.18169499162468128, 0.19963648030534387, 0.2164413299469743, 0.23160743969492614, 0.24973256554221734, 0.26614658886683173, 0.2816468636447098, 0.2996986029029358, 0.31649867389933206, 0.33124050666810945, 0.3496929709217511, 0.3663507060264237, 0.3816769009572454, 0.39945966977393255, 0.41640378333977424, 0.4312425546522718, 0.44953083773725666, 0.46618925550137646, 0.48166119965026155, 0.49964160029776394, 0.5164334792934824, 0.5314671517990064, 0.5497554348548874, 0.5662401141307782, 0.5816516423074063, 0.5994006191613153, 0.6163624820183031, 0.6314504264737479, 0.6497206189087592, 0.6661704822035972, 0.6817397062259261, 0.6996177069959231, 0.7164635166118387, 0.7316248476563487, 0.7497540695476346, 0.7661312288837507, 0.7816530076379422, 0.7996067843341734, 0.8164249459805433, 0.8314838771184441, 0.8496445016353391, 0.8662179274833761, 0.8816847516281996, 0.8995791363413446, 0.9164768285991158, 0.931498213118175, 0.9497117442369927, 0.9661653621878941, 0.9816765596333425, 0.9994975577574223, 1.0164467912982218, 1.0314893384638708, 1.0496946775820106, 1.0662066634977236, 1.0816475463216193, 1.0995900590205565, 1.1164686366100796, 1.13148421846563, 1.1495929603406694, 1.1661752608488314, 1.1817144475935493, 1.199493461754173, 1.216396273986902, 1.2314504264795687, 1.2496612269314937, 1.2660452129784971, 1.28167894895887, 1.2996672002773266, 1.3164109513163567, 1.3315337117528543, 1.3496902402548585, 1.366260935436003, 1.3816936262883246, 1.399384235177422, 1.4164392819511704, 1.4313596318825148, 1.4496520109532867, 1.4659994743415155, 1.4816277489881031]
31	苍蝇	True	inanimate	animate	right	1.131	[0.0, -4.0, -4.0, -4.0, -6.0, -6.0, -6.0, -6.0, -6.0, -6.0, -6.0, -6.0, -6.0, -6.0, -14.0, -22.0, -46.0, -74.0, -121.0, -175.0, -230.0, -295.0, -358.0, -413.0, -471.0, -538.0, -603.0, -656.0, -696.0, -718.0, -737.0, -755.0, -767.0, -776.0, -782.0, -791.0, -801.0, -804.0, -805.0, -805.0, -805.0, -805.0, -805.0, -805.0, -805.0, -805.0, -805.0, -805.0, -805.0, -787.0, -718.0, -577.0, -278.0, -41.0, 191.0, 388.0, 544.0, 664.0, 724.0, 753.0, 766.0, 773.0, 779.0, 780.0, 786.0, 790.0, 796.0, 800.0, 803.0]	[-490.0, -490.0, -490.0, -490.0, -489.0, -489.0, -489.0, -489.0, -489.0, -489.0, -489.0, -489.0, -489.0, -489.0, -482.0, -472.0, -449.0, -429.0, -406.0, -372.0, -328.0, -216.0, -126.0, -64.0, 6.0, 103.0, 174.0, 226.0, 271.0, 295.0, 316.0, 335.0, 350.0, 361.0, 370.0, 382.0, 396.0, 399.0, 403.0, 403.0, 403.0, 403.0, 403.0, 403.0, 403.0, 403.0, 403.0, 403.0, 405.0, 409.0, 409.0, 409.0, 409.0, 409.0, 409.0, 409.0, 409.0, 415.0, 423.0, 428.0, 430.0, 432.0, 435.0, 436.0, 438.0, 440.0, 440.0, 441.0, 441.0]	[0.013871433504391462, 0.019878553692251444, 0.025812287291046232, 0.04464567924151197, 0.06091600135550834, 0.07644631344010122, 0.09439394611399621, 0.11129436900955625, 0.12625499625573866, 0.1445371353183873, 0.16098495063488372, 0.17641968943644315, 0.19436732213944197, 0.21121552109252661, 0.22613484703470021, 0.24448593537090346, 0.26104707323247567, 0.2764347080956213, 0.29437380746821873, 0.31119674775982276, 0.3262259829498362, 0.3443886554450728, 0.3609501346363686, 0.3764012574683875, 0.39426389822619967, 0.41112916384008713, 0.42624168426846154, 0.44438592478400096, 0.46070949485874735, 0.47639408946270123, 0.49428608486778103, 0.5110670412250329, 0.5263010762282647, 0.5444736473727971, 0.5609340920054819, 0.5763824841415044, 0.5942591195635032, 0.611105611838866, 0.6262212042929605, 0.6443845594476443, 0.6610023585963063, 0.6764541640877724, 0.6942488795612007, 0.7111568117979914, 0.726213353627827, 0.7444378074142151, 0.7610323959088419, 0.7764217374497093, 0.7942301062576007, 0.8111120971734636, 0.8261976522917394, 0.844358618138358, 0.8609323853452224, 0.8764367561088875, 0.8942656048748177, 0.9111336011555977, 0.9262693322380073, 0.9443726128083654, 0.960906785359839, 0.9763684895006008, 0.9943140741670504, 1.0111178998486139, 1.0262997108802665, 1.0445487406395841, 1.0610385399195366, 1.0764258334529586, 1.0942854022141546, 1.1111076598463114, 1.1261976523092017]
32	月亮	False	animate	inanimate	right	0.931	[0.0, 0.0, 0.0, 0.0, 0.0, 0.0, 0.0, 0.0, 0.0, 0.0, 0.0, 0.0, 0.0, 0.0, 0.0, 0.0, 0.0, 0.0, 0.0, 0.0, 0.0, 0.0, -1.0, -18.0, -32.0, -99.0, -163.0, -264.0, -376.0, -491.0, -591.0, -680.0, -743.0, -785.0, -820.0, -831.0, -834.0, -834.0, -834.0, -835.0, -838.0, -839.0, -842.0, -843.0, -840.0, -810.0, -630.0, -427.0, -302.0, 118.0, 438.0, 735.0, 959.0, 959.0, 959.0, 959.0, 959.0]	[-490.0, -490.0, -490.0, -490.0, -490.0, -490.0, -490.0, -490.0, -490.0, -490.0, -490.0, -490.0, -490.0, -490.0, -490.0, -490.0, -490.0, -490.0, -490.0, -490.0, -490.0, -490.0, -483.0, -466.0, -455.0, -403.0, -313.0, -193.0, -78.0, 11.0, 83.0, 142.0, 185.0, 216.0, 241.0, 253.0, 259.0, 265.0, 281.0, 293.0, 298.0, 306.0, 316.0, 324.0, 330.0, 341.0, 369.0, 378.0, 380.0, 380.0, 380.0, 380.0, 380.0, 383.0, 383.0, 383.0, 383.0]	[0.008436387463007122, 0.013282633997732773, 0.017893019394250587, 0.033846243110019714, 0.05021009047050029, 0.06551307474728674, 0.08350303274346516, 0.10031300238915719, 0.11532448825892061, 0.13360765131074004, 0.15010598389199004, 0.1655687120219227, 0.1835771019977983, 0.20028945041121915, 0.21534872287884355, 0.2336322272894904, 0.2501609385071788, 0.26555028004804626, 0.28352590205031447, 0.3003839996526949, 0.3153494055441115, 0.33363529929192737, 0.3502012158278376, 0.3654697254532948, 0.3834856247412972, 0.4002959357458167, 0.41511490975972265, 0.4335468940262217, 0.4501223678817041, 0.465544477396179, 0.4833856141776778, 0.5002594130928628, 0.5153289255686104, 0.5335479180212133, 0.5500500052876305, 0.5654946427675895, 0.5833729848382063, 0.6002321064588614, 0.6154511228087358, 0.6335936566465534, 0.6500981332501397, 0.6655171707388945, 0.6831210810632911, 0.7002717010909691, 0.7152992296032608, 0.7335363127058372, 0.7500240639783442, 0.7654779174481519, 0.783406776812626, 0.8004239356378093, 0.8153139069327153, 0.8335926326690242, 0.850169471843401, 0.8655065894126892, 0.8834371554548852, 0.9003031037282199, 0.9152920616033953]
33	军人	True	animate	inanimate	left	0.795	[0.0, 0.0, 0.0, 0.0, 0.0, 0.0, 0.0, 0.0, 0.0, 0.0, 0.0, 0.0, 0.0, -2.0, -14.0, -22.0, -58.0, -100.0, -145.0, -202.0, -279.0, -363.0, -437.0, -490.0, -526.0, -548.0, -564.0, -566.0, -569.0, -571.0, -572.0, -577.0, -583.0, -590.0, -595.0, -603.0, -611.0, -622.0, -643.0, -651.0, -671.0, -682.0, -689.0, -695.0, -696.0, -696.0, -696.0, -696.0, -696.0]	[-490.0, -490.0, -490.0, -490.0, -490.0, -490.0, -490.0, -490.0, -490.0, -490.0, -490.0, -490.0, -490.0, -490.0, -480.0, -474.0, -446.0, -417.0, -294.0, -136.0, 11.0, 148.0, 243.0, 299.0, 332.0, 353.0, 368.0, 370.0, 374.0, 377.0, 380.0, 384.0, 390.0, 395.0, 399.0, 404.0, 405.0, 407.0, 407.0, 407.0, 408.0, 409.0, 409.0, 410.0, 411.0, 411.0, 411.0, 411.0, 411.0]	[0.007448910968378186, 0.01241121074417606, 0.016225266153924167, 0.03175182358245365, 0.048193153546890244, 0.06354631375870667, 0.08136594656389207, 0.09834453475195915, 0.11316077809897251, 0.13143916250555776, 0.148157654912211, 0.16353709777467884, 0.18147790379589424, 0.1982916281267535, 0.21320583406486548, 0.23156306639430113, 0.24816550555988215, 0.2635374391102232, 0.281475514464546, 0.29833327076630667, 0.31323723669629544, 0.3315105010988191, 0.3480392123456113, 0.36346746582421474, 0.38137823456781916, 0.398213462845888, 0.4133543139323592, 0.4314453064871486, 0.44803648168453947, 0.46351900714216754, 0.4813492212560959, 0.4983861773798708, 0.513340660603717, 0.5314910451124888, 0.5479941563680768, 0.5634749751770869, 0.5813348852680065, 0.5982475961500313, 0.6133041379798669, 0.6314780744723976, 0.6479716284084134, 0.6635326604591683, 0.6813413705967832, 0.6982411108328961, 0.7132904846512247, 0.7316033437091392, 0.7480869989667553, 0.7635330017947126, 0.7813929118856322]
