trialIndex	left_option	right_option	response	response_time	xTrajectory	yTrajectory	tTrajectory
0	images/0262.jpg	images/0118.jpg	right	1.355	[0.0, 0.0, 0.0, 0.0, 0.0, 0.0, 0.0, 0.0, 0.0, 0.0, 0.0, 0.0, 0.0, 0.0, 0.0, 0.0, 0.0, 0.0, 0.0, 0.0, 0.0, 0.0, 0.0, 0.0, -4.0, -4.0, -4.0, 1.0, 26.0, 66.0, 87.0, 87.0, 87.0, 87.0, 87.0, 87.0, 87.0, 87.0, 87.0, 87.0, 87.0, 87.0, 87.0, 87.0, 87.0, 87.0, 87.0, 86.0, 91.0, 98.0, 102.0, 105.0, 111.0, 123.0, 153.0, 212.0, 293.0, 381.0, 492.0, 544.0, 582.0, 606.0, 625.0, 637.0, 647.0, 653.0, 660.0, 677.0, 701.0, 715.0, 720.0, 721.0, 721.0, 721.0, 721.0, 721.0, 721.0, 721.0, 721.0, 721.0, 721.0]	[-490.0, -490.0, -490.0, -490.0, -490.0, -490.0, -490.0, -490.0, -490.0, -490.0, -490.0, -490.0, -490.0, -490.0, -490.0, -490.0, -490.0, -490.0, -490.0, -490.0, -486.0, -475.0, -460.0, -434.0, -418.0, -397.0, -370.0, -332.0, -278.0, -218.0, -172.0, -172.0, -172.0, -172.0, -172.0, -172.0, -172.0, -172.0, -172.0, -172.0, -172.0, -172.0, -172.0, -172.0, -172.0, -172.0, -172.0, -173.0, -178.0, -179.0, -179.0, -179.0, -179.0, -175.0, -163.0, -128.0, -72.0, -2.0, 119.0, 187.0, 251.0, 296.0, 326.0, 346.0, 360.0, 368.0, 376.0, 389.0, 404.0, 411.0, 413.0, 414.0, 414.0, 414.0, 414.0, 414.0, 414.0, 414.0, 414.0, 414.0, 414.0]	[0.0097913125064224, 0.018345121410675347, 0.021798730362206697, 0.03576232853811234, 0.05269415979273617, 0.06896243954543024, 0.0861485640052706, 0.1025953609496355, 0.1193851976422593, 0.13590299186762422, 0.15272559667937458, 0.16917785489931703, 0.1861683955648914, 0.2025254217442125, 0.21928419719915837, 0.23593101534061134, 0.25268194009549916, 0.2689526091562584, 0.2861356616485864, 0.30247459723614156, 0.3199354950338602, 0.3355828896164894, 0.3523850144119933, 0.3688935926184058, 0.3860681118676439, 0.4022421835688874, 0.41941738536115736, 0.43559760111384094, 0.45289124560076743, 0.46886120014823973, 0.48597632732708007, 0.5023026335984468, 0.5192986356560141, 0.5355846645543352, 0.5525550665333867, 0.5711328063625842, 0.5860152734676376, 0.6048097598832101, 0.6194249630207196, 0.6376965269446373, 0.6527237192494795, 0.6708597739925608, 0.6860518301837146, 0.7035369626246393, 0.719265594612807, 0.736409735167399, 0.7525892681442201, 0.7691268597263843, 0.78578152845148, 0.8024242506362498, 0.8191403594100848, 0.8357062815921381, 0.8526302622631192, 0.8690272246021777, 0.8858061386272311, 0.9022502048173919, 0.9191444895695895, 0.9361159155378118, 0.9524241312174127, 0.9689350987318903, 0.9858833140460774, 1.002203817712143, 1.0189305078238249, 1.0362821789458394, 1.052386960014701, 1.069248476647772, 1.0856526070274413, 1.1027103902306408, 1.119002563180402, 1.1360961864702404, 1.1524658420821652, 1.1694652574369684, 1.1858239903813228, 1.2026588830631226, 1.2190558452857658, 1.2360412660054862, 1.2525235615903512, 1.2694314995314926, 1.2856007926166058, 1.3027302558766678, 1.3188964768778533]
1	images/0212.jpg	images/0050.jpg	right	2.463	[0.0, 0.0, 0.0, 0.0, 0.0, 0.0, 0.0, 0.0, 0.0, 0.0, 0.0, 0.0, 0.0, 0.0, 0.0, 0.0, 0.0, 0.0, 0.0, 0.0, 0.0, 0.0, 0.0, 0.0, 0.0, 0.0, 0.0, 0.0, 0.0, 0.0, 0.0, 4.0, 9.0, 21.0, 41.0, 56.0, 72.0, 99.0, 126.0, 156.0, 184.0, 201.0, 215.0, 217.0, 217.0, 217.0, 217.0, 217.0, 217.0, 217.0, 217.0, 217.0, 217.0, 217.0, 217.0, 217.0, 217.0, 217.0, 217.0, 217.0, 217.0, 217.0, 217.0, 217.0, 217.0, 217.0, 217.0, 217.0, 217.0, 217.0, 217.0, 217.0, 216.0, 216.0, 216.0, 216.0, 216.0, 216.0, 216.0, 216.0, 216.0, 221.0, 244.0, 284.0, 349.0, 412.0, 476.0, 527.0, 566.0, 595.0, 618.0, 638.0, 646.0, 648.0, 649.0, 650.0, 651.0, 651.0, 651.0, 651.0, 651.0, 651.0, 651.0, 651.0, 651.0, 651.0, 651.0, 651.0, 656.0, 664.0, 668.0, 671.0, 674.0, 676.0, 676.0, 676.0, 676.0, 676.0, 676.0, 676.0, 676.0, 676.0, 676.0, 676.0, 676.0, 676.0, 676.0, 676.0, 676.0, 676.0, 676.0, 676.0, 676.0, 676.0, 676.0, 676.0, 676.0, 676.0, 676.0, 676.0, 676.0, 676.0, 676.0, 676.0, 676.0, 676.0, 676.0, 676.0]	[-490.0, -490.0, -490.0, -490.0, -490.0, -490.0, -490.0, -490.0, -490.0, -490.0, -490.0, -490.0, -490.0, -490.0, -490.0, -490.0, -490.0, -490.0, -490.0, -490.0, -490.0, -490.0, -490.0, -490.0, -490.0, -490.0, -490.0, -490.0, -490.0, -490.0, -490.0, -484.0, -477.0, -453.0, -417.0, -377.0, -322.0, -230.0, -133.0, -38.0, 27.0, 70.0, 88.0, 90.0, 90.0, 90.0, 90.0, 90.0, 90.0, 90.0, 90.0, 90.0, 90.0, 90.0, 90.0, 90.0, 90.0, 90.0, 90.0, 90.0, 90.0, 90.0, 90.0, 90.0, 90.0, 90.0, 90.0, 90.0, 90.0, 90.0, 88.0, 88.0, 85.0, 85.0, 85.0, 85.0, 85.0, 85.0, 85.0, 85.0, 85.0, 86.0, 95.0, 115.0, 147.0, 176.0, 214.0, 243.0, 265.0, 283.0, 294.0, 306.0, 313.0, 315.0, 316.0, 316.0, 317.0, 317.0, 317.0, 317.0, 317.0, 317.0, 317.0, 317.0, 317.0, 317.0, 317.0, 317.0, 322.0, 327.0, 331.0, 334.0, 338.0, 340.0, 340.0, 340.0, 340.0, 340.0, 340.0, 340.0, 340.0, 340.0, 340.0, 340.0, 340.0, 340.0, 340.0, 340.0, 340.0, 340.0, 340.0, 340.0, 340.0, 340.0, 340.0, 340.0, 340.0, 340.0, 340.0, 340.0, 340.0, 340.0, 340.0, 340.0, 340.0, 340.0, 340.0, 340.0]	[0.00023630494251847267, 0.005187001079320908, 0.016697437851689756, 0.033494783914647996, 0.05050136719364673, 0.06681914010550827, 0.08380524348467588, 0.10018718708306551, 0.1171736316755414, 0.13345283397939056, 0.15045429731253535, 0.16689017158932984, 0.1836847870144993, 0.20002918399404734, 0.216982860583812, 0.23325455363374203, 0.25012869958300143, 0.2665720832301304, 0.28375684237107635, 0.2999131648102775, 0.3167030015029013, 0.33335528103634715, 0.35040282423142344, 0.36678988789208233, 0.38369987392798066, 0.40350777842104435, 0.41699999547563493, 0.43549274338874966, 0.45038340240716934, 0.46854812907986343, 0.48372653196565807, 0.5017438028007746, 0.5170252883108333, 0.5349749751621857, 0.5505298684583977, 0.5683761313557625, 0.5839160060277209, 0.601384071749635, 0.6170836903620511, 0.6349002573406324, 0.6504141907207668, 0.6677167097805068, 0.6836013309657574, 0.7006065489258617, 0.7170212605269626, 0.7337872040225193, 0.7504091048613191, 0.7668528297217563, 0.7837013758253306, 0.800160460639745, 0.8167468628380448, 0.833280699676834, 0.8502835283288732, 0.8668798292055726, 0.8835061673307791, 0.9001724414993078, 0.917003579554148, 0.9335510696982965, 0.9503555838018656, 0.9668283220380545, 0.9836092840414494, 1.0001523368991911, 1.0169831336243078, 1.0334647465497255, 1.0502952019451186, 1.0666317482246086, 1.0837199101224542, 1.100092296488583, 1.1169923838460818, 1.133477751398459, 1.1503047933802009, 1.1667529556434602, 1.1836810322711244, 1.2001128105912358, 1.2170282579027116, 1.2333794814767316, 1.2501447423128411, 1.2665830058977008, 1.2837821011198685, 1.300148343318142, 1.3170371666783467, 1.3334327636985108, 1.3504782589152455, 1.3667482452001423, 1.3838114897953346, 1.399894084315747, 1.4170440274756402, 1.4334089044714347, 1.4503557544667274, 1.4667776339920238, 1.4837142439791933, 1.5000699049560353, 1.5170331390108913, 1.5335092905443162, 1.5504332712152973, 1.5668565161759034, 1.5837678674142808, 1.600126259145327, 1.6170372690539807, 1.6334885034011677, 1.6503831293666735, 1.6668142249109223, 1.6837709735846147, 1.7001839785370976, 1.7171021564863622, 1.7334769321605563, 1.7504524540854618, 1.7668111870298162, 1.7838061650982127, 1.800153634045273, 1.8170202707406133, 1.8335776595631614, 1.8504982269369066, 1.8668074666056782, 1.8837201832793653, 1.9001301161479205, 1.9170595582108945, 1.933491677744314, 1.950439210399054, 1.9668436819920316, 1.9836727720685303, 2.000087483669631, 2.016989960335195, 2.0334517759038135, 2.050376439234242, 2.0667737427866086, 2.0837414141278714, 2.100122675066814, 2.1169992104405537, 2.133436108706519, 2.1507106384960935, 2.166786064975895, 2.1837305256631225, 2.2001452372642234, 2.2171053992351517, 2.2335293267387897, 2.250462523428723, 2.2666331818327308, 2.2840589222032577, 2.300231628585607, 2.3170999720459804, 2.333765222108923, 2.3505782695719972, 2.3668496211757883, 2.383726497879252, 2.400173977483064, 2.4169621075270697, 2.433451912482269]
2	images/0218.jpg	images/0289.jpg	left	1.729	[0.0, 0.0, 0.0, 0.0, 0.0, 0.0, 0.0, 0.0, 0.0, 0.0, 0.0, 0.0, 0.0, 0.0, 0.0, 0.0, 2.0, 5.0, 9.0, 14.0, 20.0, 20.0, 20.0, 20.0, 20.0, 20.0, 20.0, 20.0, 20.0, 20.0, 20.0, 20.0, 20.0, 20.0, 20.0, 20.0, 20.0, 23.0, 25.0, 25.0, 23.0, 22.0, 22.0, 22.0, 22.0, 22.0, 22.0, 22.0, 23.0, 24.0, 24.0, 24.0, 24.0, 26.0, 28.0, 28.0, 25.0, 22.0, 21.0, 16.0, 3.0, -28.0, -65.0, -115.0, -174.0, -248.0, -332.0, -418.0, -498.0, -574.0, -647.0, -716.0, -769.0, -811.0, -828.0, -842.0, -852.0, -862.0, -871.0, -877.0, -880.0, -880.0, -880.0, -873.0, -858.0, -809.0, -777.0, -751.0, -731.0, -719.0, -713.0, -712.0, -712.0, -712.0, -712.0, -712.0, -712.0, -712.0, -712.0, -712.0, -712.0, -712.0, -712.0, -712.0]	[-490.0, -490.0, -490.0, -490.0, -490.0, -490.0, -490.0, -490.0, -490.0, -490.0, -490.0, -490.0, -490.0, -490.0, -490.0, -490.0, -487.0, -478.0, -469.0, -453.0, -446.0, -446.0, -446.0, -446.0, -446.0, -446.0, -446.0, -446.0, -446.0, -446.0, -446.0, -446.0, -446.0, -446.0, -446.0, -446.0, -446.0, -447.0, -449.0, -450.0, -450.0, -450.0, -450.0, -450.0, -450.0, -450.0, -450.0, -450.0, -450.0, -450.0, -450.0, -449.0, -444.0, -436.0, -434.0, -431.0, -427.0, -422.0, -420.0, -414.0, -405.0, -387.0, -366.0, -338.0, -300.0, -251.0, -192.0, -133.0, -73.0, -20.0, 27.0, 65.0, 97.0, 121.0, 133.0, 143.0, 153.0, 166.0, 175.0, 181.0, 186.0, 193.0, 198.0, 213.0, 227.0, 265.0, 287.0, 301.0, 312.0, 322.0, 327.0, 328.0, 328.0, 328.0, 328.0, 328.0, 328.0, 328.0, 328.0, 328.0, 328.0, 328.0, 328.0, 328.0]	[0.0003386707976460457, 0.005001281737349927, 0.024009101325646043, 0.03383198694791645, 0.050695551675744355, 0.06686962337698787, 0.08406769460998476, 0.10042028350289911, 0.11734733625780791, 0.1338688851101324, 0.15071401780005544, 0.16707411606330425, 0.18399877939373255, 0.20042031770572066, 0.2174132476793602, 0.233724876656197, 0.25064749200828373, 0.2671004328876734, 0.28403977351263165, 0.3001585492165759, 0.31734091916587204, 0.3337419774616137, 0.35070964868646115, 0.367088861647062, 0.38402342365588993, 0.40038249792996794, 0.41734129458200186, 0.4337693181587383, 0.4506233255378902, 0.4670718291308731, 0.4839947858126834, 0.5001176575897262, 0.5172303954605013, 0.5336655870778486, 0.550633599748835, 0.567050700658001, 0.5838849106803536, 0.6004115795949474, 0.6172986961901188, 0.6338062504073605, 0.6510329935699701, 0.6670346921309829, 0.6839419474126771, 0.7001911124680191, 0.7173809916712344, 0.733795020612888, 0.750669507891871, 0.7670767102390528, 0.7840481362072751, 0.8004304211353883, 0.8173605457413942, 0.8337885694345459, 0.850721083348617, 0.8670921042794362, 0.8840478289639577, 0.9001747966976836, 0.9172506706090644, 0.9336623102426529, 0.9505842429352924, 0.9670412797713652, 0.9839522897964343, 1.0004065961111337, 1.0172384168254212, 1.0336988670751452, 1.0506105597596616, 1.0670297086471692, 1.0840574546018615, 1.1001048916950822, 1.1172538108658046, 1.133648383896798, 1.150740300421603, 1.167011993471533, 1.1839318780694157, 1.200347954989411, 1.217288661049679, 1.2336842579534277, 1.2505870759487152, 1.267023632884957, 1.2840728828450665, 1.3004404904786497, 1.3172883538063616, 1.33369384938851, 1.3505819900892675, 1.3670171817066148, 1.3840206930181012, 1.4003855700138956, 1.417229678714648, 1.4336884221993387, 1.4506854482460767, 1.467131562414579, 1.4841132283909246, 1.500202649505809, 1.5172771580982953, 1.533728392329067, 1.5506250663893297, 1.567057527252473, 1.583961028023623, 1.600405776873231, 1.6173137149307877, 1.633708970504813, 1.6506984871812165, 1.6670954494038597, 1.6839986087288707, 1.700420829700306]
3	images/0578.jpg	images/0433.jpg	left	1.984	[0.0, 0.0, 0.0, 0.0, 0.0, 0.0, 0.0, 0.0, 0.0, 0.0, 0.0, 0.0, 0.0, 0.0, 0.0, 0.0, 0.0, 0.0, 0.0, 0.0, 0.0, 0.0, 0.0, 0.0, 0.0, -3.0, -12.0, -26.0, -42.0, -72.0, -90.0, -109.0, -115.0, -119.0, -119.0, -119.0, -119.0, -119.0, -119.0, -116.0, -113.0, -113.0, -113.0, -113.0, -113.0, -113.0, -113.0, -113.0, -113.0, -113.0, -113.0, -113.0, -112.0, -112.0, -112.0, -111.0, -111.0, -116.0, -128.0, -146.0, -161.0, -166.0, -166.0, -166.0, -166.0, -159.0, -150.0, -137.0, -105.0, -59.0, -1.0, 57.0, 122.0, 189.0, 255.0, 305.0, 348.0, 389.0, 440.0, 463.0, 485.0, 504.0, 522.0, 538.0, 554.0, 561.0, 567.0, 571.0, 574.0, 578.0, 580.0, 580.0, 580.0, 580.0, 578.0, 568.0, 546.0, 492.0, 373.0, 195.0, -16.0, -226.0, -477.0, -607.0, -702.0, -742.0, -748.0, -748.0, -748.0, -748.0, -748.0, -749.0, -750.0, -751.0, -751.0, -751.0, -751.0, -751.0, -751.0, -751.0]	[-490.0, -490.0, -490.0, -490.0, -490.0, -490.0, -490.0, -490.0, -490.0, -490.0, -490.0, -490.0, -490.0, -490.0, -490.0, -490.0, -490.0, -490.0, -490.0, -490.0, -486.0, -480.0, -469.0, -452.0, -427.0, -395.0, -348.0, -308.0, -268.0, -197.0, -149.0, -111.0, -89.0, -79.0, -72.0, -68.0, -68.0, -68.0, -66.0, -65.0, -64.0, -64.0, -64.0, -64.0, -64.0, -64.0, -64.0, -64.0, -64.0, -64.0, -64.0, -64.0, -64.0, -64.0, -64.0, -64.0, -65.0, -68.0, -68.0, -68.0, -67.0, -65.0, -63.0, -61.0, -56.0, -49.0, -41.0, -33.0, -18.0, 2.0, 24.0, 42.0, 59.0, 78.0, 99.0, 116.0, 134.0, 153.0, 172.0, 178.0, 184.0, 190.0, 199.0, 206.0, 216.0, 218.0, 221.0, 224.0, 227.0, 232.0, 235.0, 235.0, 235.0, 235.0, 236.0, 236.0, 233.0, 233.0, 233.0, 231.0, 231.0, 231.0, 232.0, 249.0, 264.0, 274.0, 276.0, 276.0, 276.0, 276.0, 276.0, 277.0, 280.0, 281.0, 281.0, 281.0, 281.0, 281.0, 281.0, 281.0]	[0.006976986303925514, 0.010524120414629579, 0.014722859603352845, 0.030902051366865635, 0.04727375495713204, 0.06423528224695474, 0.08068958856165409, 0.09758114255964756, 0.11403954471461475, 0.1308734135236591, 0.1473819917300716, 0.16425374837126583, 0.1809244598262012, 0.19756342738401145, 0.2141242295037955, 0.2308806156506762, 0.24736837251111865, 0.2642425185767934, 0.28069136349949986, 0.2975392268272117, 0.31408978905528784, 0.33085197780746967, 0.3474059533327818, 0.3642183180199936, 0.3806152802426368, 0.3975396022433415, 0.41403077251743525, 0.4307741879019886, 0.44732748076785356, 0.46416681085247546, 0.4806433037156239, 0.4974874124163762, 0.5139649293851107, 0.5308356620371342, 0.547358576208353, 0.5642040502279997, 0.5806187618291005, 0.5975144119001925, 0.6138137528905645, 0.630772890872322, 0.6473661196650937, 0.6641484471037984, 0.6806416653562337, 0.6974984033731744, 0.7139561229851097, 0.7309234528802335, 0.7472258659545332, 0.7641150306444615, 0.7806696888292208, 0.7975274508353323, 0.8139605943579227, 0.8307763724587858, 0.8472753933165222, 0.8641857206821442, 0.880598725634627, 0.8975899489596486, 0.914021385833621, 0.9308156599290669, 0.9473494967678562, 0.9641424055444077, 0.9806185570778325, 0.9974585698219016, 1.0139951372984797, 1.0308252513641492, 1.0472761442651972, 1.0641659916145727, 1.0806301964912564, 1.0975094626192003, 1.1139443127904087, 1.130809242837131, 1.1472082531545311, 1.1641455458011478, 1.1805660600075498, 1.197456248686649, 1.2137644643662497, 1.2308191756019369, 1.2472905485192314, 1.264139777282253, 1.2806258274940774, 1.2974648161325604, 1.3139788557309657, 1.3307782497722656, 1.3473339319461957, 1.364145272760652, 1.3806036749156192, 1.3975126369623467, 1.4139802552526817, 1.430764289223589, 1.4472817421192303, 1.4641439415281639, 1.4805968824075535, 1.4974932151380926, 1.5137273614527658, 1.5308619446586818, 1.5473357068840414, 1.5641449996037409, 1.5805877005914226, 1.5974959798622876, 1.6138728035148233, 1.6307759628398344, 1.6473333517787978, 1.6641607350902632, 1.680547116091475, 1.697439011419192, 1.7139247203012928, 1.7308739596046507, 1.7471750072436407, 1.764204459846951, 1.7805829901481047, 1.7974619148299098, 1.8138855011202395, 1.830802996410057, 1.8473037240328267, 1.8643171339062974, 1.880615109577775, 1.8976558261783794, 1.914008415187709, 1.9307931319344789, 1.9472522168653086, 1.964126362814568]
4	images/0150.jpg	images/0223.jpg	right	1.672	[0.0, 0.0, 0.0, 0.0, 0.0, 0.0, 0.0, 0.0, 0.0, 0.0, 0.0, 0.0, 0.0, 0.0, 0.0, -2.0, -10.0, -12.0, -12.0, -12.0, -12.0, -12.0, -12.0, -12.0, -12.0, -12.0, -12.0, -12.0, -12.0, -12.0, -12.0, -12.0, -13.0, -13.0, -13.0, -13.0, -13.0, -9.0, -4.0, 0.0, 0.0, 0.0, 0.0, 2.0, 3.0, 7.0, 9.0, 11.0, 17.0, 22.0, 24.0, 24.0, 21.0, 14.0, 3.0, -9.0, -28.0, -38.0, -43.0, -47.0, -49.0, -52.0, -53.0, -61.0, -66.0, -72.0, -76.0, -76.0, -76.0, -33.0, 30.0, 118.0, 199.0, 289.0, 368.0, 434.0, 474.0, 497.0, 517.0, 533.0, 549.0, 555.0, 559.0, 564.0, 575.0, 593.0, 611.0, 629.0, 640.0, 647.0, 654.0, 658.0, 659.0, 659.0, 659.0, 659.0, 659.0, 659.0, 659.0, 659.0, 659.0]	[-490.0, -490.0, -490.0, -490.0, -490.0, -490.0, -490.0, -490.0, -490.0, -490.0, -490.0, -490.0, -490.0, -490.0, -490.0, -484.0, -476.0, -476.0, -476.0, -476.0, -476.0, -476.0, -476.0, -476.0, -476.0, -476.0, -476.0, -476.0, -476.0, -475.0, -478.0, -480.0, -484.0, -488.0, -490.0, -491.0, -492.0, -493.0, -493.0, -493.0, -493.0, -491.0, -490.0, -486.0, -484.0, -479.0, -473.0, -465.0, -447.0, -421.0, -401.0, -386.0, -375.0, -364.0, -348.0, -331.0, -304.0, -290.0, -281.0, -274.0, -269.0, -260.0, -245.0, -224.0, -208.0, -195.0, -185.0, -170.0, -161.0, -112.0, -63.0, 5.0, 78.0, 142.0, 183.0, 206.0, 214.0, 215.0, 215.0, 215.0, 215.0, 215.0, 215.0, 218.0, 223.0, 234.0, 245.0, 258.0, 271.0, 280.0, 288.0, 292.0, 295.0, 296.0, 296.0, 296.0, 296.0, 296.0, 296.0, 296.0, 296.0]	[0.01140677381772548, 0.015612339717335999, 0.022873178590089083, 0.03934591682627797, 0.05623781215399504, 0.07263784646056592, 0.08963248308282346, 0.10594581870827824, 0.1229885834036395, 0.13925652171019465, 0.1562354570487514, 0.1726726966444403, 0.1896065758774057, 0.20604040217585862, 0.2229534601792693, 0.23926952644251287, 0.25622252048924565, 0.2725505334092304, 0.2896281140856445, 0.30591755639761686, 0.3229941129684448, 0.3392722912831232, 0.35626487992703915, 0.3725942582823336, 0.38956500159110874, 0.4059152011759579, 0.4230409096926451, 0.43924433609936386, 0.45621132478117943, 0.4726130657363683, 0.48965548898559064, 0.5059019232867286, 0.5229528798954561, 0.5392928395885974, 0.5562233055243269, 0.5726567904930562, 0.589633677736856, 0.6059831947786734, 0.6229119540657848, 0.6393478283425793, 0.6562062730081379, 0.6725417952984571, 0.6895688585937023, 0.7056818316923454, 0.7229256415739655, 0.7390891319373623, 0.7562926644459367, 0.7726821174146608, 0.7896279434207827, 0.8060542603489012, 0.8229400116251782, 0.8393311712425202, 0.8561844959622249, 0.8726555275497958, 0.8895194336073473, 0.9059839798137546, 0.9230182110331953, 0.9393684107344598, 0.9563060447108, 0.9724074124824256, 0.989609238342382, 1.0060461366083473, 1.022920965217054, 1.0393254369264469, 1.0561794441891834, 1.072653206414543, 1.0895253045018762, 1.1059526454191655, 1.1229063221253455, 1.1392701750155538, 1.1562129290541634, 1.1727027338929474, 1.1894959839992225, 1.2059861301677302, 1.2228182922117412, 1.2390872546238825, 1.2561160245677456, 1.2724665654823184, 1.2895281034288928, 1.3059243829920888, 1.322787606390193, 1.3392449846724048, 1.356152239954099, 1.3725836769444868, 1.3894581642234698, 1.4059114465489984, 1.4228494218550622, 1.4392487733857706, 1.4560887861298397, 1.472627060371451, 1.48942543042358, 1.5057083874708042, 1.5228248799685389, 1.5392467596102506, 1.55614787095692, 1.5725758945336565, 1.5894841738045216, 1.6058971787570044, 1.6290364948799834, 1.639262153650634, 1.6561052383622155]
5	images/0523.jpg	images/0259.jpg	left	1.517	[0.0, 0.0, 0.0, 0.0, 0.0, 0.0, 0.0, 0.0, 0.0, 0.0, 0.0, 0.0, 0.0, 0.0, 0.0, 6.0, 13.0, 19.0, 26.0, 28.0, 28.0, 28.0, 28.0, 28.0, 28.0, 28.0, 28.0, 28.0, 28.0, 28.0, 28.0, 28.0, 28.0, 28.0, 28.0, 28.0, 28.0, 30.0, 28.0, 26.0, 24.0, 23.0, 23.0, 23.0, 23.0, 22.0, 21.0, 21.0, 20.0, 20.0, 18.0, 16.0, 16.0, 15.0, 14.0, 14.0, 17.0, 24.0, 29.0, 29.0, 27.0, 9.0, -28.0, -87.0, -205.0, -284.0, -366.0, -445.0, -515.0, -571.0, -600.0, -617.0, -629.0, -643.0, -651.0, -664.0, -669.0, -669.0, -669.0, -670.0, -674.0, -685.0, -695.0, -702.0, -705.0, -705.0, -705.0, -705.0, -705.0, -705.0, -705.0]	[-490.0, -490.0, -490.0, -490.0, -490.0, -490.0, -490.0, -490.0, -490.0, -490.0, -490.0, -490.0, -490.0, -490.0, -490.0, -487.0, -480.0, -472.0, -459.0, -456.0, -456.0, -456.0, -456.0, -456.0, -456.0, -456.0, -456.0, -456.0, -456.0, -456.0, -456.0, -456.0, -456.0, -456.0, -456.0, -456.0, -456.0, -457.0, -460.0, -461.0, -462.0, -463.0, -463.0, -463.0, -463.0, -462.0, -458.0, -454.0, -449.0, -442.0, -433.0, -423.0, -400.0, -372.0, -350.0, -326.0, -289.0, -247.0, -217.0, -191.0, -167.0, -138.0, -100.0, -54.0, 16.0, 60.0, 100.0, 139.0, 170.0, 193.0, 207.0, 215.0, 224.0, 234.0, 239.0, 248.0, 251.0, 251.0, 251.0, 252.0, 259.0, 280.0, 297.0, 312.0, 321.0, 326.0, 330.0, 331.0, 331.0, 331.0, 331.0]	[0.002458383794873953, 0.006459149764850736, 0.021289392840117216, 0.038199037429876626, 0.05440929054748267, 0.07170020428020507, 0.08805518259759992, 0.10490304604172707, 0.12127406697254628, 0.13827962626237422, 0.15464689256623387, 0.17154595581814647, 0.18800947815179825, 0.20491878141183406, 0.22127819701563567, 0.23820695641916245, 0.25466604134999216, 0.27158763259649277, 0.28799005621112883, 0.3049918608739972, 0.3213505938183516, 0.3382575078867376, 0.3546367207309231, 0.3715538748074323, 0.3879856530111283, 0.40490690304432064, 0.4213120572967455, 0.43830259796231985, 0.4547650961903855, 0.4715679035289213, 0.4879662311868742, 0.5048850919120014, 0.5212448488455266, 0.5382319760974497, 0.5547241703607142, 0.5715525777777657, 0.587966606603004, 0.6048905872739851, 0.6212390803266317, 0.6382238182704896, 0.6547061138553545, 0.6715556838316843, 0.6877819795627147, 0.7048186002066359, 0.7213735997211188, 0.7381921084597707, 0.7546177426120266, 0.7716069179587066, 0.7879830589517951, 0.8048240955686197, 0.8213224338833243, 0.8382078438298777, 0.8546385981608182, 0.8715424401452765, 0.8878779624355957, 0.9048824977362528, 0.9213292946806177, 0.9382587366271764, 0.9546143976040184, 0.9715390609344468, 0.9879971218761057, 1.0048367931740358, 1.021198598202318, 1.0382966587785631, 1.054617845104076, 1.0715189564507455, 1.0879746279679239, 1.1049156753579155, 1.121338237542659, 1.138180980924517, 1.1546349459094927, 1.1715251345885918, 1.1879511101869866, 1.2048648508498445, 1.2213403197238222, 1.2382421137299389, 1.2546957372687757, 1.2715149286668748, 1.2877576083410531, 1.3049034555442631, 1.32129836990498, 1.3381769532570615, 1.3546394514851272, 1.3715122321154922, 1.3879535677842796, 1.4048085991526023, 1.4212236520834267, 1.4382698299596086, 1.454675325541757, 1.4714986128965393, 1.487683266052045]
6	images/0586.jpg	images/0168.jpg	right	1.599	[0.0, -1.0, -1.0, -1.0, -1.0, -1.0, -1.0, -1.0, -1.0, -1.0, -1.0, -1.0, -1.0, -1.0, -1.0, -1.0, -2.0, -3.0, -10.0, -16.0, -24.0, -39.0, -53.0, -65.0, -71.0, -74.0, -74.0, -74.0, -74.0, -74.0, -74.0, -74.0, -74.0, -74.0, -74.0, -74.0, -74.0, -74.0, -74.0, -74.0, -74.0, -74.0, -74.0, -74.0, -74.0, -74.0, -74.0, -71.0, -68.0, -68.0, -68.0, -68.0, -67.0, -67.0, -65.0, -64.0, -60.0, -55.0, -45.0, -32.0, -21.0, -11.0, 5.0, 32.0, 93.0, 160.0, 266.0, 346.0, 441.0, 532.0, 597.0, 627.0, 644.0, 656.0, 665.0, 673.0, 683.0, 689.0, 691.0, 691.0, 691.0, 691.0, 693.0, 698.0, 700.0, 700.0, 701.0, 701.0, 701.0, 701.0, 701.0, 701.0, 701.0, 701.0, 701.0, 701.0]	[-490.0, -491.0, -491.0, -491.0, -491.0, -491.0, -491.0, -491.0, -491.0, -491.0, -491.0, -491.0, -491.0, -491.0, -491.0, -491.0, -489.0, -482.0, -463.0, -444.0, -414.0, -370.0, -328.0, -297.0, -269.0, -242.0, -217.0, -193.0, -173.0, -171.0, -171.0, -171.0, -171.0, -171.0, -171.0, -171.0, -171.0, -171.0, -171.0, -171.0, -171.0, -171.0, -171.0, -171.0, -171.0, -171.0, -170.0, -170.0, -170.0, -170.0, -171.0, -171.0, -175.0, -176.0, -177.0, -177.0, -177.0, -174.0, -165.0, -155.0, -141.0, -126.0, -105.0, -75.0, -32.0, 9.0, 70.0, 116.0, 157.0, 196.0, 226.0, 240.0, 246.0, 251.0, 255.0, 259.0, 265.0, 270.0, 273.0, 273.0, 273.0, 273.0, 284.0, 300.0, 314.0, 322.0, 331.0, 335.0, 337.0, 341.0, 342.0, 342.0, 342.0, 342.0, 342.0, 342.0]	[0.0033226393861696124, 0.006985826883465052, 0.02324489050079137, 0.039718994055874646, 0.056677449378184974, 0.07302218768745661, 0.09030764014460146, 0.1063956959405914, 0.12327905790880322, 0.13966475625056773, 0.15661297156475484, 0.1730150538496673, 0.18999501317739487, 0.2063769567757845, 0.2232736307196319, 0.23963407042901963, 0.2565645363647491, 0.2729621813632548, 0.2899482846260071, 0.3063834762433544, 0.32327434758190066, 0.3397494751261547, 0.35664546652697027, 0.3730274101253599, 0.3900735880015418, 0.4063241183757782, 0.42324093100614846, 0.4396566665964201, 0.4565854259999469, 0.47301344957668334, 0.4900046729017049, 0.5063139125704765, 0.5232976265251637, 0.5396553354803473, 0.5565929694566876, 0.5730220170225948, 0.5900436189258471, 0.6063699253136292, 0.6232898099115118, 0.6396591241937131, 0.6566349875647575, 0.6729455925524235, 0.6899934771936387, 0.7063402634812519, 0.7232157747494057, 0.7397062623640522, 0.7566264884080738, 0.7729824905982241, 0.7899890739936382, 0.8063099188730121, 0.8232513075927272, 0.839650317793712, 0.8566504158079624, 0.8729586314875633, 0.890086387982592, 0.9063515956513584, 0.9232834270223975, 0.9396940426668152, 0.9566313353134319, 0.9732228574575856, 0.9898553396342322, 1.0063253472326323, 1.0232343091629446, 1.039684860734269, 1.0565573001513258, 1.0729453876847401, 1.089935587020591, 1.1064711306244135, 1.1232899805763736, 1.139718345599249, 1.156574742286466, 1.173063864465803, 1.189886469161138, 1.2063489673892036, 1.2231517748441547, 1.2396944863721728, 1.256581261754036, 1.2729526240145788, 1.2899004979990423, 1.306354121537879, 1.3232040329603478, 1.3397143178153783, 1.356532143894583, 1.3727778955362737, 1.3898210014449432, 1.4063333343947306, 1.4231948510278016, 1.4396535946289077, 1.4565294473432004, 1.4729680522577837, 1.4898677982855588, 1.5063197151757777, 1.5232064905576408, 1.5396751327207312, 1.5565632734214887, 1.5730749237118289]
7	images/0534.jpg	images/0233.jpg	left	1.3	[0.0, 0.0, 0.0, 0.0, 0.0, 0.0, 0.0, 0.0, 0.0, 0.0, 0.0, 0.0, 0.0, 0.0, 0.0, -1.0, -8.0, -16.0, -28.0, -44.0, -68.0, -88.0, -89.0, -89.0, -89.0, -89.0, -89.0, -89.0, -89.0, -89.0, -89.0, -89.0, -89.0, -89.0, -89.0, -89.0, -89.0, -89.0, -90.0, -90.0, -88.0, -83.0, -80.0, -74.0, -63.0, -50.0, -42.0, -36.0, -31.0, -29.0, -35.0, -45.0, -57.0, -70.0, -88.0, -111.0, -135.0, -163.0, -202.0, -263.0, -353.0, -484.0, -557.0, -610.0, -656.0, -690.0, -711.0, -720.0, -726.0, -729.0, -730.0, -730.0, -730.0, -730.0, -730.0, -730.0, -730.0, -730.0]	[-490.0, -490.0, -490.0, -490.0, -490.0, -490.0, -490.0, -490.0, -490.0, -490.0, -490.0, -490.0, -490.0, -488.0, -478.0, -463.0, -445.0, -416.0, -377.0, -337.0, -283.0, -223.0, -214.0, -214.0, -214.0, -214.0, -214.0, -214.0, -214.0, -214.0, -214.0, -214.0, -214.0, -214.0, -214.0, -214.0, -214.0, -214.0, -214.0, -214.0, -215.0, -215.0, -215.0, -208.0, -192.0, -175.0, -156.0, -138.0, -110.0, -58.0, -33.0, -13.0, 2.0, 12.0, 21.0, 28.0, 35.0, 44.0, 65.0, 104.0, 147.0, 207.0, 230.0, 248.0, 268.0, 281.0, 289.0, 294.0, 300.0, 305.0, 308.0, 308.0, 308.0, 308.0, 308.0, 308.0, 308.0, 308.0]	[0.00476886797696352, 0.009293921641074121, 0.026250670314766467, 0.042419621953740716, 0.05966718646232039, 0.07595731155015528, 0.09313148935325444, 0.10908301186282188, 0.12624387780670077, 0.14264254667796195, 0.15957949799485505, 0.17594403366092592, 0.1929550542263314, 0.20933563250582665, 0.22618963988497853, 0.2426787621807307, 0.2595795321976766, 0.2760232570581138, 0.2929782990831882, 0.3092124453978613, 0.3261500793742016, 0.3426856229780242, 0.359531779657118, 0.37595161120407283, 0.3928660345263779, 0.40926948213018477, 0.42620643344707787, 0.44260373711586, 0.45955877914093435, 0.47594174672849476, 0.4928964473074302, 0.5092442577006295, 0.5261661902768537, 0.5425873872591183, 0.5594929358921945, 0.5759213007986546, 0.5928951161913574, 0.6092272251844406, 0.6261679311282933, 0.6423696508863941, 0.6595670393435284, 0.6760421668877825, 0.6929712676210329, 0.7092258939519525, 0.7261095972498879, 0.7425499088130891, 0.7595636601326987, 0.7758565158583224, 0.7928180431481451, 0.8092126160627231, 0.8260836900444701, 0.8425506256753579, 0.8595159077085555, 0.8757302566664293, 0.8927624399075285, 0.9092437115032226, 0.9261038629338145, 0.9425407611997798, 0.9594053498003632, 0.9759337253635749, 0.9929160739993677, 1.0092195109464228, 1.0260759077500552, 1.0425882405834273, 1.0594801359111443, 1.0760542501229793, 1.0928372602211311, 1.1092448037816212, 1.1260977871716022, 1.1425654053455219, 1.1594873380381614, 1.1760665721958503, 1.1927884836914018, 1.2092632699059322, 1.226122397230938, 1.2426115195266902, 1.2594883962301537, 1.275946798385121]
8	images/0278.jpg	images/0156.jpg	right	1.209	[0.0, 0.0, 0.0, 0.0, 0.0, 0.0, 0.0, 0.0, 0.0, 0.0, 0.0, 0.0, 0.0, 0.0, -4.0, -12.0, -14.0, -14.0, -14.0, -14.0, -14.0, -14.0, -14.0, -14.0, -14.0, -14.0, -14.0, -14.0, -14.0, -14.0, -14.0, -14.0, -14.0, -14.0, -14.0, -14.0, -14.0, -14.0, -14.0, -11.0, -8.0, -3.0, 16.0, 46.0, 86.0, 133.0, 192.0, 263.0, 346.0, 413.0, 470.0, 538.0, 572.0, 597.0, 613.0, 628.0, 641.0, 653.0, 660.0, 664.0, 665.0, 665.0, 665.0, 665.0, 667.0, 667.0, 667.0, 667.0, 667.0, 667.0, 667.0, 667.0, 667.0]	[-490.0, -490.0, -490.0, -490.0, -490.0, -490.0, -490.0, -490.0, -490.0, -490.0, -490.0, -490.0, -490.0, -490.0, -483.0, -470.0, -466.0, -466.0, -466.0, -466.0, -466.0, -466.0, -466.0, -466.0, -466.0, -466.0, -466.0, -466.0, -466.0, -466.0, -466.0, -466.0, -466.0, -466.0, -466.0, -466.0, -466.0, -466.0, -467.0, -468.0, -468.0, -466.0, -450.0, -416.0, -359.0, -293.0, -209.0, -114.0, -17.0, 68.0, 142.0, 245.0, 299.0, 333.0, 353.0, 368.0, 378.0, 384.0, 388.0, 391.0, 391.0, 391.0, 391.0, 391.0, 392.0, 392.0, 393.0, 393.0, 393.0, 393.0, 393.0, 393.0, 393.0]	[0.014842974720522761, 0.019508657744154334, 0.029759233817458153, 0.04623436136171222, 0.06321909930557013, 0.0795570109039545, 0.09651375957764685, 0.11268066335469484, 0.1297200146364048, 0.14623200614005327, 0.16311400278937072, 0.1795382717391476, 0.19637555384542793, 0.21287764667067677, 0.22974633134435862, 0.24617947498336434, 0.26311608497053385, 0.27958814054727554, 0.296455459902063, 0.31292307807598263, 0.32975967752281576, 0.34620783978607506, 0.3631523004733026, 0.37954345997422934, 0.39647051272913814, 0.4128736190032214, 0.4297631250228733, 0.4462048019049689, 0.4631963665597141, 0.4795667048310861, 0.4964312935480848, 0.5128651197301224, 0.5297662310767919, 0.5462294119643047, 0.563070107367821, 0.5795783442445099, 0.5964299623155966, 0.6128712978679687, 0.6297044839011505, 0.6461881448049098, 0.6630250855814666, 0.6795043090824038, 0.6963665084913373, 0.7128457319922745, 0.729818182066083, 0.7462100243428722, 0.7629715303191915, 0.7794609939446673, 0.7963491346454248, 0.8128307475708425, 0.82973356556613, 0.8461274558212608, 0.863157932413742, 0.879384569474496, 0.8963696487480775, 0.9128242962760851, 0.9297185810282826, 0.9461401192238554, 0.9630555666517466, 0.9792262249393389, 0.9963683175155893, 1.0125498985871673, 1.0297128125093877, 1.04588961484842, 1.0630030353786424, 1.0794064829824492, 1.096336949034594, 1.1127325459383428, 1.1297053372254595, 1.1460743101779372, 1.1630269628949463, 1.1795239357743412, 1.1964066150831059]
9	images/0583.jpg	images/0199.jpg	right	1.084	[0.0, 0.0, 0.0, 0.0, 0.0, 0.0, 0.0, 0.0, 0.0, 0.0, 0.0, 0.0, -3.0, -4.0, -4.0, -10.0, -29.0, -53.0, -53.0, -53.0, -53.0, -53.0, -53.0, -53.0, -53.0, -53.0, -53.0, -53.0, -53.0, -53.0, -53.0, -53.0, -53.0, -53.0, -53.0, -55.0, -55.0, -55.0, -50.0, -47.0, -45.0, -44.0, -41.0, -36.0, -34.0, -7.0, 57.0, 141.0, 217.0, 300.0, 391.0, 490.0, 575.0, 646.0, 709.0, 770.0, 793.0, 806.0, 814.0, 815.0, 815.0, 815.0, 815.0, 815.0, 815.0, 815.0]	[-490.0, -490.0, -490.0, -490.0, -490.0, -490.0, -490.0, -490.0, -490.0, -490.0, -490.0, -487.0, -475.0, -449.0, -409.0, -352.0, -302.0, -240.0, -230.0, -230.0, -230.0, -230.0, -230.0, -230.0, -230.0, -230.0, -230.0, -230.0, -230.0, -230.0, -230.0, -230.0, -230.0, -230.0, -230.0, -234.0, -237.0, -237.0, -240.0, -244.0, -245.0, -245.0, -245.0, -245.0, -242.0, -221.0, -170.0, -115.0, -64.0, 9.0, 78.0, 138.0, 187.0, 235.0, 280.0, 337.0, 364.0, 378.0, 387.0, 387.0, 387.0, 387.0, 387.0, 387.0, 387.0, 387.0]	[0.007749047712422907, 0.01288406376261264, 0.01720909622963518, 0.03223287523724139, 0.049032610608264804, 0.06542001548223197, 0.08241294545587152, 0.09885735309217125, 0.1156901977956295, 0.13218102673999965, 0.1490275247488171, 0.16547636967152357, 0.18238157697487622, 0.19885329122189432, 0.21558885602280498, 0.23209879954811186, 0.24892993760295212, 0.26542213174980134, 0.2822932058479637, 0.2987635547760874, 0.31561073544435203, 0.3320957616670057, 0.348996190354228, 0.36542694456875324, 0.38230177329387516, 0.3987827035598457, 0.41573467350099236, 0.4321005744859576, 0.4489689178299159, 0.46546998666599393, 0.4823130713775754, 0.4987574790138751, 0.5156207024119794, 0.5320746672805399, 0.5489570052595809, 0.5654539781389758, 0.5823325614910573, 0.5988974596839398, 0.6156538458308205, 0.632078456110321, 0.6489266607677564, 0.6652806150959805, 0.6825517315883189, 0.6986776753328741, 0.7158955438062549, 0.7320078342454508, 0.7492557400837541, 0.7653396998066455, 0.7825681497342885, 0.7986538161057979, 0.816491886973381, 0.8319928497076035, 0.8491260675946251, 0.8651960326824337, 0.8825763758504763, 0.8985374555923045, 0.915814716136083, 0.9318502065725625, 0.9492445443756878, 0.9652196188690141, 0.9825528579531237, 0.998550460441038, 1.0159860994899645, 1.0319130460266024, 1.049027149216272, 1.0651527516311035]
10	images/0230.jpg	images/0254.jpg	left	1.424	[0.0, 0.0, 0.0, 0.0, 0.0, 0.0, 0.0, -1.0, -1.0, -1.0, -1.0, 0.0, 0.0, 0.0, 2.0, 2.0, 2.0, 2.0, 2.0, 2.0, 2.0, 2.0, 2.0, 2.0, 2.0, 2.0, 2.0, 2.0, 2.0, 4.0, 4.0, 4.0, 4.0, 4.0, 4.0, 4.0, 4.0, 3.0, 3.0, 3.0, 3.0, 0.0, -6.0, -11.0, -13.0, -13.0, -13.0, -13.0, -13.0, -13.0, -13.0, -13.0, -13.0, -13.0, -8.0, -1.0, 4.0, 9.0, 13.0, 14.0, 14.0, 14.0, 14.0, 14.0, 14.0, 14.0, 14.0, 2.0, -33.0, -93.0, -191.0, -295.0, -400.0, -497.0, -571.0, -660.0, -698.0, -718.0, -727.0, -727.0, -727.0, -727.0, -727.0, -727.0, -727.0, -727.0]	[-490.0, -490.0, -490.0, -490.0, -490.0, -490.0, -490.0, -490.0, -490.0, -487.0, -486.0, -481.0, -476.0, -466.0, -440.0, -430.0, -430.0, -430.0, -430.0, -430.0, -430.0, -430.0, -430.0, -430.0, -430.0, -430.0, -430.0, -430.0, -437.0, -441.0, -443.0, -445.0, -445.0, -445.0, -445.0, -445.0, -446.0, -446.0, -445.0, -442.0, -433.0, -423.0, -404.0, -386.0, -370.0, -351.0, -324.0, -291.0, -253.0, -224.0, -201.0, -176.0, -162.0, -150.0, -135.0, -123.0, -115.0, -111.0, -109.0, -108.0, -108.0, -108.0, -108.0, -108.0, -108.0, -108.0, -108.0, -106.0, -91.0, -63.0, -11.0, 50.0, 112.0, 174.0, 227.0, 287.0, 310.0, 320.0, 325.0, 325.0, 325.0, 325.0, 325.0, 325.0, 325.0, 325.0]	[0.014908852055668831, 0.02099243295378983, 0.02954009792301804, 0.04641595063731074, 0.06278663023840636, 0.07983895216602832, 0.09621884778607637, 0.11310869513545185, 0.1295019027311355, 0.14641632605344057, 0.16275457898154855, 0.1796614930499345, 0.19614242331590503, 0.2130476306192577, 0.22945278487168252, 0.24643581616692245, 0.26256210124120116, 0.279653676552698, 0.2959277587942779, 0.313111835392192, 0.3294869522796944, 0.3464385810075328, 0.3625638420926407, 0.3797100306255743, 0.3958841023268178, 0.4130077628651634, 0.4293944851960987, 0.4464553404832259, 0.46282875072211027, 0.4798527420498431, 0.4962241043103859, 0.5132030396489426, 0.529481217963621, 0.5464161213021725, 0.5628130835248157, 0.5796916668768972, 0.5961920530535281, 0.6130163645138964, 0.6293078548042104, 0.6463076114887372, 0.6627800083952025, 0.6797002343228087, 0.6961794579401612, 0.713113337289542, 0.7294935742393136, 0.7464117521885782, 0.7627660478465259, 0.7797937938012183, 0.7959129108348861, 0.8130792380543426, 0.8293836991069838, 0.8463407889939845, 0.8627391166519374, 0.8796948413364589, 0.8960621075239033, 0.9129939388949424, 0.9294752104906365, 0.94636676448863, 0.9627640680409968, 0.9796996540389955, 0.9961498642805964, 1.0129854397382587, 1.0294124393258244, 1.046412878553383, 1.062758982181549, 1.0796542909229174, 1.0961365865077823, 1.113105964497663, 1.1293254335178062, 1.146425542072393, 1.1627259070519358, 1.1796389650553465, 1.196121601969935, 1.2129394280491397, 1.2294036329258233, 1.246310546877794, 1.2627122878329828, 1.27961032721214, 1.2960817001294345, 1.3129807634977624, 1.3293490537907928, 1.3463194557698444, 1.3624877247493714, 1.3797318759607151, 1.3961558035807684, 1.4129893309436738]
11	images/0497.jpg	images/0085.jpg	right	1.156	[0.0, 0.0, 0.0, 0.0, 0.0, 0.0, 0.0, 0.0, 0.0, 0.0, 0.0, 0.0, 0.0, 5.0, 5.0, 5.0, 5.0, 5.0, 5.0, 5.0, 5.0, 5.0, 5.0, 10.0, 13.0, 14.0, 15.0, 16.0, 16.0, 16.0, 15.0, 15.0, 16.0, 17.0, 17.0, 17.0, 18.0, 20.0, 23.0, 27.0, 38.0, 54.0, 80.0, 113.0, 160.0, 230.0, 276.0, 330.0, 389.0, 461.0, 528.0, 591.0, 637.0, 681.0, 720.0, 742.0, 753.0, 753.0, 753.0, 753.0, 753.0, 753.0, 753.0, 753.0, 753.0, 753.0, 753.0, 753.0, 753.0, 753.0]	[-490.0, -490.0, -490.0, -490.0, -490.0, -490.0, -490.0, -490.0, -490.0, -490.0, -485.0, -477.0, -460.0, -449.0, -449.0, -449.0, -449.0, -449.0, -449.0, -449.0, -449.0, -449.0, -450.0, -459.0, -462.0, -463.0, -466.0, -467.0, -467.0, -467.0, -464.0, -461.0, -457.0, -452.0, -445.0, -438.0, -427.0, -413.0, -393.0, -367.0, -322.0, -270.0, -209.0, -131.0, -58.0, 43.0, 101.0, 152.0, 198.0, 243.0, 271.0, 290.0, 303.0, 317.0, 322.0, 325.0, 327.0, 327.0, 327.0, 327.0, 327.0, 327.0, 327.0, 327.0, 327.0, 327.0, 327.0, 327.0, 327.0, 327.0]	[0.011641952325589955, 0.016116830054670572, 0.022640048060566187, 0.039550034096464515, 0.05590432963799685, 0.07295255560893565, 0.08927817922085524, 0.10616256529465318, 0.12260321818757802, 0.13950091623701155, 0.15593064646236598, 0.1729027550900355, 0.18907682679127902, 0.20620970334857702, 0.22254590829834342, 0.2394623797154054, 0.2558979126624763, 0.2728816266171634, 0.28920213016681373, 0.30612372152972966, 0.3225322891958058, 0.3395163444802165, 0.35590784542728215, 0.372799058095552, 0.38924278295598924, 0.4062968116486445, 0.42266066453885287, 0.4396044425666332, 0.4558836448704824, 0.47281581757124513, 0.489230529172346, 0.5061824991134927, 0.522381829447113, 0.5394959327531978, 0.5559263456379995, 0.5728496436495334, 0.589276643237099, 0.6062647945946082, 0.6226777994306758, 0.639522249577567, 0.6559543691109866, 0.6729315978009254, 0.6893258293857798, 0.7061211274703965, 0.7226061536930501, 0.7395157982828096, 0.7559311925433576, 0.7728654132224619, 0.78924530884251, 0.8062443828675896, 0.8226464651525021, 0.839533923077397, 0.8559138186974451, 0.8728203914361075, 0.8890825271373615, 0.9062474889215082, 0.9226355765713379, 0.9395418078638613, 0.9559674421325326, 0.9728842548793182, 0.9892890678020194, 1.0061877898406237, 1.0226898826658726, 1.0395203380612656, 1.0559183242730796, 1.0728522036224604, 1.0892850059317425, 1.1061806558864191, 1.122588540893048, 1.139541193493642]
12	images/0173.jpg	images/0440.jpg	left	1.097	[0.0, 0.0, 0.0, 0.0, 0.0, 0.0, 0.0, 0.0, 0.0, -2.0, -4.0, -10.0, -20.0, -20.0, -20.0, -20.0, -20.0, -20.0, -20.0, -20.0, -20.0, -20.0, -20.0, -20.0, -20.0, -20.0, -20.0, -20.0, -20.0, -19.0, -19.0, -19.0, -19.0, -19.0, -23.0, -29.0, -46.0, -72.0, -109.0, -152.0, -193.0, -227.0, -256.0, -281.0, -327.0, -354.0, -378.0, -385.0, -386.0, -387.0, -389.0, -393.0, -400.0, -410.0, -426.0, -447.0, -506.0, -564.0, -621.0, -671.0, -712.0, -733.0, -737.0, -737.0, -737.0, -737.0]	[-490.0, -490.0, -490.0, -490.0, -490.0, -490.0, -490.0, -490.0, -490.0, -487.0, -477.0, -462.0, -453.0, -453.0, -453.0, -453.0, -453.0, -453.0, -453.0, -453.0, -453.0, -453.0, -453.0, -453.0, -453.0, -453.0, -453.0, -453.0, -453.0, -453.0, -453.0, -453.0, -453.0, -452.0, -447.0, -442.0, -427.0, -405.0, -373.0, -331.0, -283.0, -236.0, -188.0, -143.0, -66.0, -18.0, 18.0, 36.0, 47.0, 60.0, 70.0, 86.0, 101.0, 119.0, 140.0, 159.0, 205.0, 247.0, 286.0, 323.0, 352.0, 368.0, 370.0, 370.0, 370.0, 370.0]	[0.002492858446203172, 0.008670305949635804, 0.021675099269486964, 0.03802393365185708, 0.054985460941679776, 0.07140290318056941, 0.08831288921646774, 0.10469449148513377, 0.12156249349936843, 0.13801918912213296, 0.15496979374438524, 0.17137460666708648, 0.18823851272463799, 0.2047208083095029, 0.22165263956412673, 0.23798645520582795, 0.2549288679147139, 0.27144632081035525, 0.28834231209475547, 0.3046897810418159, 0.3217595110181719, 0.33799160935450345, 0.35505178198218346, 0.3712439442751929, 0.38836521562188864, 0.40469800715800375, 0.4217656891560182, 0.43799573951400816, 0.4549289362039417, 0.4713624210562557, 0.4882648977218196, 0.5046891666715965, 0.5215687740128487, 0.5380288829328492, 0.5549532049335539, 0.5713334418833256, 0.5883615291677415, 0.6047779474174604, 0.6216193254804239, 0.6380135570652783, 0.6549204711336643, 0.6714406546670943, 0.6881861180299893, 0.7046991336392239, 0.7215783996507525, 0.7380798098165542, 0.7549147026147693, 0.7713761768536642, 0.7883202960947528, 0.8047824529930949, 0.8216091537615284, 0.8380143080139533, 0.8548795793903992, 0.8713847442995757, 0.8882353382650763, 0.9046776979230344, 0.9216023612534627, 0.9380713447462767, 0.9549069202039391, 0.9714073063805699, 0.988370198989287, 1.0047234706580639, 1.0215873767156154, 1.0380215442273766, 1.0549503036309034, 1.071435329853557]
13	images/0126.jpg	images/0499.jpg	right	1.391	[0.0, 0.0, 0.0, 0.0, 0.0, 0.0, 0.0, 0.0, -5.0, -15.0, -25.0, -25.0, -25.0, -25.0, -25.0, -25.0, -25.0, -25.0, -25.0, -25.0, -25.0, -25.0, -25.0, -25.0, -25.0, -25.0, -25.0, -19.0, -16.0, -16.0, -16.0, -16.0, -16.0, -16.0, -16.0, -16.0, -17.0, -18.0, -26.0, -36.0, -49.0, -65.0, -89.0, -122.0, -150.0, -186.0, -223.0, -280.0, -334.0, -370.0, -406.0, -433.0, -459.0, -481.0, -495.0, -507.0, -518.0, -523.0, -524.0, -525.0, -525.0, -527.0, -528.0, -528.0, -529.0, -529.0, -529.0, -527.0, -522.0, -516.0, -492.0, -410.0, -281.0, -122.0, 53.0, 237.0, 433.0, 603.0, 754.0, 857.0, 917.0, 920.0, 920.0, 920.0]	[-490.0, -490.0, -490.0, -490.0, -490.0, -490.0, -490.0, -490.0, -488.0, -475.0, -460.0, -460.0, -460.0, -460.0, -460.0, -460.0, -460.0, -460.0, -460.0, -460.0, -460.0, -460.0, -460.0, -460.0, -460.0, -460.0, -460.0, -465.0, -470.0, -473.0, -476.0, -477.0, -477.0, -477.0, -477.0, -478.0, -476.0, -462.0, -443.0, -421.0, -398.0, -368.0, -330.0, -283.0, -242.0, -192.0, -147.0, -95.0, -50.0, -14.0, 19.0, 43.0, 65.0, 85.0, 101.0, 119.0, 137.0, 145.0, 152.0, 158.0, 164.0, 169.0, 177.0, 187.0, 194.0, 203.0, 213.0, 227.0, 240.0, 250.0, 267.0, 295.0, 321.0, 345.0, 369.0, 394.0, 416.0, 433.0, 436.0, 436.0, 437.0, 437.0, 437.0, 437.0]	[0.014338825712911785, 0.021077083540149033, 0.028171010548248887, 0.04516359919216484, 0.06161995348520577, 0.07850945950485766, 0.09492826706264168, 0.11180138913914561, 0.1282734447158873, 0.14514042274095118, 0.16134453169070184, 0.17841392033733428, 0.19488870655186474, 0.21182292723096907, 0.22800553229171783, 0.24518414749763906, 0.2616961390012875, 0.278681218274869, 0.2948638233356178, 0.3118226199876517, 0.32824040355626494, 0.3451838402543217, 0.3615702212555334, 0.3784665538696572, 0.39492290816269815, 0.4118916034931317, 0.4281564698321745, 0.4450896664056927, 0.46145761536899954, 0.47840583068318665, 0.49483897432219237, 0.5118220056174323, 0.5281838105292991, 0.5451180312084034, 0.5615016815718263, 0.5784075715346262, 0.5949530137004331, 0.6117875650525093, 0.6281473221024498, 0.6450870040571317, 0.661473726388067, 0.6784117016941309, 0.6948202692437917, 0.711777017917484, 0.7282869614427909, 0.7450525634922087, 0.7615949336905032, 0.7785820610588416, 0.7948476100573316, 0.8118139160797, 0.8281985903158784, 0.8451502189273015, 0.861584386555478, 0.8783769538858905, 0.8949609667761251, 0.9117962007876486, 0.9282129604835063, 0.945127725135535, 0.9615895407041535, 0.9785647212993354, 0.9949381316546351, 1.0118279790040106, 1.0282413251698017, 1.0451103512896225, 1.0615837721852586, 1.0784251501318067, 1.094914272427559, 1.1118007064796984, 1.1282341913320124, 1.1451219907030463, 1.1615605956176296, 1.178578784223646, 1.1948777838842943, 1.2117867459310219, 1.2282215961022303, 1.2450718488544226, 1.2616517656715587, 1.2784784664399922, 1.2949099033139646, 1.3118543640011922, 1.3282325529726222, 1.3452050029300153, 1.3615586159285158, 1.3785791938425973]
14	images/0348.jpg	images/0480.jpg	left	1.464	[0.0, 0.0, 0.0, 0.0, 0.0, 0.0, 0.0, -2.0, -2.0, -2.0, -2.0, 1.0, 5.0, 8.0, 11.0, 13.0, 13.0, 13.0, 13.0, 13.0, 13.0, 13.0, 13.0, 13.0, 13.0, 13.0, 13.0, 13.0, 13.0, 13.0, 14.0, 14.0, 14.0, 14.0, 14.0, 9.0, 6.0, 1.0, 1.0, 1.0, 1.0, 1.0, 0.0, -2.0, -2.0, -3.0, -3.0, -4.0, -4.0, -4.0, -4.0, -4.0, -4.0, -5.0, -5.0, -5.0, -5.0, -5.0, -5.0, -5.0, -5.0, -5.0, -5.0, -5.0, -5.0, -5.0, -5.0, -5.0, -9.0, -24.0, -58.0, -109.0, -178.0, -299.0, -399.0, -511.0, -624.0, -707.0, -763.0, -802.0, -823.0, -836.0, -839.0, -839.0, -839.0, -839.0, -839.0, -839.0]	[-490.0, -490.0, -490.0, -490.0, -490.0, -490.0, -490.0, -491.0, -490.0, -486.0, -483.0, -478.0, -474.0, -471.0, -466.0, -466.0, -466.0, -466.0, -466.0, -466.0, -466.0, -466.0, -466.0, -466.0, -466.0, -466.0, -466.0, -466.0, -466.0, -466.0, -466.0, -466.0, -466.0, -467.0, -470.0, -471.0, -471.0, -471.0, -471.0, -471.0, -472.0, -472.0, -472.0, -472.0, -474.0, -475.0, -475.0, -477.0, -477.0, -477.0, -477.0, -477.0, -477.0, -477.0, -477.0, -477.0, -477.0, -477.0, -476.0, -475.0, -473.0, -471.0, -470.0, -470.0, -470.0, -470.0, -469.0, -465.0, -458.0, -442.0, -414.0, -360.0, -286.0, -143.0, -29.0, 80.0, 176.0, 249.0, 307.0, 346.0, 372.0, 386.0, 393.0, 399.0, 401.0, 402.0, 402.0, 402.0]	[0.015840043080970645, 0.02034427539911121, 0.029982158448547125, 0.049090671353042126, 0.06514630047604442, 0.0811903242720291, 0.09832832077518106, 0.11453720845747739, 0.13142910390160978, 0.14790184213779867, 0.16479271347634494, 0.18120981438551098, 0.19814642437268049, 0.21453382924664766, 0.23148921260144562, 0.24790767882950604, 0.26485452882479876, 0.2812340831151232, 0.29817990912124515, 0.31457994342781603, 0.3314356574555859, 0.34792341431602836, 0.36493580031674355, 0.3812518665799871, 0.39829804457258433, 0.4145530122332275, 0.43152000091504306, 0.4479026271728799, 0.4647993011167273, 0.48120104207191616, 0.4981874867808074, 0.5145752329844981, 0.5315039923880249, 0.5478760373080149, 0.5658782894024625, 0.5810669322963804, 0.598209707532078, 0.614344525965862, 0.6314838877879083, 0.6477531915297732, 0.6648631987627596, 0.681283371639438, 0.6983230642508715, 0.7145602826494724, 0.7314142900286242, 0.7478911242214963, 0.7647516168653965, 0.7810864566126838, 0.7981882718158886, 0.8145668021170422, 0.8314795187907293, 0.8480358836241066, 0.8649342643329874, 0.8811923039611429, 0.8983128925319761, 0.9144586336333305, 0.9314563422231004, 0.9476904885377735, 0.964875930454582, 0.9811745887855068, 0.9983078066725284, 1.014613633044064, 1.0315577522851527, 1.047903514583595, 1.0648565086303279, 1.0812998921610415, 1.098236502148211, 1.114627661765553, 1.1314099892042577, 1.1479131060186774, 1.1648155828006566, 1.1812558943638578, 1.198226637672633, 1.2145945866359398, 1.2314926258986816, 1.247946932213381, 1.264853504835628, 1.2812958644935861, 1.2982044850941747, 1.3146038367412984, 1.33146774279885, 1.3479131743079051, 1.3648682163329795, 1.381302383961156, 1.3981724339537323, 1.4146530228899792, 1.4315118088852614, 1.448034040397033]
15	images/0014.jpg	images/0365.jpg	right	1.306	[0.0, 0.0, 0.0, 0.0, 0.0, 0.0, 0.0, 0.0, 0.0, 0.0, -1.0, -2.0, -3.0, -5.0, -8.0, -11.0, -11.0, -11.0, -11.0, -11.0, -11.0, -11.0, -11.0, -11.0, -11.0, -11.0, -11.0, -11.0, -11.0, -11.0, -11.0, -11.0, -11.0, -11.0, -13.0, -14.0, -15.0, -17.0, -19.0, -20.0, -20.0, -20.0, -20.0, -21.0, -23.0, -24.0, -24.0, -25.0, -27.0, -28.0, -31.0, -33.0, -33.0, -33.0, -33.0, -33.0, -27.0, 1.0, 43.0, 108.0, 178.0, 252.0, 334.0, 418.0, 505.0, 577.0, 644.0, 741.0, 788.0, 814.0, 826.0, 828.0, 828.0, 828.0, 828.0, 828.0, 828.0, 828.0, 828.0]	[-490.0, -490.0, -490.0, -490.0, -490.0, -490.0, -490.0, -490.0, -490.0, -490.0, -491.0, -491.0, -490.0, -488.0, -485.0, -480.0, -479.0, -479.0, -479.0, -479.0, -479.0, -479.0, -479.0, -479.0, -479.0, -479.0, -479.0, -479.0, -479.0, -479.0, -479.0, -479.0, -479.0, -479.0, -481.0, -485.0, -487.0, -490.0, -490.0, -492.0, -492.0, -492.0, -492.0, -492.0, -486.0, -481.0, -478.0, -475.0, -467.0, -456.0, -438.0, -422.0, -405.0, -393.0, -380.0, -368.0, -334.0, -291.0, -243.0, -183.0, -123.0, -64.0, -3.0, 51.0, 110.0, 155.0, 193.0, 254.0, 279.0, 296.0, 301.0, 303.0, 303.0, 303.0, 303.0, 303.0, 303.0, 303.0, 303.0]	[0.007822092971764505, 0.01253487984649837, 0.016245171311311424, 0.03262779756914824, 0.048831906635314226, 0.06564256467390805, 0.08208116958849132, 0.0991198382107541, 0.11536558996886015, 0.13234862126410007, 0.14870086882729083, 0.16557774553075433, 0.1820791558129713, 0.19891234184615314, 0.21533456270117313, 0.23231657000724226, 0.24867598561104387, 0.265620787627995, 0.2820320859318599, 0.29897552251350135, 0.31529943959321827, 0.33232308947481215, 0.34867499582469463, 0.3656290137441829, 0.3818515548482537, 0.39890933805145323, 0.41534282302018255, 0.43231800361536443, 0.4486975579056889, 0.46562153857667, 0.4821434287587181, 0.4989779802272096, 0.5153636784525588, 0.5322736644884571, 0.5486853040056303, 0.5655795887578279, 0.5820984069723636, 0.598881758400239, 0.6153179738903418, 0.6322508292505518, 0.6485235462896526, 0.6655745028983802, 0.6819305052049458, 0.6988780378596857, 0.7153180080931634, 0.7323402926558629, 0.7484460978303105, 0.7656994649441913, 0.7819592113373801, 0.7988661252893507, 0.8152886875905097, 0.8322355375858024, 0.848716126405634, 0.8654946992173791, 0.8819841627264395, 0.8989979140460491, 0.9153013509931043, 0.932235230342485, 0.9487205978948623, 0.9655667545739561, 0.9820691888453439, 0.9988859909353778, 1.0153269851580262, 1.0321850884938613, 1.048705613357015, 1.0655934127280489, 1.081999932299368, 1.0988703237380832, 1.1153597872471437, 1.1321851225802675, 1.1486950662219897, 1.1655292762443423, 1.1819682224886492, 1.19891677913256, 1.2153635760769248, 1.2322349913883954, 1.2487049989867955, 1.2655426223063841, 1.2819580165669322]
16	images/0508.jpg	images/0131.jpg	right	1.456	[0.0, 0.0, 0.0, 0.0, 0.0, 0.0, 0.0, 0.0, 0.0, 0.0, 0.0, 0.0, 1.0, 9.0, 23.0, 44.0, 47.0, 47.0, 47.0, 47.0, 47.0, 47.0, 47.0, 47.0, 47.0, 47.0, 47.0, 47.0, 47.0, 47.0, 47.0, 47.0, 47.0, 47.0, 47.0, 47.0, 47.0, 47.0, 47.0, 47.0, 47.0, 51.0, 51.0, 53.0, 58.0, 62.0, 67.0, 68.0, 68.0, 68.0, 68.0, 69.0, 70.0, 71.0, 73.0, 83.0, 99.0, 138.0, 194.0, 263.0, 340.0, 420.0, 486.0, 538.0, 571.0, 591.0, 605.0, 615.0, 622.0, 623.0, 623.0, 623.0, 623.0, 623.0, 623.0, 623.0, 623.0, 623.0, 623.0, 623.0, 623.0, 623.0, 623.0, 625.0, 628.0, 631.0, 631.0, 631.0]	[-490.0, -490.0, -490.0, -490.0, -490.0, -490.0, -490.0, -490.0, -490.0, -490.0, -489.0, -488.0, -483.0, -470.0, -455.0, -429.0, -424.0, -424.0, -424.0, -424.0, -424.0, -424.0, -424.0, -424.0, -424.0, -424.0, -424.0, -424.0, -424.0, -424.0, -424.0, -424.0, -424.0, -424.0, -424.0, -424.0, -424.0, -424.0, -424.0, -424.0, -424.0, -424.0, -425.0, -427.0, -433.0, -435.0, -438.0, -439.0, -439.0, -439.0, -439.0, -439.0, -437.0, -436.0, -432.0, -417.0, -390.0, -338.0, -259.0, -166.0, -55.0, 39.0, 119.0, 176.0, 214.0, 237.0, 251.0, 258.0, 263.0, 263.0, 263.0, 263.0, 263.0, 263.0, 263.0, 263.0, 263.0, 263.0, 263.0, 263.0, 263.0, 263.0, 263.0, 264.0, 267.0, 270.0, 270.0, 270.0]	[0.007778402301482856, 0.011267509893514216, 0.0301449402468279, 0.033740885090082884, 0.048482040176168084, 0.06554221280384809, 0.08175451378338039, 0.09900515025947243, 0.11528367002028972, 0.13208033342380077, 0.14854999957606196, 0.1654596442822367, 0.18195013189688325, 0.198719147243537, 0.2151444401824847, 0.23213600483722985, 0.2484670898411423, 0.26546104380395263, 0.2818293340969831, 0.29875706939492375, 0.3150587996933609, 0.33216573495883495, 0.34850159857887775, 0.3655307098524645, 0.3818536028265953, 0.3990001326892525, 0.4151861510472372, 0.43209511309396476, 0.44853201135993004, 0.4654508719686419, 0.4818969862535596, 0.49876840168144554, 0.5152199772419408, 0.5320965126156807, 0.5485569628654048, 0.5654621701687574, 0.5818331910995767, 0.5987766277976334, 0.6151981659932062, 0.6321177093777806, 0.6483255730709061, 0.6654198790201917, 0.6818530225427821, 0.6987428698921576, 0.7152193627553061, 0.7321034074993804, 0.7485679537057877, 0.76549534779042, 0.7820779952453449, 0.7987405146704987, 0.8152289543068036, 0.8320949083426967, 0.8485290758544579, 0.8654254085849971, 0.8818821040913463, 0.8987719514407218, 0.9151928070932627, 0.932115763775073, 0.9485871366923675, 0.9654476293362677, 0.9819753222400323, 0.9986712923273444, 1.0151529052527621, 1.03203114727512, 1.0483905628789216, 1.0654350342229009, 1.0816988764563575, 1.0987409584922716, 1.11523827270139, 1.1320700934156775, 1.1485421489924192, 1.1654381402768195, 1.1818357852753252, 1.1987723952624947, 1.2151785735040903, 1.2321182554587722, 1.2485281884437427, 1.2654504624661058, 1.281641942099668, 1.2987700400408357, 1.3151745116338134, 1.3321531056426466, 1.3483299079816788, 1.3654457179363817, 1.3818839815212414, 1.39879874617327, 1.4151851270580664, 1.4320466438075528]
17	images/0094.jpg	images/0309.jpg	right	1.37	[0.0, 0.0, 0.0, 0.0, 0.0, 0.0, 0.0, 0.0, 0.0, 0.0, 2.0, 8.0, 24.0, 62.0, 91.0, 117.0, 136.0, 152.0, 161.0, 163.0, 163.0, 161.0, 161.0, 161.0, 161.0, 161.0, 161.0, 161.0, 161.0, 161.0, 161.0, 161.0, 161.0, 161.0, 161.0, 161.0, 161.0, 161.0, 161.0, 161.0, 161.0, 161.0, 161.0, 161.0, 161.0, 161.0, 161.0, 160.0, 160.0, 156.0, 151.0, 148.0, 154.0, 158.0, 161.0, 165.0, 169.0, 200.0, 243.0, 289.0, 321.0, 352.0, 395.0, 453.0, 508.0, 549.0, 581.0, 603.0, 619.0, 627.0, 631.0, 631.0, 631.0, 631.0, 632.0, 635.0, 639.0, 643.0, 647.0, 647.0, 647.0, 647.0]	[-490.0, -490.0, -490.0, -490.0, -490.0, -490.0, -490.0, -490.0, -490.0, -489.0, -485.0, -474.0, -436.0, -372.0, -310.0, -233.0, -168.0, -108.0, -58.0, -22.0, -6.0, 5.0, 5.0, 5.0, 5.0, 5.0, 5.0, 5.0, 5.0, 5.0, 5.0, 5.0, 5.0, 5.0, 5.0, 5.0, 5.0, 5.0, 5.0, 5.0, 5.0, 5.0, 5.0, 5.0, 5.0, 5.0, 5.0, 5.0, 5.0, 8.0, 8.0, 8.0, 0.0, -4.0, -4.0, -4.0, -4.0, -2.0, 13.0, 33.0, 47.0, 62.0, 90.0, 132.0, 174.0, 209.0, 236.0, 256.0, 268.0, 273.0, 276.0, 277.0, 278.0, 278.0, 279.0, 283.0, 289.0, 297.0, 305.0, 305.0, 305.0, 305.0]	[0.003083706018514931, 0.007811852963641286, 0.0227479093009606, 0.03951214603148401, 0.05590467096772045, 0.0729846409521997, 0.08923721930477768, 0.10616563726216555, 0.1225687435362488, 0.1394568842370063, 0.15590948378667235, 0.1727665631333366, 0.1892515893559903, 0.20608716481365263, 0.22270155628211796, 0.23948012897744775, 0.25590269127860665, 0.27276762132532895, 0.2892222688533366, 0.3060493109514937, 0.32259611843619496, 0.3394344245316461, 0.3558552800677717, 0.3727792607387528, 0.3892199136316776, 0.4062094303080812, 0.42253744322806597, 0.4394624480046332, 0.4558921782299876, 0.4727489162469283, 0.4892540811561048, 0.5062620297539979, 0.5225647840416059, 0.5395515700802207, 0.5558642230462283, 0.5728400863008574, 0.5892397792777047, 0.6074133806396276, 0.6225532129174098, 0.6396656094584614, 0.6558929291786626, 0.6727964298333973, 0.6892097761156037, 0.706139559391886, 0.722567924298346, 0.739466987666674, 0.755903203273192, 0.7727886133361608, 0.78930162882898, 0.8061143348459154, 0.8226341770496219, 0.839412749861367, 0.8558677387190983, 0.8727145781740546, 0.8892644576262683, 0.9062058463459834, 0.9226519605144858, 0.9393656799802557, 0.9558964448515326, 0.9727296308847144, 0.989233089145273, 1.0061307871947065, 1.0225816800957546, 1.0394046261208132, 1.0558415243867785, 1.0727515104226768, 1.0891993312397972, 1.106213765218854, 1.1225994635606185, 1.1394104629289359, 1.1559555637650192, 1.1727829471928999, 1.1892488587182015, 1.2061636233702302, 1.2226199776632711, 1.239423467661254, 1.2558586592786014, 1.2727348533226177, 1.289000060991384, 1.306108702905476, 1.322544235852547, 1.3394593418342993]
18	images/0490.jpg	images/0154.jpg	right	1.625	[0.0, 0.0, 0.0, 0.0, 0.0, 0.0, 0.0, 0.0, 0.0, 0.0, 0.0, 1.0, 4.0, 7.0, 13.0, 26.0, 34.0, 51.0, 53.0, 53.0, 53.0, 53.0, 53.0, 53.0, 53.0, 53.0, 53.0, 53.0, 53.0, 53.0, 53.0, 53.0, 53.0, 53.0, 53.0, 53.0, 53.0, 53.0, 53.0, 53.0, 53.0, 53.0, 53.0, 55.0, 55.0, 55.0, 55.0, 55.0, 55.0, 55.0, 55.0, 55.0, 55.0, 55.0, 55.0, 55.0, 55.0, 55.0, 55.0, 55.0, 55.0, 66.0, 92.0, 145.0, 215.0, 287.0, 346.0, 399.0, 432.0, 461.0, 492.0, 513.0, 530.0, 547.0, 567.0, 587.0, 603.0, 615.0, 617.0, 620.0, 620.0, 620.0, 620.0, 620.0, 620.0, 620.0, 620.0, 620.0, 620.0, 621.0, 626.0, 631.0, 638.0, 644.0, 654.0, 657.0, 658.0, 658.0]	[-490.0, -490.0, -490.0, -490.0, -490.0, -490.0, -490.0, -490.0, -490.0, -490.0, -485.0, -478.0, -467.0, -445.0, -411.0, -352.0, -287.0, -230.0, -223.0, -223.0, -223.0, -223.0, -223.0, -223.0, -223.0, -223.0, -223.0, -223.0, -223.0, -223.0, -223.0, -223.0, -223.0, -223.0, -223.0, -223.0, -223.0, -223.0, -223.0, -223.0, -223.0, -223.0, -223.0, -223.0, -223.0, -223.0, -226.0, -228.0, -229.0, -229.0, -229.0, -229.0, -229.0, -229.0, -229.0, -229.0, -229.0, -229.0, -229.0, -229.0, -228.0, -215.0, -190.0, -147.0, -87.0, -26.0, 26.0, 65.0, 89.0, 105.0, 123.0, 133.0, 142.0, 154.0, 168.0, 182.0, 194.0, 202.0, 204.0, 206.0, 207.0, 207.0, 207.0, 207.0, 207.0, 207.0, 207.0, 207.0, 207.0, 209.0, 224.0, 239.0, 261.0, 276.0, 295.0, 300.0, 302.0, 302.0]	[0.01463373750448227, 0.021880581858567894, 0.028988844831474125, 0.04529194044880569, 0.06336450728122145, 0.07929418445564806, 0.09530953620560467, 0.1124762047547847, 0.12883527902886271, 0.1457650624215603, 0.16225384327117354, 0.17908156802877784, 0.1956573888892308, 0.21242299093864858, 0.22889607050456107, 0.24577328853774816, 0.2620053868740797, 0.2791167594259605, 0.2953679724596441, 0.31237523839809, 0.3288343233289197, 0.345810869242996, 0.36218905821442604, 0.379110649577342, 0.39562093443237245, 0.41267120838165283, 0.42889477347489446, 0.44591842335648835, 0.4621983083197847, 0.4791260437341407, 0.4955564566189423, 0.5124405013630167, 0.5288521408801898, 0.545853262883611, 0.562225307803601, 0.5791301738936454, 0.5956213440513238, 0.6124436074169353, 0.6288480790099129, 0.6458048276836053, 0.6620113260578364, 0.6791093866340816, 0.6956889621214941, 0.7123559189494699, 0.7288330944720656, 0.7457744831917807, 0.7621734935091808, 0.7790810901205987, 0.7955640683649108, 0.8124563050223514, 0.8288317633559927, 0.8458359573269263, 0.8623090368928388, 0.8790882922476158, 0.8953688598703593, 0.9123884139116853, 0.9288232640828937, 0.9458107327809557, 0.96198582847137, 0.9790596544044092, 0.9955218113027513, 1.012785759754479, 1.02876458899118, 1.0458998548565432, 1.0622360598063096, 1.079116349807009, 1.09544538683258, 1.1124444607412443, 1.128573476569727, 1.1457111317431554, 1.1621429099468514, 1.1790324159665033, 1.1954990102676675, 1.2124240149278194, 1.2289697984233499, 1.245774312526919, 1.2619432642823085, 1.279040300869383, 1.2955051884055138, 1.3123407637467608, 1.3285677421372384, 1.3458494399674237, 1.36215014627669, 1.3790905108908191, 1.395495665143244, 1.4124650431331247, 1.4288193387910724, 1.4458187541458756, 1.4621225324226543, 1.4790270570665598, 1.4954475713893771, 1.512343904003501, 1.528809815645218, 1.5457399402512237, 1.5621389505686238, 1.5790335765341297, 1.5954424855299294, 1.6123613461386412]
19	images/0064.jpg	images/0399.jpg	right	1.195	[0.0, 0.0, 0.0, 0.0, 0.0, 0.0, 0.0, 0.0, 0.0, 1.0, 5.0, 8.0, 18.0, 31.0, 51.0, 73.0, 83.0, 83.0, 83.0, 83.0, 83.0, 83.0, 83.0, 83.0, 83.0, 83.0, 83.0, 83.0, 83.0, 83.0, 83.0, 83.0, 83.0, 83.0, 83.0, 83.0, 83.0, 83.0, 83.0, 83.0, 80.0, 80.0, 80.0, 80.0, 82.0, 83.0, 83.0, 83.0, 83.0, 83.0, 83.0, 84.0, 86.0, 87.0, 90.0, 94.0, 97.0, 101.0, 112.0, 142.0, 193.0, 262.0, 340.0, 413.0, 483.0, 542.0, 585.0, 622.0, 642.0, 657.0, 657.0, 657.0]	[-490.0, -490.0, -490.0, -490.0, -490.0, -490.0, -490.0, -490.0, -490.0, -490.0, -488.0, -485.0, -479.0, -467.0, -448.0, -408.0, -378.0, -378.0, -378.0, -378.0, -378.0, -378.0, -378.0, -378.0, -378.0, -378.0, -378.0, -378.0, -378.0, -378.0, -378.0, -378.0, -378.0, -378.0, -378.0, -378.0, -378.0, -378.0, -378.0, -376.0, -374.0, -374.0, -373.0, -372.0, -369.0, -368.0, -367.0, -367.0, -366.0, -363.0, -359.0, -354.0, -349.0, -343.0, -336.0, -330.0, -325.0, -314.0, -295.0, -252.0, -188.0, -119.0, -44.0, 32.0, 110.0, 180.0, 226.0, 260.0, 274.0, 284.0, 284.0, 284.0]	[0.0010701477294787765, 0.006479595671407878, 0.019076837226748466, 0.03556630073580891, 0.05256400932557881, 0.06900227291043848, 0.08594195498153567, 0.10232799453660846, 0.11913523927796632, 0.13562504411675036, 0.15242955822031945, 0.16902654175646603, 0.18576688517350703, 0.20240380463656038, 0.21908031881321222, 0.23551312100607902, 0.2524405149742961, 0.2688869705889374, 0.2857054793275893, 0.302211326896213, 0.31906738225370646, 0.33556264848448336, 0.3523842291906476, 0.3688682314241305, 0.3857178014004603, 0.402223648969084, 0.4190940404077992, 0.43550738657359034, 0.4524859805824235, 0.4689082015538588, 0.48571885959245265, 0.5021721418015659, 0.5191882824292406, 0.5355224394006655, 0.5524180894717574, 0.5688932170160115, 0.5857066056923941, 0.6022039199015126, 0.6191190259996802, 0.6355313481763005, 0.6524130036123097, 0.668933869805187, 0.685732239857316, 0.7020425035152584, 0.7191682120319456, 0.7355375263141468, 0.7524092830717564, 0.7688775839051232, 0.7856971166329458, 0.8021183136152104, 0.8191979421535507, 0.8355112777790055, 0.8523803038988262, 0.8688602100592107, 0.8857934067491442, 0.9023275849176571, 0.9190651976969093, 0.9353348427684978, 0.9524021833203733, 0.9686933322809637, 0.985674315597862, 1.0022815391421318, 1.0190932211698964, 1.0354123595170677, 1.0523121055448428, 1.068800886394456, 1.0856835657032207, 1.102077114628628, 1.1189857353456318, 1.1354345802683383, 1.1523633395554498, 1.1687548405025154]
20	images/0328.jpg	images/0358.jpg	right	1.022	[0.0, 0.0, 0.0, 0.0, 0.0, 0.0, 0.0, 0.0, 0.0, 0.0, -1.0, -2.0, -2.0, -8.0, -16.0, -16.0, -16.0, -16.0, -16.0, -16.0, -16.0, -16.0, -16.0, -16.0, -16.0, -16.0, -16.0, -16.0, -16.0, -16.0, -16.0, -16.0, -16.0, -16.0, -16.0, -16.0, -14.0, -8.0, -7.0, -7.0, -7.0, -7.0, -3.0, 13.0, 82.0, 152.0, 246.0, 352.0, 462.0, 574.0, 684.0, 778.0, 840.0, 878.0, 900.0, 911.0, 911.0, 911.0, 911.0, 911.0, 911.0, 912.0]	[-490.0, -490.0, -490.0, -490.0, -490.0, -490.0, -490.0, -490.0, -490.0, -490.0, -477.0, -461.0, -433.0, -389.0, -360.0, -360.0, -360.0, -360.0, -360.0, -360.0, -360.0, -360.0, -360.0, -360.0, -360.0, -360.0, -360.0, -360.0, -360.0, -360.0, -360.0, -360.0, -360.0, -360.0, -360.0, -360.0, -360.0, -359.0, -359.0, -357.0, -356.0, -355.0, -352.0, -337.0, -281.0, -218.0, -134.0, -37.0, 56.0, 152.0, 242.0, 322.0, 377.0, 408.0, 426.0, 433.0, 433.0, 433.0, 433.0, 433.0, 433.0, 433.0]	[0.008624225971288979, 0.01292877842206508, 0.017548381350934505, 0.033876394387334585, 0.05021021002903581, 0.06720621197018772, 0.08345093962270766, 0.10055787488818169, 0.11692684784065932, 0.1338532178197056, 0.15019659081008285, 0.16720795282162726, 0.18361856834962964, 0.2006459729745984, 0.21674529276788235, 0.23383652663324028, 0.25020072096958756, 0.2673796775052324, 0.2835680851712823, 0.3005818364908919, 0.3168678655056283, 0.3339365713763982, 0.3502365950262174, 0.367332607624121, 0.3836684712441638, 0.4004999506287277, 0.417019110172987, 0.43386321887373924, 0.45021307724528015, 0.4672780284890905, 0.4835876094875857, 0.5005371901206672, 0.516684296540916, 0.5339598503196612, 0.5501967273885384, 0.567342915921472, 0.5835511209443212, 0.6006874107988551, 0.6169140478596091, 0.6338639698224142, 0.6502616148209199, 0.6671849128324538, 0.6833951658336446, 0.7005314556881785, 0.716957772616297, 0.7338117799954489, 0.7502858835505322, 0.7672876882134005, 0.7835173972416669, 0.8005683538503945, 0.8168499454623088, 0.8338295634603128, 0.8502848936477676, 0.8672320849727839, 0.8835034366929904, 0.9004642813233659, 0.9166260650381446, 0.9338132136035711, 0.950128938537091, 0.9670669139595702, 0.9833450922742486, 1.0005755900638178]
21	images/0421.jpg	images/0410.jpg	left	1.171	[0.0, 0.0, 0.0, 0.0, 0.0, 0.0, 0.0, 0.0, 0.0, 0.0, 0.0, 0.0, 0.0, 0.0, 0.0, 0.0, -3.0, -7.0, -10.0, -12.0, -12.0, -12.0, -10.0, -3.0, 13.0, 34.0, 54.0, 80.0, 91.0, 91.0, 91.0, 91.0, 91.0, 91.0, 91.0, 91.0, 91.0, 91.0, 91.0, 91.0, 91.0, 91.0, 91.0, 91.0, 91.0, 91.0, 91.0, 91.0, 94.0, 95.0, 95.0, 89.0, 67.0, 41.0, -7.0, -88.0, -179.0, -279.0, -372.0, -461.0, -551.0, -631.0, -693.0, -741.0, -781.0, -823.0, -834.0, -840.0, -840.0, -840.0, -840.0]	[-490.0, -490.0, -490.0, -490.0, -490.0, -490.0, -490.0, -490.0, -490.0, -490.0, -490.0, -490.0, -487.0, -484.0, -480.0, -473.0, -457.0, -442.0, -425.0, -404.0, -374.0, -328.0, -272.0, -231.0, -188.0, -154.0, -125.0, -95.0, -84.0, -84.0, -84.0, -84.0, -84.0, -84.0, -84.0, -84.0, -84.0, -84.0, -84.0, -84.0, -84.0, -84.0, -84.0, -84.0, -84.0, -84.0, -84.0, -84.0, -84.0, -88.0, -91.0, -93.0, -93.0, -93.0, -82.0, -59.0, -22.0, 24.0, 59.0, 97.0, 140.0, 174.0, 213.0, 242.0, 272.0, 304.0, 314.0, 322.0, 323.0, 323.0, 323.0]	[0.00895395374391228, 0.013992031221278012, 0.018909618025645614, 0.03448465000838041, 0.05138234805781394, 0.06778920895885676, 0.08466437901370227, 0.10103915457148105, 0.1179713272722438, 0.1341341349761933, 0.15124926227144897, 0.1675666938535869, 0.18460263183806092, 0.20104328473098576, 0.21790889743715525, 0.23430688364896923, 0.25127933372277766, 0.2676940453238785, 0.28461563657037914, 0.3010426361579448, 0.3179318008478731, 0.33440761116798967, 0.3512059812201187, 0.36762171681039035, 0.3845282894326374, 0.40104335302021354, 0.4179601656505838, 0.4343127546599135, 0.45125209528487176, 0.467655201558955, 0.48463720886502415, 0.501019835122861, 0.5179441571235657, 0.5343783247517422, 0.5512121934443712, 0.5676600143779069, 0.5846256376244128, 0.6010761891957372, 0.6179291725857183, 0.6343551481841132, 0.6514829047955573, 0.6676856484264135, 0.6846287437947467, 0.7010909006930888, 0.7179397881263867, 0.7343753209570423, 0.7512924750335515, 0.7678201678209007, 0.7847229859326035, 0.8012005027849227, 0.8179995554964989, 0.8344241657759994, 0.8513662371551618, 0.8676160847535357, 0.8846192547352985, 0.9010619556065649, 0.9179705763235688, 0.9343627599300817, 0.9512911778874695, 0.9675430735806003, 0.9846046115271747, 1.0010305871255696, 1.0179378425236791, 1.0343648421112448, 1.0512546894606203, 1.067698072991334, 1.0846319523407146, 1.1011142479255795, 1.1178917966317385, 1.1344000335084274, 1.1513588301604614]
22	images/0039.jpg	images/0099.jpg	left	1.112	[0.0, 0.0, 0.0, 0.0, 0.0, 0.0, 0.0, 0.0, 0.0, 0.0, 0.0, 0.0, 0.0, 0.0, 3.0, 10.0, 11.0, 19.0, 34.0, 55.0, 77.0, 94.0, 99.0, 99.0, 99.0, 99.0, 99.0, 99.0, 99.0, 99.0, 99.0, 99.0, 99.0, 99.0, 99.0, 99.0, 99.0, 102.0, 104.0, 105.0, 106.0, 106.0, 101.0, 98.0, 94.0, 85.0, 69.0, 44.0, 13.0, -103.0, -217.0, -342.0, -459.0, -556.0, -629.0, -675.0, -702.0, -716.0, -724.0, -732.0, -739.0, -742.0, -742.0, -742.0, -742.0, -742.0, -742.0]	[-490.0, -490.0, -490.0, -490.0, -490.0, -490.0, -490.0, -490.0, -490.0, -490.0, -487.0, -477.0, -459.0, -416.0, -370.0, -308.0, -248.0, -191.0, -146.0, -102.0, -65.0, -27.0, -3.0, 7.0, 7.0, 7.0, 7.0, 7.0, 7.0, 7.0, 7.0, 7.0, 7.0, 7.0, 7.0, 7.0, 7.0, 7.0, 6.0, 4.0, 0.0, -3.0, -8.0, -11.0, -12.0, -12.0, -12.0, -9.0, -4.0, 29.0, 63.0, 105.0, 142.0, 185.0, 218.0, 248.0, 271.0, 287.0, 299.0, 309.0, 318.0, 322.0, 322.0, 322.0, 322.0, 322.0, 322.0]	[0.016362248570658267, 0.021471323329024017, 0.03255031502339989, 0.0488728666678071, 0.06692358804866672, 0.08297136647161096, 0.0993546755053103, 0.11640972807072103, 0.13222813059110194, 0.1495412311051041, 0.16572383616585284, 0.18265703285578638, 0.199135915027, 0.21601518103852868, 0.23241862864233553, 0.24931427871342748, 0.2657552729360759, 0.28269085893407464, 0.29912639188114554, 0.3159793751547113, 0.3324056920828298, 0.3493040727917105, 0.36573448579292744, 0.3826277464395389, 0.39905406336765736, 0.4159858946222812, 0.43235179560724646, 0.44928942958358675, 0.4656935598468408, 0.4826530391583219, 0.49903600686229765, 0.5159265368711203, 0.532381184399128, 0.5493713837349787, 0.5656918874010444, 0.5826663853367791, 0.599174622213468, 0.616079488187097, 0.6324214958585799, 0.6493536685593426, 0.6655017989687622, 0.682763016782701, 0.6989268484758213, 0.7159426477737725, 0.7323706713505089, 0.7492881666403264, 0.7657052676659077, 0.7825947736855596, 0.7990815065568313, 0.8159290285548195, 0.8323560281423852, 0.8492875181837007, 0.86580053367652, 0.882681165006943, 0.899053551373072, 0.9158976600738242, 0.9321058650966734, 0.9491909550270066, 0.9654530907282606, 0.9825839191908017, 0.999009553459473, 1.015903496881947, 1.0323185498127714, 1.0493408343754709, 1.065637444728054, 1.0826358359772712, 1.0991925422567874]
23	images/0291.jpg	images/0224.jpg	right	1.07	[0.0, 0.0, 0.0, 0.0, 0.0, 0.0, 0.0, 0.0, 0.0, 0.0, 0.0, 0.0, -1.0, -2.0, -3.0, -6.0, -10.0, -11.0, -11.0, -11.0, -11.0, -8.0, 3.0, 17.0, 37.0, 53.0, 59.0, 59.0, 61.0, 61.0, 61.0, 61.0, 61.0, 61.0, 61.0, 61.0, 61.0, 61.0, 61.0, 61.0, 61.0, 61.0, 63.0, 65.0, 69.0, 79.0, 90.0, 117.0, 176.0, 276.0, 382.0, 474.0, 564.0, 647.0, 744.0, 783.0, 805.0, 821.0, 832.0, 834.0, 835.0, 835.0, 835.0, 835.0, 835.0]	[-490.0, -490.0, -490.0, -490.0, -490.0, -490.0, -490.0, -490.0, -490.0, -490.0, -490.0, -490.0, -490.0, -487.0, -484.0, -479.0, -468.0, -455.0, -434.0, -406.0, -374.0, -336.0, -293.0, -253.0, -210.0, -177.0, -149.0, -147.0, -140.0, -140.0, -140.0, -140.0, -140.0, -140.0, -140.0, -140.0, -140.0, -140.0, -140.0, -140.0, -140.0, -140.0, -143.0, -145.0, -146.0, -142.0, -137.0, -120.0, -83.0, -22.0, 52.0, 121.0, 182.0, 237.0, 294.0, 316.0, 328.0, 337.0, 341.0, 343.0, 343.0, 343.0, 343.0, 343.0, 343.0]	[0.006143075181171298, 0.00955504144076258, 0.013310388894751668, 0.02893252484500408, 0.0453513324027881, 0.06228452909272164, 0.07864599267486483, 0.09568227198906243, 0.11180685041472316, 0.12904315092600882, 0.14533668919466436, 0.1622804672224447, 0.178657632204704, 0.1955556715838611, 0.21199871378485113, 0.2289267904125154, 0.24535344867035747, 0.2622374934144318, 0.2784904130967334, 0.29556560434866697, 0.3120564331766218, 0.32896266458556056, 0.34537123213522136, 0.36218632757663727, 0.37866043113172054, 0.3956154731567949, 0.41201584867667407, 0.42893163743428886, 0.4453088023001328, 0.462285689660348, 0.47847068402916193, 0.4956093631917611, 0.5120274882065132, 0.5289886741666123, 0.5453467244515195, 0.5622761663980782, 0.5786628887290135, 0.5956039360025898, 0.6119937303010374, 0.6289351190207526, 0.6453819158487022, 0.6622106645954773, 0.6786963734775782, 0.6955599382054061, 0.7120476950658485, 0.7289672384504229, 0.745367955416441, 0.7621639360440895, 0.7786161943804473, 0.7954811244271696, 0.81197058793623, 0.8288949099369347, 0.845323957502842, 0.8622052714927122, 0.8785066605778411, 0.895551131805405, 0.9118706114822999, 0.9289696960477158, 0.9453202369622886, 0.9623206763062626, 0.9786865772912279, 0.9956030485918745, 1.0120194668415934, 1.02891511679627, 1.0450734872138128]
24	images/0134.jpg	images/0219.jpg	right	1.241	[0.0, 0.0, 0.0, 0.0, 0.0, 0.0, 0.0, 0.0, 0.0, 0.0, 3.0, 5.0, 7.0, 8.0, 11.0, 14.0, 19.0, 28.0, 39.0, 47.0, 47.0, 47.0, 54.0, 61.0, 71.0, 78.0, 85.0, 86.0, 86.0, 86.0, 86.0, 86.0, 86.0, 86.0, 86.0, 86.0, 86.0, 86.0, 86.0, 86.0, 86.0, 86.0, 86.0, 83.0, 80.0, 77.0, 77.0, 77.0, 77.0, 77.0, 74.0, 68.0, 63.0, 53.0, 35.0, 16.0, 7.0, 7.0, 19.0, 42.0, 84.0, 160.0, 270.0, 406.0, 533.0, 639.0, 726.0, 789.0, 828.0, 849.0, 856.0, 856.0, 856.0, 856.0, 856.0]	[-490.0, -490.0, -490.0, -490.0, -490.0, -490.0, -490.0, -490.0, -490.0, -490.0, -487.0, -484.0, -483.0, -477.0, -470.0, -460.0, -438.0, -411.0, -363.0, -308.0, -256.0, -215.0, -147.0, -105.0, -62.0, -23.0, 5.0, 8.0, 8.0, 8.0, 8.0, 8.0, 8.0, 8.0, 8.0, 8.0, 8.0, 8.0, 8.0, 8.0, 8.0, 8.0, 8.0, 5.0, 1.0, 0.0, 0.0, 0.0, 0.0, 0.0, -3.0, -7.0, -7.0, -7.0, -5.0, 0.0, 3.0, 6.0, 36.0, 58.0, 89.0, 126.0, 167.0, 198.0, 217.0, 232.0, 257.0, 277.0, 297.0, 309.0, 316.0, 316.0, 316.0, 316.0, 316.0]	[0.01146415201947093, 0.016043819021433592, 0.021923282649368048, 0.03888003132306039, 0.055227841599844396, 0.07232590217608958, 0.08875836303923279, 0.10577757575083524, 0.12206394597887993, 0.13907360134180635, 0.15539308090228587, 0.172291120281443, 0.18848635465838015, 0.20560796721838415, 0.22209367610048503, 0.23907636606600136, 0.2553617124212906, 0.27227579441387206, 0.2886843620799482, 0.30561482801567763, 0.3218302010791376, 0.33891085360664874, 0.35533341590780765, 0.3722410126356408, 0.38865879620425403, 0.40553157683461905, 0.4219950991682708, 0.4389480930985883, 0.45531399408355355, 0.4722605027491227, 0.4886960356961936, 0.5055374136427417, 0.5219961572438478, 0.5388928313041106, 0.5554010681807995, 0.5723994594300166, 0.5886732004582882, 0.605566119775176, 0.6221474020276219, 0.6388734093634412, 0.6553516089916229, 0.672217563027516, 0.6887162425555289, 0.7055422606645152, 0.7220167055493221, 0.7388976782094687, 0.7553485711105168, 0.7722472931491211, 0.7888606606284156, 0.8055395641131327, 0.8221003662329167, 0.838965296279639, 0.8554400824941695, 0.8722548366058618, 0.8887367908610031, 0.9055542754940689, 0.921998341800645, 0.9389090104959905, 0.955370826064609, 0.9722070840653032, 0.9887211236637086, 1.0056027789833024, 1.022076541208662, 1.0389657058985904, 1.0552971322322264, 1.0721890275599435, 1.0887003364041448, 1.1055243065347895, 1.1219769060844555, 1.1388906467473134, 1.1553214009618387, 1.1722576696192846, 1.188674429198727, 1.205558815272525, 1.221968065481633]
25	images/0435.jpg	images/0504.jpg	right	1.148	[0.0, 0.0, 0.0, 0.0, 0.0, 0.0, 0.0, 6.0, 19.0, 44.0, 93.0, 151.0, 211.0, 264.0, 314.0, 358.0, 379.0, 390.0, 396.0, 397.0, 399.0, 411.0, 425.0, 429.0, 430.0, 430.0, 421.0, 420.0, 420.0, 420.0, 420.0, 420.0, 420.0, 420.0, 420.0, 420.0, 420.0, 420.0, 420.0, 420.0, 420.0, 420.0, 420.0, 414.0, 410.0, 408.0, 402.0, 395.0, 385.0, 376.0, 362.0, 348.0, 340.0, 340.0, 340.0, 346.0, 376.0, 422.0, 497.0, 574.0, 637.0, 676.0, 694.0, 706.0, 709.0, 709.0, 709.0, 709.0, 709.0]	[-490.0, -490.0, -490.0, -490.0, -490.0, -490.0, -489.0, -483.0, -471.0, -446.0, -392.0, -325.0, -255.0, -193.0, -136.0, -103.0, -82.0, -75.0, -72.0, -72.0, -72.0, -73.0, -74.0, -74.0, -74.0, -71.0, -66.0, -64.0, -63.0, -63.0, -63.0, -63.0, -63.0, -63.0, -63.0, -63.0, -63.0, -63.0, -63.0, -63.0, -63.0, -63.0, -63.0, -62.0, -62.0, -62.0, -65.0, -65.0, -65.0, -65.0, -65.0, -65.0, -64.0, -62.0, -54.0, -35.0, 18.0, 76.0, 140.0, 199.0, 244.0, 273.0, 288.0, 297.0, 299.0, 299.0, 299.0, 299.0, 299.0]	[0.0038678167620673776, 0.008378193131648004, 0.024242675630375743, 0.04059219267219305, 0.05777899990789592, 0.07402748218737543, 0.09106922277715057, 0.10736958775669336, 0.1242549978196621, 0.14047071221284568, 0.15756740747019649, 0.17396436969283968, 0.19102522497996688, 0.20735084859188646, 0.22425708000082523, 0.24073630350176245, 0.25757495092693716, 0.2738343558739871, 0.2909774724394083, 0.3073491760296747, 0.32425745541695505, 0.3407950469991192, 0.3576394970295951, 0.3741077978629619, 0.39128504774998873, 0.4071870769839734, 0.4241571376333013, 0.4407653850503266, 0.45761905109975487, 0.4740115760359913, 0.4909775407286361, 0.5073666523676366, 0.5242930223466828, 0.5407452805666253, 0.5576105519430712, 0.5739105755928904, 0.5909690415719524, 0.6073591770837083, 0.6242831577546895, 0.6407705734018236, 0.6576310660457239, 0.6737593990983441, 0.6909434756962582, 0.7075660591945052, 0.7246002904139459, 0.7405122183263302, 0.7576672815484926, 0.7741328517440706, 0.791278357617557, 0.8073892827378586, 0.8241982341278344, 0.8407300229882821, 0.8576024622889236, 0.8740055685630068, 0.8909674372989684, 0.9073811249108985, 0.9242552708601579, 0.9407136731315404, 0.9577072857646272, 0.9740680666873232, 0.9910562180448323, 1.0074583003297448, 1.0242447237251326, 1.0405491846613586, 1.0576352985808626, 1.0738602289929986, 1.0909306415123865, 1.1073542278027162, 1.1242812804412097]
26	images/0419.jpg	images/0510.jpg	right	1.29	[0.0, 0.0, 0.0, 0.0, 0.0, 0.0, 0.0, 0.0, 0.0, 0.0, -1.0, -1.0, 0.0, 7.0, 18.0, 27.0, 32.0, 34.0, 37.0, 37.0, 42.0, 62.0, 71.0, 76.0, 76.0, 76.0, 76.0, 76.0, 76.0, 76.0, 76.0, 76.0, 76.0, 76.0, 76.0, 76.0, 76.0, 76.0, 76.0, 76.0, 76.0, 76.0, 76.0, 76.0, 78.0, 78.0, 78.0, 78.0, 79.0, 79.0, 79.0, 79.0, 79.0, 79.0, 79.0, 79.0, 79.0, 79.0, 79.0, 79.0, 79.0, 79.0, 79.0, 79.0, 82.0, 103.0, 142.0, 198.0, 279.0, 387.0, 515.0, 630.0, 761.0, 820.0, 849.0, 855.0, 855.0, 855.0]	[-490.0, -490.0, -490.0, -490.0, -490.0, -490.0, -490.0, -490.0, -490.0, -490.0, -489.0, -486.0, -476.0, -456.0, -432.0, -393.0, -352.0, -299.0, -238.0, -176.0, -112.0, -51.0, -23.0, -1.0, -1.0, -1.0, -1.0, -1.0, -1.0, -1.0, -1.0, -1.0, -1.0, -1.0, -1.0, -1.0, -1.0, -1.0, -1.0, -1.0, -3.0, -7.0, -7.0, -8.0, -8.0, -8.0, -8.0, -8.0, -7.0, -7.0, -7.0, -7.0, -7.0, -7.0, -7.0, -7.0, -7.0, -7.0, -7.0, -7.0, -7.0, -7.0, -7.0, -7.0, -7.0, 0.0, 14.0, 46.0, 96.0, 171.0, 244.0, 308.0, 387.0, 421.0, 440.0, 444.0, 444.0, 444.0]	[0.012532831984572113, 0.018151858472265303, 0.024851545691490173, 0.041691217105835676, 0.05816907528787851, 0.07503912528045475, 0.09131491428706795, 0.10832491097971797, 0.12469797988887876, 0.14159089920576662, 0.1580656854202971, 0.17495075415354222, 0.19139516178984195, 0.20829183573368937, 0.2248099712887779, 0.24165442131925374, 0.25803602358791977, 0.2750815189210698, 0.2915167104220018, 0.30823793925810605, 0.3245802882593125, 0.34164250874891877, 0.3580346923554316, 0.37498324911575764, 0.391384307295084, 0.40829395200125873, 0.4247670315671712, 0.44160260690841824, 0.45808319584466517, 0.47497236053459346, 0.491143018938601, 0.5082953515229747, 0.5246830977266654, 0.541611174470745, 0.5580327126663178, 0.5749485013075173, 0.5913724289275706, 0.6082858282607049, 0.624602577299811, 0.6415910698706284, 0.6578426242340356, 0.674943074118346, 0.6914874922949821, 0.7082500224933028, 0.7247667926130816, 0.7416013440815732, 0.7580597462365404, 0.7749891882995144, 0.7911420973250642, 0.8082828245824203, 0.8247255254536867, 0.8416481408057734, 0.8580918656662107, 0.8748642944265157, 0.8913291820790619, 0.9082784213824198, 0.924688354250975, 0.9416683135787025, 0.9579017772339284, 0.9750425044912845, 0.9913111254572868, 1.008280162117444, 1.0247587030753493, 1.0415635583922267, 1.0577936087502167, 1.0749858773779124, 1.091445644851774, 1.1081897430121899, 1.124682278605178, 1.1415021526627243, 1.1579325655475259, 1.1748626901535317, 1.191316996468231, 1.2081781717715785, 1.2246696833753958, 1.241554410662502, 1.2579896022798494, 1.2750368042616174]
27	images/0496.jpg	images/0013.jpg	right	1.488	[0.0, 0.0, 0.0, 0.0, 0.0, 0.0, 0.0, -2.0, -5.0, -5.0, -5.0, -5.0, -5.0, -5.0, -5.0, -5.0, -5.0, -5.0, -5.0, -5.0, -5.0, -5.0, -5.0, -5.0, -5.0, -5.0, -5.0, -5.0, -5.0, -5.0, -5.0, -5.0, -5.0, -5.0, -5.0, -5.0, -5.0, -5.0, -5.0, -5.0, -5.0, -5.0, -5.0, -5.0, -5.0, -5.0, -5.0, -5.0, -5.0, -5.0, -5.0, -5.0, -5.0, -5.0, -5.0, -5.0, -5.0, -5.0, -5.0, -5.0, -5.0, -11.0, -13.0, -11.0, 19.0, 100.0, 225.0, 334.0, 503.0, 618.0, 726.0, 822.0, 901.0, 959.0, 959.0, 959.0, 959.0, 959.0, 959.0, 959.0, 959.0, 951.0, 909.0, 846.0, 782.0, 729.0, 678.0, 658.0, 657.0, 657.0]	[-490.0, -490.0, -490.0, -490.0, -490.0, -490.0, -490.0, -489.0, -475.0, -473.0, -473.0, -473.0, -473.0, -473.0, -473.0, -473.0, -473.0, -473.0, -473.0, -473.0, -473.0, -473.0, -473.0, -473.0, -473.0, -473.0, -473.0, -473.0, -473.0, -473.0, -473.0, -473.0, -473.0, -473.0, -473.0, -473.0, -473.0, -473.0, -473.0, -473.0, -473.0, -473.0, -473.0, -473.0, -473.0, -473.0, -473.0, -473.0, -473.0, -473.0, -473.0, -473.0, -473.0, -473.0, -473.0, -473.0, -473.0, -473.0, -473.0, -473.0, -473.0, -468.0, -463.0, -459.0, -451.0, -427.0, -386.0, -313.0, -179.0, -90.0, -11.0, 65.0, 119.0, 161.0, 197.0, 220.0, 236.0, 246.0, 253.0, 258.0, 267.0, 283.0, 318.0, 363.0, 401.0, 430.0, 451.0, 457.0, 457.0, 457.0]	[0.0078050263691693544, 0.011965536163188517, 0.01971960160881281, 0.032332203118130565, 0.04865748540032655, 0.0655145647469908, 0.08195931371301413, 0.09883277711924165, 0.11525294999592006, 0.13220287195872515, 0.14866161555983126, 0.16559003351721913, 0.18195115588605404, 0.1989041498163715, 0.21524172008503228, 0.23218413279391825, 0.2486606256570667, 0.265510878409259, 0.28202730731572956, 0.2989079386461526, 0.315126383677125, 0.3322456069290638, 0.3484968199627474, 0.36557576584164053, 0.3819420081563294, 0.3989772633649409, 0.4153257564175874, 0.4322627077344805, 0.4486098353518173, 0.4655191386118531, 0.48199802089948207, 0.4990339588839561, 0.5152462598634884, 0.5321787738939747, 0.5483245149953291, 0.5654618288390338, 0.5818666417617351, 0.5988128090975806, 0.6150128220906481, 0.6322054320480675, 0.6485539249842986, 0.6655499269254506, 0.6818687239428982, 0.6989821444731206, 0.715234381495975, 0.7322037594858557, 0.7485635164193809, 0.7654973957687616, 0.7818923100130633, 0.798905037343502, 0.8152251995634288, 0.8323116548126563, 0.8485451185842976, 0.8654602245660499, 0.8818547974806279, 0.8989429593784735, 0.9151951964013278, 0.9322116783587262, 0.9485297927167267, 0.9655264773173258, 0.9821200475562364, 0.9991252655163407, 1.0152573531959206, 1.0321478832047433, 1.048448248184286, 1.0654084101552144, 1.0817429084563628, 1.098805470392108, 1.1150645341258496, 1.1321400667075068, 1.148314479738474, 1.1654808069579303, 1.1816381533863023, 1.1990208857459947, 1.2152062214445323, 1.232194714131765, 1.2485862150788307, 1.265445001074113, 1.281666518189013, 1.298877218621783, 1.3151499356608838, 1.3321073669940233, 1.348600243916735, 1.365421141963452, 1.3819037787616253, 1.3988673541462049, 1.4149574579205364, 1.4321381211047992, 1.448544982005842, 1.4654815919930115]
28	images/0398.jpg	images/0581.jpg	left	1.358	[0.0, 0.0, 0.0, 0.0, 0.0, 0.0, 0.0, 0.0, -2.0, -5.0, -6.0, -5.0, 1.0, 10.0, 12.0, 12.0, 12.0, 12.0, 12.0, 12.0, 12.0, 12.0, 12.0, 12.0, 12.0, 12.0, 12.0, 12.0, 12.0, 12.0, 12.0, 12.0, 12.0, 13.0, 13.0, 14.0, 14.0, 14.0, 14.0, 14.0, 13.0, 8.0, -3.0, -21.0, -48.0, -87.0, -129.0, -172.0, -216.0, -247.0, -264.0, -269.0, -269.0, -266.0, -262.0, -262.0, -262.0, -262.0, -262.0, -262.0, -262.0, -262.0, -262.0, -262.0, -262.0, -262.0, -262.0, -262.0, -262.0, -262.0, -293.0, -355.0, -432.0, -504.0, -556.0, -613.0, -629.0, -636.0, -640.0, -641.0, -641.0, -641.0]	[-490.0, -490.0, -490.0, -490.0, -490.0, -490.0, -490.0, -490.0, -490.0, -490.0, -490.0, -489.0, -488.0, -486.0, -486.0, -486.0, -486.0, -486.0, -486.0, -486.0, -486.0, -486.0, -486.0, -486.0, -486.0, -486.0, -486.0, -486.0, -486.0, -486.0, -488.0, -488.0, -489.0, -490.0, -490.0, -490.0, -490.0, -490.0, -490.0, -490.0, -485.0, -476.0, -456.0, -426.0, -388.0, -335.0, -282.0, -222.0, -164.0, -122.0, -98.0, -82.0, -77.0, -74.0, -71.0, -71.0, -71.0, -71.0, -71.0, -71.0, -71.0, -71.0, -71.0, -71.0, -71.0, -71.0, -71.0, -71.0, -71.0, -68.0, -45.0, 9.0, 71.0, 130.0, 178.0, 238.0, 261.0, 276.0, 283.0, 285.0, 285.0, 285.0]	[0.01609805680345744, 0.02137404342647642, 0.03213149926159531, 0.048661922686733305, 0.06558249006047845, 0.08201256161555648, 0.09903279831632972, 0.11539972329046577, 0.13251075451262295, 0.14864864491391927, 0.1655562415253371, 0.18198938516434282, 0.19892087508924305, 0.21512122952844948, 0.23218174348585308, 0.2487121670274064, 0.26559245702810585, 0.2820354992290959, 0.29894889856223017, 0.3153421061579138, 0.33232616155873984, 0.3484678065869957, 0.36567099776584655, 0.3818525788374245, 0.39894586068112403, 0.4153708122903481, 0.4322487129829824, 0.44866581389214844, 0.465595597284846, 0.4818437382346019, 0.4990063108270988, 0.5153387611499056, 0.5323798190802336, 0.5486859867814928, 0.5656737966928631, 0.5820724656805396, 0.5988988250028342, 0.615316949901171, 0.6322262532776222, 0.6487058182246983, 0.6655611909227446, 0.6817250226158649, 0.6989527897676453, 0.7155716186389327, 0.7323140100343153, 0.7483993351925164, 0.7655148037010804, 0.7820281606400385, 0.7988555439515039, 0.8150733063230291, 0.8322058415506035, 0.8486205531517044, 0.8655076698632911, 0.88199508539401, 0.8989033647812903, 0.9153289990499616, 0.9323331930208951, 0.9486011313274503, 0.9655674372334033, 0.9820186715805903, 0.9989276335109025, 1.0152761264471337, 1.0323741871397942, 1.0484120668843389, 1.0656115034362301, 1.082018364337273, 1.098852233029902, 1.1153249712660909, 1.1324708184693009, 1.148675610194914, 1.1655828655930236, 1.1819569584913552, 1.1988928858190775, 1.2150679815094918, 1.2322486446937546, 1.248648337670602, 1.2655299929901958, 1.282054613926448, 1.2988246533786878, 1.3152615515282378, 1.3324200281640515, 1.348382814670913]
29	images/0405.jpg	images/0116.jpg	right	1.015	[0.0, 0.0, 0.0, 0.0, 0.0, 0.0, 0.0, 0.0, 0.0, 0.0, 0.0, 0.0, 0.0, 0.0, 0.0, 0.0, -2.0, -2.0, -2.0, -2.0, -2.0, -2.0, -2.0, -2.0, -2.0, -2.0, -2.0, -2.0, -2.0, -2.0, -2.0, -2.0, -2.0, -2.0, -2.0, -2.0, -2.0, -2.0, -5.0, -5.0, -5.0, -5.0, -5.0, 0.0, 4.0, 10.0, 24.0, 129.0, 243.0, 359.0, 463.0, 558.0, 648.0, 711.0, 754.0, 771.0, 776.0, 776.0, 776.0, 776.0, 776.0]	[-490.0, -490.0, -490.0, -490.0, -490.0, -490.0, -490.0, -490.0, -490.0, -490.0, -490.0, -490.0, -487.0, -480.0, -464.0, -439.0, -407.0, -399.0, -399.0, -399.0, -399.0, -399.0, -399.0, -399.0, -399.0, -399.0, -399.0, -399.0, -399.0, -399.0, -399.0, -399.0, -399.0, -399.0, -399.0, -399.0, -399.0, -399.0, -399.0, -399.0, -399.0, -401.0, -405.0, -402.0, -400.0, -396.0, -384.0, -299.0, -190.0, -84.0, 15.0, 123.0, 215.0, 279.0, 315.0, 332.0, 337.0, 337.0, 337.0, 337.0, 337.0]	[0.0015835469821467996, 0.006155021954327822, 0.019770801649428904, 0.03668215300422162, 0.053041568608023226, 0.06996520794928074, 0.08629151422064751, 0.10331038548611104, 0.11944929987657815, 0.13653268315829337, 0.15320544259157032, 0.1698877593735233, 0.18606183119118214, 0.20324556634295732, 0.21967461390886456, 0.23656241327989846, 0.25277983432170004, 0.2698212335817516, 0.286083027953282, 0.30307766457553953, 0.3196401734603569, 0.3366358340717852, 0.3528170738136396, 0.3699605315923691, 0.3863291632151231, 0.40329034929163754, 0.4196886768331751, 0.4367280281148851, 0.45307071844581515, 0.46994452318176627, 0.48640360799618065, 0.5032030021538958, 0.519633756368421, 0.5366683289175853, 0.5529772272566333, 0.5699053040007129, 0.5863527834881097, 0.6032484335592017, 0.6194354759063572, 0.6365591364447027, 0.652773485518992, 0.6698845167411491, 0.68633472698275, 0.7032430063700303, 0.719734859187156, 0.7365605359664187, 0.7530595568241552, 0.7699210735736415, 0.7860954866046086, 0.8032645444618538, 0.8194167708279565, 0.836656826082617, 0.8527803804026917, 0.8698415770195425, 0.8864221764961258, 0.9032355652889237, 0.9196509595494717, 0.9366073668934405, 0.9530149104539305, 0.9699136324925348, 0.9861665521748364]
30	images/0308.jpg	images/0354.jpg	right	1.379	[0.0, 0.0, 0.0, 0.0, 0.0, 0.0, 0.0, -1.0, -4.0, -5.0, -6.0, -6.0, -6.0, 0.0, 17.0, 37.0, 53.0, 66.0, 74.0, 92.0, 100.0, 104.0, 104.0, 104.0, 104.0, 104.0, 104.0, 104.0, 104.0, 104.0, 104.0, 104.0, 104.0, 104.0, 104.0, 104.0, 104.0, 104.0, 104.0, 104.0, 104.0, 104.0, 104.0, 104.0, 104.0, 104.0, 104.0, 105.0, 105.0, 105.0, 105.0, 103.0, 102.0, 100.0, 97.0, 94.0, 93.0, 93.0, 92.0, 92.0, 92.0, 91.0, 91.0, 89.0, 87.0, 87.0, 87.0, 87.0, 87.0, 89.0, 123.0, 198.0, 311.0, 430.0, 548.0, 643.0, 724.0, 781.0, 819.0, 830.0, 832.0, 832.0, 832.0]	[-490.0, -490.0, -490.0, -490.0, -490.0, -490.0, -490.0, -490.0, -490.0, -485.0, -465.0, -427.0, -345.0, -244.0, -156.0, -78.0, -23.0, 21.0, 45.0, 70.0, 81.0, 83.0, 83.0, 83.0, 83.0, 83.0, 83.0, 83.0, 83.0, 83.0, 83.0, 83.0, 83.0, 83.0, 83.0, 83.0, 83.0, 83.0, 83.0, 83.0, 83.0, 83.0, 83.0, 83.0, 83.0, 83.0, 83.0, 84.0, 84.0, 84.0, 84.0, 84.0, 83.0, 82.0, 82.0, 80.0, 78.0, 78.0, 78.0, 78.0, 78.0, 77.0, 77.0, 77.0, 77.0, 77.0, 77.0, 77.0, 77.0, 80.0, 101.0, 134.0, 179.0, 216.0, 240.0, 256.0, 266.0, 274.0, 282.0, 286.0, 287.0, 287.0, 287.0]	[0.0005827239947393537, 0.005065110977739096, 0.023655821452848613, 0.03424670675303787, 0.05071227694861591, 0.06766595365479589, 0.08407247322611511, 0.10089712589979172, 0.1174449574900791, 0.13437576487194747, 0.15080959105398506, 0.16767383844126016, 0.18412985128816217, 0.2009900027187541, 0.2172552103875205, 0.23441778298001736, 0.2507765159243718, 0.26765578193590045, 0.2838496509939432, 0.30096341285388917, 0.31744673242792487, 0.33441201434470713, 0.35050519020296633, 0.3676196347223595, 0.3839411623775959, 0.4009767590323463, 0.4174252625089139, 0.43436596856918186, 0.4507578108459711, 0.46771660749800503, 0.48411083908285946, 0.5010160463862121, 0.5174454353982583, 0.5344769359799102, 0.5507370235864073, 0.5676292603602633, 0.5840979025233537, 0.6009246032917872, 0.6171328083146363, 0.6343151781475171, 0.6507531004026532, 0.667636803817004, 0.684134459355846, 0.7009949519997463, 0.71735880500637, 0.7343261350179091, 0.7506729213055223, 0.7677433338249102, 0.7841399548342451, 0.800965290167369, 0.8171714472118765, 0.8345412090420723, 0.8507896913215518, 0.8675843067467213, 0.884043391677551, 0.9009643002646044, 0.9172383826225996, 0.9342845606151968, 0.9507521787891164, 0.9676099409116432, 0.9841055484721437, 1.0010875557782128, 1.0175480059115216, 1.034377437317744, 1.0508590502431616, 1.0676546896575019, 1.0841424465179443, 1.1010094245430082, 1.1173818107927218, 1.1343296848936006, 1.1507283537648618, 1.1676591611467302, 1.1840315473964438, 1.2009783973917365, 1.2173012903658673, 1.2343850149773061, 1.2505194919649512, 1.267657829914242, 1.2841274961829185, 1.300909823505208, 1.3174245457630605, 1.3344150864286348, 1.3507622140459716]
31	images/0542.jpg	images/0286.jpg	right	0.887	[0.0, 0.0, 0.0, 0.0, 0.0, 0.0, 0.0, 0.0, 0.0, 0.0, 1.0, 11.0, 31.0, 39.0, 39.0, 39.0, 39.0, 39.0, 39.0, 39.0, 39.0, 39.0, 39.0, 39.0, 39.0, 39.0, 39.0, 39.0, 39.0, 39.0, 39.0, 39.0, 39.0, 39.0, 39.0, 36.0, 36.0, 38.0, 61.0, 116.0, 206.0, 293.0, 386.0, 474.0, 559.0, 631.0, 679.0, 700.0, 706.0, 708.0, 708.0, 708.0, 708.0, 708.0]	[-490.0, -490.0, -490.0, -490.0, -490.0, -490.0, -490.0, -490.0, -490.0, -488.0, -483.0, -469.0, -450.0, -444.0, -444.0, -444.0, -444.0, -444.0, -444.0, -444.0, -444.0, -444.0, -444.0, -444.0, -444.0, -444.0, -444.0, -444.0, -444.0, -444.0, -444.0, -444.0, -444.0, -444.0, -445.0, -447.0, -447.0, -446.0, -419.0, -368.0, -280.0, -168.0, -40.0, 84.0, 201.0, 292.0, 348.0, 377.0, 384.0, 385.0, 385.0, 385.0, 385.0, 385.0]	[0.010228184633888304, 0.014653569087386131, 0.020220712875016034, 0.037243680213578045, 0.053617090452462435, 0.07061514048837125, 0.08691243338398635, 0.10390399803873152, 0.1202675097156316, 0.13717032771091908, 0.1534543086308986, 0.17055953724775463, 0.18696947023272514, 0.203873653546907, 0.220492823747918, 0.23723214317578822, 0.25361203867942095, 0.2705827821046114, 0.2869452696759254, 0.30388495163060725, 0.3202890818938613, 0.3372526572784409, 0.35360900091473013, 0.37056950421538204, 0.38669476530048996, 0.40391365776304156, 0.4203153987182304, 0.437211390119046, 0.45347796310670674, 0.4704422210343182, 0.48677535401657224, 0.5039044759469107, 0.5203120195074007, 0.5372032321756706, 0.5536384237930179, 0.5705951724667102, 0.5869122627191246, 0.6038823233684525, 0.6203513069776818, 0.6371708397055045, 0.6534473113715649, 0.6706784918205813, 0.6866924783680588, 0.7038690455956385, 0.7203509997343644, 0.7371258178027347, 0.753665798692964, 0.7704856727505103, 0.7869321283651516, 0.8038257303414866, 0.8202561432262883, 0.8371954839676619, 0.853461715625599, 0.8705765014747158]
32	images/0423.jpg	images/0411.jpg	left	1.372	[0.0, 0.0, 0.0, 0.0, 0.0, 0.0, -2.0, -8.0, -12.0, -12.0, -13.0, -13.0, -13.0, -13.0, -13.0, -13.0, -13.0, -13.0, -13.0, -13.0, -13.0, -13.0, -13.0, -13.0, -13.0, -13.0, -13.0, -14.0, -15.0, -16.0, -16.0, -16.0, -16.0, -16.0, -16.0, -16.0, -16.0, -16.0, -16.0, -16.0, -16.0, -16.0, -16.0, -15.0, -15.0, -15.0, -10.0, 6.0, 38.0, 96.0, 156.0, 217.0, 265.0, 310.0, 357.0, 430.0, 475.0, 508.0, 537.0, 551.0, 560.0, 561.0, 561.0, 557.0, 514.0, 420.0, 301.0, 82.0, -87.0, -228.0, -357.0, -447.0, -506.0, -545.0, -573.0, -609.0, -634.0, -650.0, -658.0, -664.0, -668.0, -668.0, -668.0]	[-490.0, -490.0, -490.0, -490.0, -490.0, -490.0, -489.0, -470.0, -455.0, -439.0, -428.0, -428.0, -428.0, -428.0, -428.0, -428.0, -428.0, -428.0, -428.0, -428.0, -428.0, -428.0, -428.0, -428.0, -428.0, -428.0, -428.0, -428.0, -429.0, -429.0, -429.0, -429.0, -429.0, -429.0, -428.0, -422.0, -418.0, -416.0, -414.0, -413.0, -413.0, -413.0, -413.0, -412.0, -412.0, -410.0, -404.0, -385.0, -346.0, -290.0, -236.0, -197.0, -170.0, -147.0, -120.0, -73.0, -40.0, -10.0, 21.0, 42.0, 55.0, 57.0, 57.0, 58.0, 49.0, 39.0, 39.0, 39.0, 56.0, 74.0, 91.0, 118.0, 145.0, 173.0, 200.0, 234.0, 253.0, 260.0, 264.0, 266.0, 268.0, 268.0, 268.0]	[0.010815960238687694, 0.016132565564475954, 0.023900966974906623, 0.03780073579400778, 0.054859543102793396, 0.07113294280134141, 0.08823407534509897, 0.10435524035710841, 0.12143418635241687, 0.13796529255341738, 0.15482749184593558, 0.17121899279300123, 0.18814399745315313, 0.20454027713276446, 0.22147620446048677, 0.23789057473186404, 0.25486165937036276, 0.2712043497012928, 0.2882010343018919, 0.30449423124082386, 0.3214915986172855, 0.33785749948583543, 0.3547835281351581, 0.3711856104200706, 0.3881368978181854, 0.4044806120218709, 0.4213847954524681, 0.43766297376714647, 0.45478834095411, 0.4711644819471985, 0.48816423851531, 0.5045284328516573, 0.5214722108794376, 0.5379360744263977, 0.5548539110459387, 0.5709986281581223, 0.5882144486531615, 0.6042676884680986, 0.6214360636658967, 0.637630274053663, 0.6548119612270966, 0.6711020861985162, 0.6880902375560254, 0.7045312317786738, 0.7214282471686602, 0.7378876733127981, 0.7547328061191365, 0.7711990589741617, 0.7882158822612837, 0.8042646846733987, 0.8214569533010945, 0.8377641448751092, 0.8547495654784143, 0.8709400212392211, 0.8880810898263007, 0.9042872468708083, 0.9213853074470535, 0.9379010535776615, 0.9548810129053891, 0.9711366632254794, 0.9881678225938231, 1.0045521555002779, 1.0214887654874474, 1.0378922130912542, 1.0548871910432354, 1.070985145517625, 1.0881364539964125, 1.1043023337842897, 1.1214181436225772, 1.1378864445723593, 1.1547424999298528, 1.170960262301378, 1.1881791547639295, 1.2042757439194247, 1.2213905297685415, 1.2378656574292108, 1.2547063527163118, 1.2711715816985816, 1.2880805436288938, 1.30450993264094, 1.3214735079091042, 1.3378472594777122, 1.3547951334621757]
33	images/0101.jpg	images/0029.jpg	right	1.309	[0.0, 0.0, 0.0, 0.0, 0.0, 0.0, 0.0, 0.0, 0.0, 0.0, 0.0, -3.0, -25.0, -51.0, -51.0, -51.0, -51.0, -51.0, -51.0, -51.0, -51.0, -51.0, -51.0, -51.0, -51.0, -51.0, -51.0, -51.0, -51.0, -51.0, -51.0, -51.0, -45.0, -43.0, -43.0, -45.0, -45.0, -45.0, -46.0, -49.0, -52.0, -69.0, -83.0, -104.0, -128.0, -151.0, -173.0, -186.0, -190.0, -182.0, -137.0, -70.0, -9.0, 52.0, 181.0, 285.0, 376.0, 458.0, 520.0, 564.0, 583.0, 589.0, 590.0, 590.0, 591.0, 591.0, 591.0, 591.0, 591.0, 591.0, 595.0, 604.0, 617.0, 631.0, 647.0, 662.0, 674.0, 676.0, 676.0]	[-490.0, -490.0, -490.0, -490.0, -490.0, -490.0, -490.0, -490.0, -490.0, -490.0, -490.0, -487.0, -481.0, -470.0, -470.0, -470.0, -470.0, -470.0, -470.0, -470.0, -470.0, -470.0, -470.0, -470.0, -470.0, -470.0, -470.0, -470.0, -470.0, -470.0, -470.0, -470.0, -470.0, -469.0, -467.0, -467.0, -466.0, -465.0, -464.0, -462.0, -458.0, -448.0, -440.0, -429.0, -414.0, -401.0, -386.0, -371.0, -345.0, -295.0, -205.0, -110.0, -25.0, 52.0, 168.0, 249.0, 303.0, 349.0, 375.0, 388.0, 390.0, 390.0, 388.0, 388.0, 388.0, 388.0, 388.0, 388.0, 388.0, 387.0, 385.0, 380.0, 375.0, 368.0, 362.0, 357.0, 351.0, 350.0, 350.0]	[0.01307555171661079, 0.017328904243186116, 0.02616738504730165, 0.04249812860507518, 0.05965967720840126, 0.07614606874994934, 0.09314753208309412, 0.10961412626784295, 0.12636334437411278, 0.14278693066444248, 0.15972934325691313, 0.17586757498793304, 0.19296495290473104, 0.20951756311114877, 0.22646236512809992, 0.24293134873732924, 0.2597406414570287, 0.27611951308790594, 0.29303291242104024, 0.3094500133302063, 0.326387305976823, 0.34278699895367026, 0.359842051519081, 0.37607210187707096, 0.39304659981280565, 0.4094145487761125, 0.4264521934092045, 0.44252147583756596, 0.4595505871111527, 0.47611616796348244, 0.4930336633697152, 0.5097053988138214, 0.5263877155957744, 0.542805157834664, 0.5597677091136575, 0.5759168635122478, 0.5930111694615334, 0.6091821691952646, 0.626346789766103, 0.6427973413374275, 0.6596895779948682, 0.6762636922067031, 0.6930344142019749, 0.7095194404246286, 0.7263485305011272, 0.742529428913258, 0.7597974734380841, 0.7759189797798172, 0.7930255737155676, 0.8094447226030752, 0.8263557326281443, 0.8428086736239493, 0.8596230862895027, 0.8759674832690507, 0.8929948878940195, 0.9092133329249918, 0.9263769295066595, 0.9425970811862499, 0.9597326883813366, 0.9758599974447861, 0.9929580580210313, 1.0093860815977678, 1.0263339555822313, 1.0427797285374254, 1.0597078051650897, 1.0761453860905021, 1.093001100118272, 1.1094400463625789, 1.1263988430146128, 1.142666781321168, 1.159738217946142, 1.1761877455282956, 1.1929584676399827, 1.2094400805654004, 1.2262678052065894, 1.2427924261428416, 1.2597819427028298, 1.2760887930635363, 1.2930349603993818]
34	images/0020.jpg	images/0303.jpg	left	1.294	[0.0, 0.0, 0.0, 0.0, 0.0, -2.0, -9.0, -18.0, -29.0, -48.0, -77.0, -105.0, -124.0, -129.0, -112.0, -78.0, -34.0, 4.0, 24.0, 31.0, 31.0, 31.0, 31.0, 31.0, 31.0, 31.0, 31.0, 31.0, 31.0, 31.0, 31.0, 31.0, 31.0, 31.0, 31.0, 31.0, 31.0, 31.0, 31.0, 31.0, 31.0, 31.0, 31.0, 31.0, 31.0, 31.0, 31.0, 31.0, 30.0, 30.0, 27.0, 26.0, 25.0, 23.0, 17.0, 7.0, -8.0, -37.0, -81.0, -135.0, -190.0, -261.0, -308.0, -348.0, -384.0, -413.0, -435.0, -458.0, -494.0, -539.0, -586.0, -620.0, -643.0, -664.0, -685.0, -687.0, -687.0, -687.0]	[-490.0, -490.0, -490.0, -490.0, -490.0, -490.0, -487.0, -476.0, -455.0, -409.0, -339.0, -270.0, -207.0, -121.0, -64.0, -10.0, 41.0, 75.0, 94.0, 101.0, 101.0, 101.0, 101.0, 101.0, 101.0, 101.0, 101.0, 101.0, 101.0, 101.0, 101.0, 101.0, 101.0, 101.0, 101.0, 101.0, 101.0, 101.0, 101.0, 101.0, 101.0, 101.0, 101.0, 101.0, 101.0, 101.0, 101.0, 101.0, 101.0, 99.0, 98.0, 96.0, 96.0, 95.0, 95.0, 93.0, 92.0, 87.0, 87.0, 87.0, 87.0, 93.0, 102.0, 112.0, 123.0, 133.0, 142.0, 157.0, 176.0, 195.0, 216.0, 237.0, 254.0, 272.0, 293.0, 295.0, 295.0, 295.0]	[0.013621684745885432, 0.017624157364480197, 0.02709000848699361, 0.04366685333661735, 0.06057957001030445, 0.07684307103045285, 0.09396502492018044, 0.11002577398903668, 0.12718800525180995, 0.1436542581068352, 0.16054854285903275, 0.17694379843305796, 0.19392170966602862, 0.2102968266699463, 0.2271975966868922, 0.24355462298262864, 0.2606537075480446, 0.2770025418139994, 0.29401219717692584, 0.3102920821402222, 0.32720070285722613, 0.34373112639877945, 0.36058206169400364, 0.37693942931946367, 0.39391665800940245, 0.4103235189104453, 0.42723077430855483, 0.44372262712568045, 0.4606059892103076, 0.47678620484657586, 0.49391020683106035, 0.510337206418626, 0.5272335390327498, 0.5436991093447432, 0.5605537993833423, 0.5769610016141087, 0.593906486290507, 0.610349528491497, 0.6272083144867793, 0.6436878794338554, 0.6605610015103593, 0.6767227852251381, 0.6937003551283851, 0.7101887947646901, 0.7272356553003192, 0.7436336416285485, 0.7605255369562656, 0.7769822324626148, 0.7939318132121116, 0.8102891808375716, 0.8271602548193187, 0.8436278731096536, 0.8605740404454991, 0.8769041013438255, 0.8939499380066991, 0.9100089804269373, 0.9271674569463357, 0.9436081098392606, 0.9604894239455462, 0.9767949088709429, 0.9938704414526001, 1.010240097064525, 1.0271541790571064, 1.043635791982524, 1.060547825996764, 1.0769700469681993, 1.0939779955660924, 1.110082776634954, 1.1271839091787115, 1.1436218314338475, 1.1605273801833391, 1.1769745183410123, 1.1939217096660286, 1.2103364212671295, 1.2271470794221386, 1.2436413215473294, 1.2606103582074866, 1.2771110858302563]
