trialIndex	stimulus	left_option	right_option	response	response_time	xTrajectory	yTrajectory	tTrajectory
0	inanimate/n43.jpg	animate	inanimate	right	1.491	[0.0, 0.0, 0.0, 0.0, 0.0, 0.0, 0.0, 0.0, 0.0, 0.0, 0.0, 0.0, 0.0, 0.0, 0.0, 0.0, 0.0, 0.0, 0.0, 0.0, 0.0, 0.0, 0.0, 0.0, 0.0, 0.0, 0.0, 0.0, 0.0, 0.0, 0.0, 0.0, 0.0, 0.0, 0.0, 0.0, 0.0, 0.0, 0.0, 0.0, 0.0, 0.0, 0.0, 0.0, 0.0, 0.0, 0.0, 0.0, -1.0, -2.0, -3.0, -4.0, -5.0, -6.0, -10.0, -13.0, -13.0, -14.0, -14.0, -14.0, -14.0, -13.0, -11.0, -8.0, -1.0, 17.0, 74.0, 154.0, 239.0, 343.0, 446.0, 542.0, 674.0, 722.0, 852.0, 918.0, 953.0, 959.0, 959.0, 959.0, 959.0, 959.0, 959.0, 959.0, 959.0, 959.0, 959.0, 959.0, 959.0, 959.0]	[-490.0, -490.0, -490.0, -490.0, -490.0, -490.0, -490.0, -490.0, -490.0, -490.0, -490.0, -490.0, -490.0, -490.0, -490.0, -490.0, -490.0, -490.0, -490.0, -490.0, -490.0, -490.0, -490.0, -490.0, -490.0, -490.0, -490.0, -490.0, -490.0, -490.0, -490.0, -490.0, -490.0, -490.0, -490.0, -490.0, -490.0, -490.0, -490.0, -490.0, -490.0, -490.0, -490.0, -490.0, -490.0, -490.0, -489.0, -489.0, -488.0, -487.0, -487.0, -487.0, -487.0, -486.0, -484.0, -483.0, -483.0, -483.0, -482.0, -482.0, -481.0, -477.0, -474.0, -470.0, -463.0, -441.0, -376.0, -282.0, -182.0, -59.0, 62.0, 177.0, 301.0, 333.0, 418.0, 455.0, 476.0, 487.0, 492.0, 494.0, 495.0, 495.0, 495.0, 495.0, 495.0, 495.0, 495.0, 495.0, 495.0, 495.0]	[0.011987688718363643, 0.01685305160935968, 0.02276869653724134, 0.039380357367917895, 0.05873155815061182, 0.07282759353984147, 0.09045881649944931, 0.10617959778755903, 0.12349918356630951, 0.13948757015168667, 0.15589989232830703, 0.17260746785905212, 0.18935702717863023, 0.20580041082575917, 0.22447201726026833, 0.23934731632471085, 0.2587456210749224, 0.2725020300131291, 0.29068655404262245, 0.30590659950394183, 0.32319375872612, 0.33902069460600615, 0.35630239243619144, 0.3723993228049949, 0.38962333532981575, 0.4059291617013514, 0.4228063797345385, 0.43900093145202845, 0.45598737604450434, 0.47262839158065617, 0.489405257627368, 0.5059742517769337, 0.5228480565128848, 0.5392740321112797, 0.5561106314416975, 0.5723922231700271, 0.5894264543894678, 0.605931960628368, 0.6228078133426607, 0.6389736930141225, 0.6561744948849082, 0.6727093557128683, 0.689473592559807, 0.7057190028717741, 0.7229174154344946, 0.7389662178466097, 0.7561752116307616, 0.7724247180158272, 0.7895463305758312, 0.8056343863718212, 0.8229686494451016, 0.8389730786439031, 0.856202211114578, 0.872331909602508, 0.8893606795463711, 0.9056354444473982, 0.9229164596181363, 0.9389550221385434, 0.956162650603801, 0.972345938323997, 0.9894689162028953, 1.0056798519799486, 1.0227062324993312, 1.039024005527608, 1.0562258313875645, 1.0725313164293766, 1.089476459659636, 1.1058201739797369, 1.122817882685922, 1.1391960715409368, 1.15602652693633, 1.1725480757886544, 1.1893310858868062, 1.2057819787878543, 1.2229960926342756, 1.2391602657735348, 1.2561825503362343, 1.2725679073482752, 1.2895461599109694, 1.3059096715878695, 1.3229551668046042, 1.3393852383596823, 1.3560214752797037, 1.3726389387156814, 1.389738364610821, 1.4083379497751594, 1.4229121929965913, 1.4419906685361639, 1.4560454026795924, 1.4749709609895945]
1	inanimate/n66.jpg	inanimate	animate	left	1.038	[0.0, 0.0, 0.0, 0.0, 0.0, 0.0, 0.0, 0.0, 1.0, 1.0, 1.0, 1.0, 1.0, 1.0, 1.0, 1.0, 1.0, 1.0, 1.0, 1.0, 1.0, 1.0, 1.0, 1.0, 1.0, 1.0, 1.0, 1.0, 1.0, 1.0, 1.0, 1.0, 3.0, 3.0, 3.0, 3.0, 3.0, 3.0, 3.0, 3.0, 3.0, 3.0, 3.0, 3.0, 2.0, 2.0, -7.0, -19.0, -57.0, -128.0, -230.0, -348.0, -475.0, -587.0, -692.0, -773.0, -828.0, -842.0, -846.0, -846.0, -846.0, -846.0, -846.0]	[-490.0, -490.0, -490.0, -490.0, -490.0, -490.0, -485.0, -475.0, -467.0, -467.0, -467.0, -467.0, -467.0, -467.0, -467.0, -467.0, -467.0, -467.0, -467.0, -467.0, -467.0, -467.0, -467.0, -467.0, -467.0, -467.0, -467.0, -467.0, -467.0, -467.0, -467.0, -467.0, -466.0, -466.0, -466.0, -466.0, -466.0, -466.0, -466.0, -466.0, -466.0, -466.0, -466.0, -466.0, -466.0, -466.0, -453.0, -436.0, -377.0, -281.0, -158.0, -31.0, 89.0, 201.0, 289.0, 364.0, 410.0, 425.0, 433.0, 434.0, 434.0, 434.0, 434.0]	[0.011455516330897808, 0.01679601485375315, 0.022578539908863604, 0.03719408449251205, 0.05322001758031547, 0.07218039187137038, 0.08643890195526183, 0.10523168160580099, 0.11991685815155506, 0.13781022490002215, 0.1532337050884962, 0.16979689663276076, 0.18629660014994442, 0.20320761017501354, 0.21979094028938562, 0.23614455328788608, 0.25294121669139713, 0.27163193782325834, 0.2863051675958559, 0.3042374463984743, 0.31984012643806636, 0.3367112004198134, 0.35296787484548986, 0.3701430766377598, 0.38632704701740295, 0.40298069186974317, 0.4197531206300482, 0.43642963469028473, 0.4530030662426725, 0.46994718560017645, 0.48636838246602565, 0.503072885912843, 0.5193988508544862, 0.5365156847983599, 0.5526692765997723, 0.5699987610569224, 0.5863254086580127, 0.6031172933289781, 0.6195582876680419, 0.6365409776335582, 0.6529959664912894, 0.6699602245353162, 0.686278680106625, 0.703112548799254, 0.7194658204680309, 0.7365942597389221, 0.7529953180346638, 0.7699687919812277, 0.7860629917122424, 0.8030965402722359, 0.8194320626789704, 0.8365099845686927, 0.8529902320588008, 0.8699790660757571, 0.88639207102824, 0.9032720196992159, 0.9197768432786688, 0.9365847706794739, 0.9526974024483934, 0.9699248282704502, 0.9859930867096409, 1.0030908059561625, 1.0193399708950892]
2	inanimate/n41.jpg	inanimate	animate	left	0.882	[0.0, 0.0, 0.0, 0.0, 0.0, -1.0, -1.0, -1.0, -3.0, -3.0, -3.0, -3.0, -3.0, -3.0, -3.0, -3.0, -3.0, -3.0, -3.0, -3.0, -3.0, -3.0, -3.0, -3.0, -3.0, -3.0, -3.0, -3.0, -2.0, -2.0, -1.0, 0.0, 0.0, 0.0, 0.0, 0.0, 0.0, 1.0, 1.0, 0.0, -17.0, -53.0, -127.0, -237.0, -348.0, -453.0, -563.0, -665.0, -760.0, -825.0, -870.0, -874.0, -875.0, -875.0]	[-490.0, -490.0, -490.0, -490.0, -490.0, -481.0, -448.0, -378.0, -347.0, -347.0, -347.0, -347.0, -347.0, -347.0, -347.0, -347.0, -347.0, -347.0, -347.0, -347.0, -347.0, -347.0, -347.0, -347.0, -349.0, -350.0, -352.0, -354.0, -354.0, -354.0, -356.0, -356.0, -356.0, -356.0, -356.0, -356.0, -356.0, -356.0, -353.0, -350.0, -327.0, -286.0, -202.0, -102.0, -7.0, 93.0, 204.0, 301.0, 383.0, 442.0, 497.0, 505.0, 508.0, 508.0]	[0.009474759921431541, 0.015047023771330714, 0.020609047613106668, 0.033981456770561635, 0.05109829059801996, 0.0675771728856489, 0.08462812949437648, 0.10336185852065682, 0.11774870986118913, 0.13685483345761895, 0.15109115676023066, 0.16913675819523633, 0.18446227570530027, 0.20383293239865452, 0.21768866933416575, 0.23501712980214506, 0.251131126889959, 0.2684346700552851, 0.28465584572404623, 0.30100229068193585, 0.3175282769370824, 0.3340266151353717, 0.3508908625226468, 0.3701075779972598, 0.3842930427053943, 0.4019099297001958, 0.41756790573708713, 0.4348997795023024, 0.4508919205982238, 0.46870541549287736, 0.4843487141188234, 0.501470668008551, 0.5177061797585338, 0.5344905551755801, 0.5509680720278993, 0.5677572261774912, 0.5842709243297577, 0.6010757797630504, 0.6175935739884153, 0.634614834561944, 0.6509244155604392, 0.667646668269299, 0.6843583397567272, 0.7010089125251397, 0.7175727867288515, 0.7343766181729734, 0.7509159164037555, 0.7677392037585378, 0.7841446993406862, 0.8011335333576426, 0.8176243621855974, 0.8345329829026014, 0.8509705638280138, 0.8678433444583789]
3	inanimate/n44.jpg	animate	inanimate	right	1.058	[0.0, 0.0, 0.0, 0.0, 0.0, 0.0, 0.0, 0.0, -1.0, -5.0, -10.0, -11.0, -11.0, -11.0, -11.0, -11.0, -11.0, -11.0, -11.0, -11.0, -11.0, -11.0, -11.0, -11.0, -11.0, -11.0, -11.0, -11.0, -11.0, -11.0, -8.0, -7.0, -3.0, -3.0, -3.0, -1.0, -1.0, 0.0, 3.0, 1.0, -40.0, -107.0, -243.0, -338.0, -408.0, -460.0, -487.0, -491.0, -486.0, -466.0, -423.0, -339.0, -215.0, -43.0, 224.0, 389.0, 532.0, 641.0, 714.0, 758.0, 776.0, 776.0, 776.0]	[-490.0, -490.0, -490.0, -490.0, -490.0, -490.0, -490.0, -490.0, -485.0, -471.0, -448.0, -434.0, -434.0, -434.0, -434.0, -434.0, -434.0, -434.0, -434.0, -434.0, -434.0, -434.0, -434.0, -434.0, -434.0, -434.0, -434.0, -434.0, -434.0, -435.0, -445.0, -448.0, -455.0, -455.0, -458.0, -459.0, -459.0, -459.0, -448.0, -438.0, -399.0, -317.0, -139.0, -37.0, 30.0, 81.0, 121.0, 147.0, 171.0, 195.0, 219.0, 243.0, 276.0, 318.0, 369.0, 395.0, 412.0, 429.0, 438.0, 445.0, 448.0, 448.0, 448.0]	[0.0074957102769985795, 0.014624794712290168, 0.030299496022053063, 0.04661965824197978, 0.06364535621833056, 0.07994299056008458, 0.09694616054184735, 0.11318030685652047, 0.13033366343006492, 0.14672891900409013, 0.1635713210562244, 0.18008160591125488, 0.19702333596069366, 0.21344146085903049, 0.2303282362408936, 0.24695184372831136, 0.2637082297587767, 0.2799123388249427, 0.29716502339579165, 0.3131779858376831, 0.33040268102195114, 0.3465368167962879, 0.363725671893917, 0.3798574183601886, 0.39710907882545143, 0.4132073746295646, 0.43040646985173225, 0.44660716550424695, 0.4636482234345749, 0.4800431376788765, 0.49710126232821494, 0.513337115291506, 0.5304215225623921, 0.5468751462176442, 0.5636308495886624, 0.5830155010335147, 0.5971757071092725, 0.6157630041707307, 0.630233823438175, 0.6482026249868795, 0.6637035877211019, 0.6808071095729247, 0.6970702692633495, 0.7132760849781334, 0.7300836710492149, 0.7494533037533984, 0.7632305340375751, 0.782832273398526, 0.7965664956718683, 0.8145499743986875, 0.8301069157896563, 0.8477214134763926, 0.8634305894374847, 0.8804358073975891, 0.8968303803121671, 0.9137625530129299, 0.9301219686167315, 0.9470247866120189, 0.9633377809077501, 0.9802573242923245, 0.9967966225231066, 1.0136554085183889, 1.0300639760680497]
4	animate/a65.jpg	animate	inanimate	left	1.057	[0.0, -1.0, -1.0, -5.0, -8.0, -17.0, -17.0, -17.0, -17.0, -17.0, -17.0, -17.0, -17.0, -17.0, -17.0, -17.0, -17.0, -17.0, -17.0, -17.0, -17.0, -17.0, -17.0, -16.0, -14.0, -13.0, -13.0, -13.0, -14.0, -15.0, -15.0, -15.0, -15.0, -15.0, -15.0, -15.0, -15.0, -15.0, -15.0, -15.0, -15.0, -15.0, -15.0, -21.0, -25.0, -31.0, -40.0, -76.0, -116.0, -180.0, -273.0, -371.0, -473.0, -570.0, -658.0, -762.0, -784.0, -848.0, -863.0, -885.0, -888.0, -888.0, -888.0]	[-490.0, -490.0, -490.0, -487.0, -472.0, -459.0, -455.0, -455.0, -455.0, -455.0, -455.0, -455.0, -455.0, -455.0, -455.0, -455.0, -455.0, -455.0, -455.0, -455.0, -455.0, -455.0, -455.0, -456.0, -459.0, -462.0, -466.0, -466.0, -468.0, -468.0, -468.0, -469.0, -469.0, -469.0, -469.0, -469.0, -469.0, -469.0, -469.0, -469.0, -469.0, -465.0, -463.0, -458.0, -455.0, -449.0, -435.0, -389.0, -341.0, -270.0, -180.0, -82.0, 20.0, 102.0, 177.0, 269.0, 287.0, 359.0, 374.0, 405.0, 412.0, 412.0, 412.0]	[0.004395620198920369, 0.010141622624360025, 0.023691866314038634, 0.041533350478857756, 0.05702577996999025, 0.07448940828908235, 0.09068634931463748, 0.10735637811012566, 0.12365810852497816, 0.1406848303740844, 0.15734837390482426, 0.17387026408687234, 0.1904081969987601, 0.20744038023985922, 0.22372026520315558, 0.24074357387144119, 0.2572507867589593, 0.2739201328950003, 0.2905751430662349, 0.3073984304210171, 0.3236339420545846, 0.34048214682843536, 0.3574477700749412, 0.3738256177166477, 0.3908441476523876, 0.40701617137528956, 0.4242207278730348, 0.44033984502311796, 0.4574566788505763, 0.47370891587343067, 0.4907568005146459, 0.5072158854454756, 0.5241364528192207, 0.5404689030256122, 0.5575611609965563, 0.5738533339463174, 0.5908210052875802, 0.6072725808480754, 0.6240890416083857, 0.6404822492040694, 0.6575984003720805, 0.6738769201328978, 0.6908773593604565, 0.7072722737211734, 0.7241518810624257, 0.7402293554041535, 0.7576629464747384, 0.7736059357412159, 0.7911630893358961, 0.8072538757696748, 0.8242659204406664, 0.8404969947878271, 0.8576773166423663, 0.8738162310328335, 0.8921765416162089, 0.9072545926319435, 0.9246875010430813, 0.9403560583014041, 0.960413477383554, 0.9737196678761393, 0.994094526860863, 1.0070583601482213, 1.0276421150192618]
5	inanimate/n33.jpg	inanimate	animate	left	1.316	[0.0, 0.0, 0.0, 0.0, 0.0, 0.0, 0.0, 0.0, 0.0, -5.0, -20.0, -26.0, -30.0, -30.0, -30.0, -30.0, -30.0, -30.0, -30.0, -30.0, -30.0, -30.0, -30.0, -30.0, -30.0, -30.0, -30.0, -30.0, -30.0, -30.0, -30.0, -30.0, -30.0, -29.0, -28.0, -27.0, -27.0, -26.0, -26.0, -22.0, -21.0, -20.0, -18.0, -17.0, -16.0, -14.0, -12.0, -11.0, -10.0, -10.0, -9.0, -9.0, -9.0, -9.0, -9.0, -9.0, -9.0, -9.0, -25.0, -43.0, -85.0, -154.0, -247.0, -358.0, -467.0, -575.0, -669.0, -748.0, -826.0, -840.0, -856.0, -856.0, -856.0, -856.0, -856.0, -856.0, -856.0, -856.0, -856.0]	[-490.0, -490.0, -490.0, -490.0, -490.0, -490.0, -489.0, -487.0, -486.0, -481.0, -459.0, -440.0, -438.0, -438.0, -438.0, -438.0, -438.0, -438.0, -438.0, -438.0, -438.0, -438.0, -438.0, -438.0, -438.0, -438.0, -438.0, -438.0, -438.0, -438.0, -438.0, -438.0, -438.0, -439.0, -441.0, -443.0, -444.0, -445.0, -448.0, -449.0, -450.0, -450.0, -452.0, -452.0, -452.0, -452.0, -452.0, -452.0, -452.0, -452.0, -452.0, -452.0, -452.0, -452.0, -450.0, -448.0, -445.0, -442.0, -427.0, -405.0, -357.0, -274.0, -166.0, -42.0, 84.0, 203.0, 303.0, 382.0, 455.0, 472.0, 493.0, 497.0, 497.0, 497.0, 497.0, 497.0, 497.0, 497.0, 497.0]	[0.012059232220053673, 0.017256029648706317, 0.02217941905837506, 0.041679099784232676, 0.056151284370571375, 0.07485395215917379, 0.08936709666159004, 0.10617638938128948, 0.1226102156797424, 0.1394143884535879, 0.15576288138981909, 0.1723059342475608, 0.18914219224825501, 0.2085203583119437, 0.22252320987172425, 0.23983869969379157, 0.2558035341789946, 0.2729504053713754, 0.28936511697247624, 0.30605869775172323, 0.3225447479635477, 0.33940046199131757, 0.3558158562518656, 0.3727418849011883, 0.3889558926457539, 0.40597578790038824, 0.4225031394744292, 0.43929536547511816, 0.4557291917735711, 0.47263576451223344, 0.48919042269699275, 0.5059785527409986, 0.5225796322338283, 0.5392667276319116, 0.5558200204977766, 0.5726753931958228, 0.5893338166642934, 0.6059130509383976, 0.6224632717203349, 0.639282463118434, 0.6557016120059416, 0.672649827436544, 0.6889314190484583, 0.7059427810600027, 0.7224769592285156, 0.7393586145481095, 0.7559170274762437, 0.7726017335662618, 0.7890106424456462, 0.8059882124653086, 0.8222472760826349, 0.839420088683255, 0.8555620750412345, 0.8727331809932366, 0.8889714232645929, 0.9060561718652025, 0.9222227343125269, 0.9395334454020485, 0.9555627919035032, 0.9727499403525144, 0.9889373241458088, 1.0060927286976948, 1.02221867244225, 1.0396317834965885, 1.0555508793331683, 1.0727141345851123, 1.0889602275565267, 1.1072819675318897, 1.1222425998421386, 1.1394905056804419, 1.1555556921521202, 1.1727189474040642, 1.1890257976483554, 1.2060177036328241, 1.2222491193097085, 1.2395666571101174, 1.255675875581801, 1.2727811040822417, 1.2891439330996946]
6	inanimate/n58.jpg	inanimate	animate	left	0.944	[0.0, 0.0, 0.0, 0.0, 0.0, 0.0, 0.0, 0.0, 1.0, 4.0, 8.0, 8.0, 8.0, 8.0, 8.0, 8.0, 8.0, 8.0, 8.0, 8.0, 8.0, 9.0, 10.0, 13.0, 16.0, 18.0, 18.0, 17.0, 17.0, 13.0, 9.0, 6.0, 5.0, 5.0, 2.0, -1.0, -4.0, -5.0, -7.0, -18.0, -37.0, -73.0, -136.0, -218.0, -322.0, -430.0, -527.0, -607.0, -687.0, -706.0, -740.0, -758.0, -770.0, -776.0, -777.0, -777.0, -777.0]	[-490.0, -490.0, -490.0, -490.0, -490.0, -490.0, -490.0, -490.0, -488.0, -481.0, -479.0, -479.0, -479.0, -479.0, -479.0, -479.0, -479.0, -479.0, -479.0, -479.0, -479.0, -481.0, -490.0, -493.0, -499.0, -502.0, -502.0, -503.0, -503.0, -501.0, -498.0, -496.0, -494.0, -492.0, -488.0, -485.0, -481.0, -479.0, -475.0, -468.0, -453.0, -426.0, -362.0, -266.0, -165.0, -63.0, 40.0, 122.0, 208.0, 228.0, 270.0, 300.0, 323.0, 343.0, 351.0, 351.0, 351.0]	[0.00045605527702718973, 0.00922285602428019, 0.02847916621249169, 0.03235773486085236, 0.049538056715391576, 0.06626542948652059, 0.08314947423059493, 0.09912762069143355, 0.1161208919947967, 0.13294110738206655, 0.15190352965146303, 0.1657667759573087, 0.182874052436091, 0.1996048386208713, 0.21745656279381365, 0.23247556306887418, 0.24950228503439575, 0.266275396454148, 0.2831014145631343, 0.29928743292111903, 0.3160206082975492, 0.3326466050930321, 0.3495893591316417, 0.3657658201409504, 0.38280346477404237, 0.39947246958035976, 0.4162216876866296, 0.435106968623586, 0.4494689026614651, 0.46856922353617847, 0.4828908802010119, 0.5006784338038415, 0.5161824685055763, 0.5333832703763619, 0.5497177686775103, 0.5664140800945461, 0.5830066263442859, 0.5990516741294414, 0.6157995268004015, 0.6356060659745708, 0.64920034178067, 0.6686716917902231, 0.6827830872498453, 0.6998275584774092, 0.7159866115543991, 0.7334550186060369, 0.7493461251724511, 0.7663250603945926, 0.7822830682853237, 0.8002146644284949, 0.8158077871194109, 0.8328201730037108, 0.8491096154320985, 0.8661028867354617, 0.8827032835688442, 0.8994477229425684, 0.9159709784435108]
7	inanimate/n6.jpg	inanimate	animate	left	1.178	[0.0, -1.0, -1.0, -1.0, -1.0, -1.0, -2.0, -3.0, -11.0, -13.0, -13.0, -13.0, -13.0, -13.0, -13.0, -13.0, -13.0, -13.0, -13.0, -13.0, -13.0, -13.0, -13.0, -13.0, -14.0, -14.0, -12.0, -8.0, -7.0, -6.0, -5.0, -5.0, -6.0, -6.0, -6.0, -6.0, -6.0, -6.0, -6.0, -6.0, -6.0, -6.0, -6.0, -6.0, -6.0, -6.0, -6.0, -6.0, -6.0, -6.0, -13.0, -19.0, -73.0, -154.0, -259.0, -377.0, -501.0, -608.0, -697.0, -761.0, -802.0, -830.0, -845.0, -854.0, -857.0, -857.0, -859.0, -862.0, -863.0, -863.0, -863.0]	[-490.0, -492.0, -492.0, -492.0, -492.0, -492.0, -492.0, -492.0, -478.0, -462.0, -462.0, -462.0, -462.0, -462.0, -462.0, -462.0, -462.0, -462.0, -462.0, -462.0, -462.0, -462.0, -462.0, -462.0, -463.0, -463.0, -463.0, -465.0, -465.0, -465.0, -465.0, -464.0, -463.0, -463.0, -463.0, -463.0, -463.0, -463.0, -463.0, -463.0, -463.0, -463.0, -463.0, -463.0, -463.0, -463.0, -463.0, -463.0, -463.0, -463.0, -443.0, -429.0, -323.0, -224.0, -111.0, 14.0, 127.0, 217.0, 294.0, 349.0, 387.0, 413.0, 430.0, 438.0, 441.0, 441.0, 441.0, 443.0, 444.0, 444.0, 444.0]	[0.014368009753525257, 0.02326519985217601, 0.029826647136360407, 0.04382608528248966, 0.0607224180130288, 0.0770104950061068, 0.09411231020931154, 0.11021163000259548, 0.12728306651115417, 0.14378447679337114, 0.16067876142915338, 0.1768920865142718, 0.1941618376877159, 0.21025945071596652, 0.22744284465443343, 0.24358926829881966, 0.2607805129373446, 0.2769204513169825, 0.2941489011282101, 0.31023934623226523, 0.3273131721653044, 0.3436770250555128, 0.3607996617211029, 0.37691912008449435, 0.3941325512714684, 0.41019261768087745, 0.427421408938244, 0.44365282461512834, 0.4606416585156694, 0.47702496754936874, 0.49410869204439223, 0.5103913077618927, 0.5272753523895517, 0.543658661423251, 0.5605802526697516, 0.5769106550142169, 0.5940476275281981, 0.6105002271942794, 0.6274815518409014, 0.6438112714095041, 0.6607420787913725, 0.6771513290004805, 0.6940596083877608, 0.7104637386510149, 0.7272900979733095, 0.7464679015101865, 0.7605953396996483, 0.7771329311653972, 0.7940835357876495, 0.8108033993048593, 0.8273686388274655, 0.8464269756805152, 0.8607005043886602, 0.8795994387473911, 0.8941549086011946, 0.9117598489392549, 0.9274574195733294, 0.9446435440331697, 0.9607418398372829, 0.9775251912651584, 0.9941645000362769, 1.0103866996942088, 1.0270246432628483, 1.0467990970937535, 1.0605278580915183, 1.0801012667361647, 1.0940966089256108, 1.113147777854465, 1.1273834184976295, 1.1449323801789433, 1.1604828361887485]
8	animate/a42.jpg	inanimate	animate	right	1.198	[0.0, 0.0, 0.0, 0.0, 0.0, 0.0, 0.0, 0.0, 0.0, 0.0, 0.0, 3.0, 3.0, 3.0, 3.0, 3.0, 3.0, 3.0, 3.0, 3.0, 3.0, 3.0, 3.0, 3.0, 5.0, 11.0, 15.0, 17.0, 18.0, 18.0, 18.0, 18.0, 18.0, 18.0, 18.0, 19.0, 19.0, 19.0, 18.0, 17.0, 15.0, 15.0, 13.0, 8.0, 1.0, -17.0, -41.0, -84.0, -142.0, -212.0, -262.0, -277.0, -270.0, -238.0, -184.0, -98.0, 73.0, 138.0, 348.0, 487.0, 604.0, 680.0, 729.0, 758.0, 773.0, 781.0, 787.0, 790.0, 791.0, 791.0, 791.0, 791.0]	[-490.0, -490.0, -490.0, -490.0, -490.0, -490.0, -490.0, -490.0, -488.0, -487.0, -485.0, -482.0, -482.0, -482.0, -482.0, -482.0, -482.0, -482.0, -482.0, -482.0, -482.0, -482.0, -482.0, -482.0, -483.0, -487.0, -490.0, -491.0, -492.0, -492.0, -492.0, -492.0, -492.0, -492.0, -492.0, -492.0, -491.0, -489.0, -486.0, -484.0, -482.0, -481.0, -477.0, -473.0, -466.0, -454.0, -437.0, -398.0, -340.0, -252.0, -174.0, -109.0, -57.0, -1.0, 52.0, 111.0, 182.0, 201.0, 254.0, 284.0, 304.0, 315.0, 330.0, 341.0, 350.0, 364.0, 380.0, 393.0, 400.0, 402.0, 402.0, 402.0]	[0.011744523071683943, 0.016816051094792783, 0.02153703011572361, 0.04114354797638953, 0.05499826092272997, 0.07338758488185704, 0.08823830785695463, 0.10646925319451839, 0.12167325615882874, 0.14118147012777627, 0.1549873724579811, 0.1725387234473601, 0.1884202726650983, 0.2064846473513171, 0.22166748763993382, 0.23972981434781104, 0.2551744570955634, 0.27275652810931206, 0.28850563999731094, 0.3054501006845385, 0.32176787371281534, 0.33880210493225604, 0.35516527527943254, 0.3721175865503028, 0.388713204767555, 0.405561750754714, 0.4217873638262972, 0.4387260217918083, 0.45500658941455185, 0.4719394447747618, 0.4885569083271548, 0.505396579625085, 0.5218488378450274, 0.5387963704997674, 0.5552015248686075, 0.5720289081800729, 0.5884787770919502, 0.6052699792198837, 0.6218785679666325, 0.638757151318714, 0.654959553736262, 0.6720002703368664, 0.6884982672054321, 0.7053276986116543, 0.7218120421748608, 0.7387786895269528, 0.7549350118497387, 0.7720344378612936, 0.7883327547460794, 0.8053721060277894, 0.8215390098048374, 0.838754488970153, 0.8548387900227681, 0.8720648506423458, 0.8882454076083377, 0.9053506362251937, 0.9215441639535129, 0.9386534885270521, 0.9548593042418361, 0.9720266554504633, 0.9882802577922121, 1.0052660197252408, 1.0215298620751128, 1.038716327981092, 1.0548688956769183, 1.072017473517917, 1.0882741479435936, 1.1054370617493987, 1.1216309308074415, 1.1388713272754103, 1.155141655006446, 1.1719110116828233]
9	animate/a13.jpg	inanimate	animate	right	1.035	[0.0, 0.0, 0.0, 0.0, 0.0, 0.0, 0.0, 0.0, 0.0, 0.0, 0.0, 0.0, 0.0, 0.0, -13.0, -51.0, -56.0, -56.0, -56.0, -56.0, -56.0, -56.0, -56.0, -56.0, -56.0, -56.0, -56.0, -56.0, -56.0, -56.0, -56.0, -56.0, -56.0, -56.0, -56.0, -56.0, -56.0, -56.0, -56.0, -56.0, -53.0, -53.0, -53.0, -51.0, -51.0, -50.0, -50.0, -50.0, -43.0, -25.0, 17.0, 85.0, 178.0, 271.0, 400.0, 534.0, 677.0, 796.0, 896.0, 959.0, 959.0, 959.0]	[-490.0, -490.0, -490.0, -490.0, -490.0, -490.0, -490.0, -490.0, -490.0, -490.0, -490.0, -490.0, -473.0, -441.0, -362.0, -248.0, -240.0, -240.0, -240.0, -240.0, -240.0, -240.0, -240.0, -240.0, -240.0, -240.0, -240.0, -240.0, -240.0, -240.0, -240.0, -240.0, -240.0, -240.0, -240.0, -240.0, -240.0, -240.0, -241.0, -242.0, -243.0, -243.0, -243.0, -242.0, -242.0, -241.0, -241.0, -240.0, -234.0, -223.0, -192.0, -128.0, -35.0, 61.0, 165.0, 273.0, 379.0, 480.0, 540.0, 540.0, 540.0, 540.0]	[0.014750985661521554, 0.028759639826603234, 0.0442773278336972, 0.061252508545294404, 0.07757130544632673, 0.09460690210107714, 0.11081066983751953, 0.12798109301365912, 0.14415209274739027, 0.1614522224990651, 0.17756314761936665, 0.19478272285778075, 0.21087555726990104, 0.22799034311901778, 0.24420912947971374, 0.2612720327451825, 0.27753314445726573, 0.2948711622739211, 0.3108479434158653, 0.32787739601917565, 0.34430029965005815, 0.36132429086137563, 0.3777905438328162, 0.3946650311117992, 0.4137735440162942, 0.42790712614078075, 0.447130668326281, 0.4613103303126991, 0.4785002095159143, 0.4948067185468972, 0.51107158488594, 0.5278894109651446, 0.5442423411877826, 0.5609775646589696, 0.5805956879630685, 0.5945374408038333, 0.6119338265853003, 0.6278119623893872, 0.64469395915512, 0.6609550707507879, 0.6782825072295964, 0.694425517693162, 0.7113986503100023, 0.7277382685570046, 0.7447001372929662, 0.760861921007745, 0.7780104988487437, 0.7945965597173199, 0.8113539698533714, 0.8278280734084547, 0.8447042673360556, 0.8609606004320085, 0.8778856050921604, 0.8944931698497385, 0.9112242973642424, 0.9278267421759665, 0.944491992238909, 0.9611589490668848, 0.9779764338163659, 0.9945911666145548, 1.0113690567668527, 1.0278660296462476]
10	inanimate/n29.jpg	inanimate	animate	left	0.91	[0.0, 0.0, 0.0, 0.0, 0.0, 0.0, 0.0, 0.0, 0.0, 0.0, 8.0, 8.0, 8.0, 8.0, 8.0, 8.0, 8.0, 8.0, 8.0, 8.0, 8.0, 8.0, 8.0, 8.0, 10.0, 10.0, 10.0, 10.0, 10.0, 10.0, 11.0, 11.0, 11.0, 11.0, 11.0, 11.0, 11.0, 8.0, -4.0, -27.0, -67.0, -131.0, -216.0, -298.0, -393.0, -492.0, -631.0, -698.0, -755.0, -810.0, -832.0, -843.0, -848.0, -849.0, -849.0]	[-490.0, -490.0, -490.0, -490.0, -490.0, -490.0, -490.0, -490.0, -466.0, -449.0, -437.0, -437.0, -437.0, -437.0, -437.0, -437.0, -437.0, -437.0, -437.0, -437.0, -437.0, -438.0, -439.0, -439.0, -440.0, -441.0, -443.0, -444.0, -444.0, -444.0, -445.0, -445.0, -445.0, -445.0, -445.0, -445.0, -445.0, -445.0, -435.0, -410.0, -353.0, -265.0, -166.0, -69.0, 36.0, 139.0, 264.0, 326.0, 388.0, 450.0, 477.0, 496.0, 510.0, 512.0, 512.0]	[0.01337507157586515, 0.018508722307160497, 0.025449390755966306, 0.0422658515162766, 0.058714355109259486, 0.07557211711537093, 0.09179056214634329, 0.10891627066303045, 0.12548628891818225, 0.1421965949703008, 0.15872497053351253, 0.17565884988289326, 0.19206605211365968, 0.2089012861251831, 0.22552523494232446, 0.24222905572969466, 0.25849733548238873, 0.27560597739648074, 0.29176776111125946, 0.30897402425762266, 0.32520339195616543, 0.34221031656488776, 0.35841476696077734, 0.3757046568207443, 0.39176233392208815, 0.40891876246314496, 0.42512423684820533, 0.4422861266648397, 0.45853972900658846, 0.47574496816378087, 0.4945671026362106, 0.5088334633037448, 0.5280099014053121, 0.5422916221432388, 0.5612612124532461, 0.575696874409914, 0.5934857932152227, 0.6089812946738675, 0.6261268005473539, 0.6422066643135622, 0.6594914341112599, 0.6758143270853907, 0.6923874173080549, 0.7088741501793265, 0.7251246805535629, 0.7419998506084085, 0.7603488971944898, 0.7756355026504025, 0.7929260751698166, 0.8086570964660496, 0.8261982074473053, 0.8418223914923146, 0.8593536037951708, 0.8754061609506607, 0.8922980562783778]
11	inanimate/n70.jpg	animate	inanimate	right	0.959	[0.0, 0.0, 0.0, 0.0, 0.0, 0.0, 0.0, 0.0, -2.0, -11.0, -11.0, -11.0, -11.0, -11.0, -11.0, -11.0, -11.0, -11.0, -11.0, -11.0, -11.0, -11.0, -11.0, -10.0, -9.0, -7.0, -7.0, -4.0, 2.0, 5.0, 10.0, 12.0, 15.0, 17.0, 17.0, 5.0, -15.0, -44.0, -85.0, -148.0, -221.0, -285.0, -317.0, -317.0, -299.0, -286.0, -204.0, -103.0, 24.0, 172.0, 346.0, 512.0, 632.0, 715.0, 754.0, 766.0, 767.0, 767.0]	[-490.0, -490.0, -490.0, -490.0, -490.0, -490.0, -490.0, -490.0, -484.0, -449.0, -445.0, -445.0, -445.0, -445.0, -445.0, -445.0, -445.0, -445.0, -445.0, -445.0, -445.0, -445.0, -445.0, -447.0, -448.0, -451.0, -453.0, -455.0, -457.0, -458.0, -459.0, -459.0, -459.0, -459.0, -459.0, -454.0, -442.0, -417.0, -369.0, -296.0, -220.0, -167.0, -130.0, -120.0, -74.0, -61.0, 5.0, 60.0, 119.0, 180.0, 247.0, 318.0, 376.0, 414.0, 433.0, 438.0, 439.0, 439.0]	[0.014071493642404675, 0.019519853522069752, 0.02839144365862012, 0.043375969282351434, 0.05972889962140471, 0.07649211236275733, 0.0951108121080324, 0.10977141256444156, 0.1271360544487834, 0.143089966266416, 0.1601125921588391, 0.17649317043833435, 0.19349531643092632, 0.21007147862110287, 0.2267862220760435, 0.2432067362824455, 0.2601290103048086, 0.27676866040565073, 0.29352368123363703, 0.31000427005346864, 0.32685588812455535, 0.34333886636886746, 0.36026557767763734, 0.3764246307546273, 0.3934844620525837, 0.4097203150158748, 0.4268282742705196, 0.4430296526988968, 0.46026970783714205, 0.47647381690330803, 0.4934783522039652, 0.5097312718862668, 0.5268433270975947, 0.5430221774149686, 0.5602673526154831, 0.5764253817033023, 0.5935603062389418, 0.6097678286023438, 0.6268983158515766, 0.6433574007824063, 0.6601462134858593, 0.6765011918032542, 0.693362025776878, 0.7099122466752306, 0.7268092620652169, 0.7431574136717245, 0.7603070155018941, 0.779212093912065, 0.7933965346310288, 0.812443948816508, 0.826844112132676, 0.8459516010480002, 0.860153449815698, 0.8779164273291826, 0.8935290060471743, 0.9111028850311413, 0.9267868023598567, 0.9439773642225191]
12	inanimate/n80.jpg	animate	inanimate	right	0.913	[0.0, 0.0, 0.0, 0.0, 1.0, 5.0, 13.0, 19.0, 27.0, 27.0, 27.0, 27.0, 27.0, 27.0, 27.0, 27.0, 27.0, 27.0, 27.0, 32.0, 32.0, 32.0, 35.0, 35.0, 37.0, 39.0, 45.0, 48.0, 48.0, 47.0, 44.0, 43.0, 42.0, 41.0, 35.0, 25.0, 7.0, -34.0, -101.0, -178.0, -229.0, -241.0, -242.0, -223.0, -181.0, -83.0, 30.0, 165.0, 310.0, 453.0, 591.0, 707.0, 787.0, 810.0, 811.0]	[-490.0, -490.0, -490.0, -490.0, -490.0, -488.0, -482.0, -473.0, -458.0, -458.0, -458.0, -458.0, -458.0, -458.0, -458.0, -458.0, -458.0, -458.0, -458.0, -459.0, -459.0, -459.0, -463.0, -463.0, -468.0, -473.0, -481.0, -483.0, -485.0, -485.0, -485.0, -485.0, -483.0, -478.0, -469.0, -451.0, -424.0, -378.0, -295.0, -204.0, -145.0, -117.0, -92.0, -58.0, -10.0, 57.0, 109.0, 169.0, 229.0, 292.0, 359.0, 411.0, 442.0, 449.0, 449.0]	[0.009024200146086514, 0.027535379980690777, 0.03286085999570787, 0.05017634970135987, 0.06922205735463649, 0.0833372074412182, 0.10113943833857775, 0.11672641697805375, 0.13434159732423723, 0.15033681050408632, 0.16641394363250583, 0.18321606831159443, 0.2029171355534345, 0.2165554432431236, 0.23612646257970482, 0.249727223534137, 0.26956755481660366, 0.2831969878170639, 0.3015211171004921, 0.3165322666754946, 0.3332746581872925, 0.3499569749692455, 0.36705708352383226, 0.38326050993055105, 0.4002022398635745, 0.4166766847483814, 0.4333924521924928, 0.4499757824232802, 0.46679360850248486, 0.48326737072784454, 0.5001408340176567, 0.5165688575943932, 0.5334156970493495, 0.5499577259179205, 0.5666028372943401, 0.5832612607628107, 0.6001313108718023, 0.6166040491079912, 0.6333959337789565, 0.6499519572826102, 0.6666400767862797, 0.6832643669331446, 0.7002170196501538, 0.7166307071456686, 0.7334184959763661, 0.750046199420467, 0.7668264788808301, 0.7831305984873325, 0.8002303657121956, 0.8163320748135448, 0.8333693781169131, 0.8497267457423732, 0.8666814463213086, 0.8830039979657158, 0.9001706665148959]
13	inanimate/n76.jpg	animate	inanimate	right	0.988	[0.0, 0.0, 0.0, 0.0, 0.0, 0.0, 0.0, 0.0, 0.0, 0.0, 0.0, 0.0, 0.0, 0.0, 0.0, 0.0, 0.0, 0.0, 0.0, 0.0, 0.0, 0.0, 0.0, 0.0, 0.0, -3.0, -3.0, -3.0, -3.0, -2.0, 1.0, 11.0, 13.0, 10.0, 2.0, -2.0, -3.0, -4.0, -4.0, -4.0, 0.0, 6.0, 14.0, 32.0, 69.0, 139.0, 231.0, 332.0, 440.0, 582.0, 617.0, 708.0, 731.0, 778.0, 791.0, 795.0, 795.0, 795.0, 795.0]	[-490.0, -490.0, -490.0, -490.0, -490.0, -490.0, -490.0, -490.0, -490.0, -489.0, -476.0, -459.0, -451.0, -451.0, -451.0, -451.0, -451.0, -451.0, -451.0, -451.0, -451.0, -451.0, -451.0, -451.0, -451.0, -452.0, -456.0, -459.0, -459.0, -465.0, -468.0, -471.0, -474.0, -476.0, -481.0, -485.0, -487.0, -491.0, -491.0, -491.0, -491.0, -491.0, -486.0, -473.0, -446.0, -388.0, -300.0, -184.0, -60.0, 105.0, 157.0, 289.0, 329.0, 409.0, 430.0, 437.0, 437.0, 437.0, 437.0]	[0.007519603590480983, 0.021048684720881283, 0.029853714862838387, 0.04704427672550082, 0.06326340441592038, 0.08037409430835396, 0.09653963276650757, 0.11393499444238842, 0.12990017025731504, 0.14712008682545274, 0.16333375324029475, 0.18045570713002235, 0.19663353345822543, 0.21389850601553917, 0.2299244391033426, 0.24708325695246458, 0.26381370169110596, 0.28021475998684764, 0.2968503141310066, 0.3137783908750862, 0.33003131055738777, 0.3471723790280521, 0.3662556333001703, 0.3802704314002767, 0.3967595536960289, 0.4136227770941332, 0.43035834177862853, 0.44701266929041594, 0.4665543339215219, 0.48028582555707544, 0.4968223931500688, 0.5139685816830024, 0.5304215225623921, 0.547105545992963, 0.5660041390219703, 0.5803056570002809, 0.599591663107276, 0.6138839651830494, 0.6326552409445867, 0.646974166855216, 0.665961506543681, 0.6804111631354317, 0.6974395917495713, 0.7138396260561422, 0.7305690468056127, 0.7469892196822912, 0.7633728699292988, 0.7800534800626338, 0.7996456620749086, 0.8136198415886611, 0.8321815386880189, 0.8468117605661973, 0.8663032492622733, 0.8801808315329254, 0.8974901773035526, 0.9133751398185268, 0.930946288164705, 0.9468377360608429, 0.9639255566289648]
14	animate/a28.jpg	animate	inanimate	left	0.819	[0.0, 0.0, 0.0, 0.0, 0.0, 0.0, 0.0, 0.0, 0.0, 0.0, 0.0, 0.0, 0.0, 0.0, 0.0, 0.0, 0.0, 0.0, 0.0, 0.0, 0.0, 0.0, 0.0, 0.0, 0.0, 0.0, 0.0, 0.0, 0.0, 0.0, 0.0, 0.0, -2.0, -2.0, -3.0, -6.0, -12.0, -24.0, -50.0, -102.0, -176.0, -278.0, -393.0, -559.0, -654.0, -723.0, -776.0, -808.0, -819.0, -822.0]	[-490.0, -490.0, -490.0, -490.0, -490.0, -490.0, -490.0, -490.0, -490.0, -490.0, -490.0, -490.0, -490.0, -490.0, -490.0, -490.0, -490.0, -490.0, -490.0, -490.0, -490.0, -490.0, -490.0, -490.0, -490.0, -490.0, -490.0, -488.0, -488.0, -488.0, -488.0, -487.0, -484.0, -483.0, -480.0, -474.0, -465.0, -448.0, -402.0, -321.0, -220.0, -97.0, 42.0, 232.0, 342.0, 423.0, 496.0, 540.0, 540.0, 540.0]	[0.011010759160853922, 0.0193771761842072, 0.025463146390393376, 0.036880399216897786, 0.054087686468847096, 0.07041877135634422, 0.08726970676798373, 0.1037468824069947, 0.12049712438602, 0.13719343591947109, 0.15394845663104206, 0.1704529388807714, 0.18724516488146037, 0.2037892418447882, 0.22053299855906516, 0.23720029671676457, 0.2539235734147951, 0.2704447810538113, 0.2873568149516359, 0.3037305666366592, 0.3205470273969695, 0.3372348054545, 0.35389937297441065, 0.3704386710887775, 0.38739303045440465, 0.4034568516071886, 0.4205736854346469, 0.4372061676112935, 0.4539570923661813, 0.47044792131055146, 0.48737463261932135, 0.5035480216611177, 0.52064676489681, 0.5369092419277877, 0.5540165185229853, 0.5701694275485352, 0.5873971947003156, 0.6034876398043707, 0.6206020844401792, 0.6368184813763946, 0.6539578433148563, 0.6701431790133938, 0.6873245248571038, 0.7034839192638174, 0.7206147478427738, 0.7368239768547937, 0.7539677760796621, 0.7701428717700765, 0.7875085376435891, 0.8035057986853644]
15	inanimate/n20.jpg	animate	inanimate	right	0.911	[0.0, -1.0, -1.0, -1.0, -1.0, -1.0, -1.0, -1.0, -1.0, -1.0, -1.0, -1.0, -1.0, -1.0, -1.0, -1.0, -1.0, -1.0, -1.0, -1.0, -1.0, -1.0, -1.0, -1.0, -1.0, -1.0, -1.0, -1.0, -1.0, -1.0, -1.0, -1.0, -1.0, -1.0, -1.0, -4.0, -9.0, -15.0, -24.0, -37.0, -62.0, -71.0, -73.0, -70.0, -43.0, 1.0, 82.0, 182.0, 364.0, 437.0, 680.0, 758.0, 950.0, 959.0, 959.0]	[-490.0, -492.0, -492.0, -492.0, -492.0, -492.0, -492.0, -492.0, -492.0, -492.0, -492.0, -492.0, -492.0, -492.0, -492.0, -492.0, -492.0, -492.0, -492.0, -492.0, -492.0, -492.0, -492.0, -492.0, -492.0, -492.0, -492.0, -492.0, -492.0, -492.0, -492.0, -492.0, -490.0, -485.0, -482.0, -477.0, -472.0, -466.0, -457.0, -445.0, -423.0, -413.0, -396.0, -363.0, -301.0, -234.0, -147.0, -58.0, 82.0, 128.0, 262.0, 304.0, 413.0, 459.0, 469.0]	[0.00460666639264673, 0.009579890524037182, 0.024413205566816032, 0.04078490915708244, 0.05780548707116395, 0.0739788762293756, 0.09252453071530908, 0.10732610174454749, 0.1246296449098736, 0.1406593327410519, 0.15793488651979715, 0.17400451027788222, 0.19117390946485102, 0.20731316518504173, 0.22458496445324272, 0.24066209746524692, 0.2579192193225026, 0.2741352750454098, 0.2910595970461145, 0.30764429247938097, 0.3244191106641665, 0.3407276675570756, 0.35774688026867807, 0.3741424771724269, 0.39108591387048364, 0.4077108866767958, 0.4245447553694248, 0.44369730015750974, 0.45781620498746634, 0.4768202699488029, 0.491091750562191, 0.5101575969019905, 0.5245034882100299, 0.5413950422080234, 0.5578295510495082, 0.5753600808093324, 0.591164147364907, 0.608267669333145, 0.6244635863695294, 0.6418633854482323, 0.657860646606423, 0.6742825261317194, 0.6907535577192903, 0.707818167633377, 0.7246684203855693, 0.7410377346677706, 0.7574719021795318, 0.7769784096162766, 0.7908904664218426, 0.8101392672397196, 0.8242568067507818, 0.8420979495858774, 0.8575149443931878, 0.8744194690370932, 0.8907566979760304]
16	animate/a31.jpg	inanimate	animate	right	0.916	[0.0, 0.0, 0.0, 0.0, 0.0, 0.0, 0.0, 0.0, 0.0, 0.0, 2.0, 2.0, 2.0, 2.0, 2.0, 2.0, 2.0, 2.0, 2.0, 2.0, 2.0, 2.0, 2.0, 2.0, 2.0, 2.0, 2.0, 2.0, 2.0, 2.0, 2.0, 2.0, 2.0, 2.0, 2.0, 2.0, 2.0, 3.0, 6.0, 8.0, 11.0, 22.0, 49.0, 100.0, 221.0, 334.0, 434.0, 523.0, 611.0, 686.0, 740.0, 766.0, 774.0, 775.0, 775.0]	[-490.0, -490.0, -490.0, -490.0, -490.0, -490.0, -490.0, -490.0, -486.0, -468.0, -449.0, -449.0, -449.0, -449.0, -449.0, -449.0, -449.0, -449.0, -449.0, -449.0, -449.0, -449.0, -449.0, -449.0, -449.0, -449.0, -449.0, -449.0, -449.0, -449.0, -449.0, -449.0, -449.0, -448.0, -447.0, -445.0, -443.0, -441.0, -439.0, -437.0, -433.0, -421.0, -390.0, -333.0, -208.0, -113.0, -19.0, 81.0, 186.0, 279.0, 358.0, 420.0, 450.0, 455.0, 455.0]	[0.015894349082373083, 0.021834911429323256, 0.029950789990834892, 0.04804212995804846, 0.06334785022772849, 0.08133917965460569, 0.09726680885069072, 0.11385184561368078, 0.13063349039293826, 0.14722023392096162, 0.16381721734069288, 0.18011689966078848, 0.19693267776165158, 0.21378566115163267, 0.2305103032849729, 0.24719569203443825, 0.26349639834370464, 0.28047089627943933, 0.2973754210397601, 0.31379252194892615, 0.33041135082021356, 0.34719094750471413, 0.3638517602812499, 0.38047297846060246, 0.39685867680236697, 0.4140577719081193, 0.4303997795796022, 0.44729338155593723, 0.4640132450731471, 0.4806938552064821, 0.4973761719884351, 0.5138936247676611, 0.5305742349009961, 0.5467807332752272, 0.5637313380138949, 0.5808877665549517, 0.5973308087559417, 0.6138380216434598, 0.6307992076035589, 0.6483526066876948, 0.6635142841842026, 0.6806041528470814, 0.6970635789912194, 0.7148958472535014, 0.7302193167852238, 0.7472617400344461, 0.7636003342922777, 0.7806233016308397, 0.7969031865941361, 0.8137343246489763, 0.8303480334579945, 0.8472866914235055, 0.866260377690196, 0.880668391706422, 0.8981463561067358]
17	inanimate/n17.jpg	inanimate	animate	left	1.025	[0.0, 0.0, 0.0, 0.0, 0.0, 0.0, 0.0, 0.0, 0.0, 0.0, 0.0, 0.0, 0.0, 0.0, 0.0, 0.0, 0.0, 0.0, 0.0, 0.0, 0.0, 0.0, 0.0, 0.0, 0.0, 0.0, 0.0, 0.0, 0.0, 0.0, 0.0, 0.0, 0.0, 0.0, 0.0, 0.0, 0.0, 0.0, -1.0, -12.0, -25.0, -43.0, -65.0, -95.0, -100.0, -100.0, -100.0, -100.0, -105.0, -128.0, -166.0, -212.0, -270.0, -353.0, -436.0, -535.0, -654.0, -712.0, -742.0, -765.0, -778.0, -779.0]	[-490.0, -490.0, -490.0, -490.0, -490.0, -490.0, -490.0, -490.0, -490.0, -490.0, -490.0, -490.0, -490.0, -490.0, -490.0, -490.0, -490.0, -490.0, -490.0, -490.0, -490.0, -490.0, -490.0, -490.0, -490.0, -490.0, -490.0, -490.0, -490.0, -490.0, -490.0, -490.0, -490.0, -490.0, -490.0, -490.0, -490.0, -490.0, -487.0, -481.0, -472.0, -463.0, -447.0, -425.0, -416.0, -404.0, -379.0, -339.0, -286.0, -215.0, -139.0, -53.0, 41.0, 140.0, 229.0, 314.0, 412.0, 454.0, 475.0, 487.0, 492.0, 492.0]	[0.011771590681746602, 0.017610777053050697, 0.024003264377824962, 0.038325262372381985, 0.055579994921572506, 0.07171242404729128, 0.08890230325050652, 0.10513576690573245, 0.12228980613872409, 0.13840687519405037, 0.15545783180277795, 0.17201692727394402, 0.1886627214262262, 0.20529691025149077, 0.22219085367396474, 0.2413997184485197, 0.25557084719184786, 0.2747742506908253, 0.28879553417209536, 0.3078511403873563, 0.32205947453621775, 0.33906708180438727, 0.3555917026242241, 0.37187636632006615, 0.388588379137218, 0.4081474517006427, 0.42190693272277713, 0.4414120747242123, 0.45540878223255277, 0.47310451709199697, 0.48859728791285306, 0.5060656949644908, 0.5220960654551163, 0.5388415288180113, 0.5551773924380541, 0.5721665677847341, 0.5884573754156008, 0.605471468064934, 0.6219834595685825, 0.6386746510397643, 0.6552258959272876, 0.6720812686253339, 0.6886454841587692, 0.7054356621811166, 0.7219241017010063, 0.7388593463692814, 0.7550296634435654, 0.772209643968381, 0.7887738595018163, 0.8054773389594629, 0.8217797519173473, 0.8387313806451857, 0.8550843108678237, 0.8721939767710865, 0.8883625871967524, 0.9056183437351137, 0.9216657808283344, 0.9388355213450268, 0.9551177957328036, 0.972303920192644, 0.9883714959723875, 1.0056770871160552]
18	animate/a39.jpg	animate	inanimate	left	1.051	[0.0, 0.0, 0.0, 0.0, 0.0, 0.0, -2.0, -2.0, -2.0, -2.0, -2.0, -2.0, -2.0, -2.0, -2.0, -2.0, -2.0, -2.0, -2.0, -2.0, -2.0, -2.0, -2.0, -2.0, -2.0, -2.0, -2.0, -2.0, -2.0, -2.0, -2.0, -2.0, 0.0, 1.0, 2.0, 4.0, 13.0, 16.0, 17.0, 17.0, 20.0, 21.0, 21.0, 21.0, 23.0, 23.0, 23.0, 16.0, -4.0, -49.0, -164.0, -217.0, -380.0, -494.0, -590.0, -667.0, -722.0, -761.0, -790.0, -807.0, -816.0, -817.0, -817.0]	[-490.0, -490.0, -490.0, -490.0, -490.0, -490.0, -492.0, -492.0, -492.0, -492.0, -491.0, -483.0, -483.0, -483.0, -483.0, -483.0, -483.0, -483.0, -483.0, -483.0, -483.0, -483.0, -483.0, -483.0, -483.0, -483.0, -483.0, -483.0, -483.0, -483.0, -483.0, -485.0, -488.0, -491.0, -492.0, -493.0, -495.0, -495.0, -495.0, -495.0, -495.0, -494.0, -492.0, -490.0, -487.0, -485.0, -480.0, -464.0, -435.0, -387.0, -257.0, -208.0, -39.0, 71.0, 155.0, 215.0, 253.0, 283.0, 311.0, 332.0, 346.0, 349.0, 349.0]	[0.004742073360830545, 0.009981878683902323, 0.024662959156557918, 0.04102988413069397, 0.05805182736366987, 0.07436243235133588, 0.09135775163304061, 0.10771341260988265, 0.12466913729440421, 0.14121287281159312, 0.15806790417991579, 0.17460413044318557, 0.1913789485115558, 0.20796466793399304, 0.22485076065640897, 0.24100913107395172, 0.2580491650151089, 0.27424235141370445, 0.2914554412709549, 0.30756636627484113, 0.3247647788375616, 0.3409272452117875, 0.35815706045832485, 0.3742625241866335, 0.3914742487249896, 0.4075783471344039, 0.42472555965650827, 0.4409368366468698, 0.4581550465663895, 0.4742345690028742, 0.49146097083576024, 0.5076394798234105, 0.5249413163401186, 0.5409331161063164, 0.5581759019987658, 0.5742738564731553, 0.5914610049221665, 0.607646340620704, 0.6247259692754596, 0.6409587502712384, 0.6581930028041825, 0.6745247704675421, 0.691466159070842, 0.7079382146475837, 0.7248679980402812, 0.7429586553480476, 0.7580636716447771, 0.7770694432547316, 0.7913726678816602, 0.8101446263026446, 0.8246888321591541, 0.8438656117068604, 0.8580346924718469, 0.8769384054467082, 0.8912812247872353, 0.9104597109835595, 0.9247943382943049, 0.9416148950112984, 0.9581186946015805, 0.9747866754187271, 0.9913505495060235, 1.0076659332262352, 1.0244629379594699]
19	animate/a62.jpg	inanimate	animate	right	0.924	[0.0, 0.0, 0.0, 0.0, 0.0, 0.0, 0.0, 0.0, 0.0, 1.0, 6.0, 6.0, 6.0, 6.0, 6.0, 6.0, 6.0, 6.0, 6.0, 6.0, 6.0, 6.0, 6.0, 9.0, 13.0, 14.0, 15.0, 15.0, 15.0, 16.0, 18.0, 20.0, 21.0, 22.0, 22.0, 23.0, 23.0, 22.0, 11.0, -19.0, -45.0, -50.0, -32.0, 2.0, 60.0, 174.0, 268.0, 380.0, 505.0, 631.0, 746.0, 828.0, 871.0, 887.0, 889.0, 889.0]	[-490.0, -490.0, -490.0, -490.0, -490.0, -490.0, -490.0, -490.0, -490.0, -487.0, -477.0, -476.0, -476.0, -476.0, -476.0, -476.0, -476.0, -476.0, -476.0, -476.0, -476.0, -476.0, -476.0, -483.0, -489.0, -492.0, -497.0, -501.0, -503.0, -505.0, -505.0, -506.0, -506.0, -506.0, -506.0, -504.0, -501.0, -494.0, -480.0, -453.0, -412.0, -374.0, -311.0, -243.0, -166.0, -36.0, 44.0, 128.0, 218.0, 298.0, 365.0, 402.0, 430.0, 442.0, 443.0, 443.0]	[0.005871647037565708, 0.013813787023536861, 0.023297728737816215, 0.040298509411513805, 0.056278362520970404, 0.07316547923255712, 0.09064037166535854, 0.106367296888493, 0.12381795467808843, 0.13978449581190944, 0.156740220496431, 0.17316790274344385, 0.1901342086493969, 0.20634309644810855, 0.22340326895937324, 0.23960055131465197, 0.25676039326936007, 0.2731873928569257, 0.29006085614673793, 0.30654724780470133, 0.3233439112082124, 0.33986716670915484, 0.3567252700449899, 0.37320210435427725, 0.39001754100900143, 0.40648720727767795, 0.4232739720027894, 0.44004025671165437, 0.45679561886936426, 0.47325299703516066, 0.490224423003383, 0.5065613107290119, 0.5234579846728593, 0.5397262644255534, 0.5567185116233304, 0.5729919113218784, 0.5901244465494528, 0.6064517769264057, 0.6232760882703587, 0.6396570078795776, 0.6568489350611344, 0.6729178761597723, 0.6900657713413239, 0.7062285791616887, 0.7233938823919743, 0.7396119859768078, 0.7567155079450458, 0.7729189343517646, 0.7902852827683091, 0.8063955252291635, 0.8232993672136217, 0.8395833481336012, 0.8568414939800277, 0.8731565363705158, 0.8900665222899988, 0.9088862673379481]
20	inanimate/n39.jpg	inanimate	animate	left	1.142	[0.0, 0.0, 0.0, 0.0, 0.0, 0.0, 0.0, 0.0, 0.0, 0.0, 0.0, 0.0, 0.0, -1.0, -1.0, -1.0, -1.0, -1.0, -1.0, -1.0, -1.0, -1.0, -1.0, -1.0, -1.0, -1.0, -1.0, -1.0, -1.0, 0.0, 1.0, 3.0, 3.0, 4.0, 4.0, 4.0, 4.0, 4.0, 4.0, 4.0, 3.0, 3.0, 3.0, 3.0, 5.0, 15.0, 32.0, 54.0, 90.0, 127.0, 147.0, 160.0, 163.0, 162.0, 139.0, 92.0, 23.0, -121.0, -229.0, -344.0, -462.0, -560.0, -647.0, -727.0, -797.0, -850.0, -885.0, -890.0, -890.0]	[-490.0, -491.0, -491.0, -491.0, -491.0, -491.0, -491.0, -491.0, -491.0, -491.0, -489.0, -480.0, -463.0, -458.0, -458.0, -458.0, -458.0, -458.0, -458.0, -458.0, -458.0, -458.0, -458.0, -458.0, -458.0, -458.0, -458.0, -458.0, -458.0, -461.0, -465.0, -470.0, -470.0, -471.0, -472.0, -472.0, -472.0, -476.0, -479.0, -480.0, -481.0, -481.0, -481.0, -481.0, -481.0, -476.0, -466.0, -447.0, -419.0, -391.0, -368.0, -345.0, -323.0, -298.0, -252.0, -182.0, -99.0, 26.0, 104.0, 186.0, 267.0, 334.0, 393.0, 441.0, 485.0, 517.0, 540.0, 540.0, 540.0]	[0.009209100273437798, 0.0138696632348001, 0.02150972338858992, 0.033884415635839105, 0.05042303120717406, 0.06735520390793681, 0.0835951529443264, 0.10076352814212441, 0.12005226488690823, 0.1338905937736854, 0.15300661604851484, 0.16747368057258427, 0.1861995590152219, 0.20072942890692502, 0.21955702465493232, 0.2339554812060669, 0.25147884292528033, 0.2673532241024077, 0.28422190889250487, 0.3005785938585177, 0.31683731614612043, 0.3336653822334483, 0.3533524547237903, 0.3671757649863139, 0.38657270441763103, 0.4004468733910471, 0.4179719416424632, 0.43376372032798827, 0.4512454393552616, 0.46718433254864067, 0.48426054778974503, 0.500162918237038, 0.5174490534700453, 0.5337890130467713, 0.5506474577123299, 0.567104494664818, 0.5838400594657287, 0.600476978928782, 0.6173245009267703, 0.6337228285847232, 0.6504986706422642, 0.6671349074458703, 0.683982088114135, 0.7004589224234223, 0.7172736764186993, 0.7335095294984058, 0.7506813179934397, 0.7668509524082765, 0.7839889489114285, 0.8001555113587528, 0.8172549372538924, 0.8334361769957468, 0.8505526694934815, 0.866798079921864, 0.8838432338088751, 0.9001132202101871, 0.9172095741378143, 0.933449181728065, 0.9506260902853683, 0.9668172287056223, 0.984154905192554, 1.0001497769262642, 1.0173553575295955, 1.0334983678767458, 1.0506694737123325, 1.0668387667974457, 1.083949798019603, 1.1002607443369925, 1.117341396980919]
21	animate/a31.jpg	animate	inanimate	left	0.898	[0.0, 0.0, 0.0, 0.0, 0.0, 0.0, 0.0, 8.0, 19.0, 29.0, 32.0, 32.0, 32.0, 32.0, 32.0, 32.0, 32.0, 32.0, 32.0, 32.0, 32.0, 32.0, 32.0, 33.0, 37.0, 39.0, 45.0, 49.0, 51.0, 54.0, 56.0, 57.0, 59.0, 62.0, 63.0, 63.0, 63.0, 63.0, 63.0, 62.0, 54.0, 37.0, 7.0, -52.0, -133.0, -225.0, -336.0, -459.0, -585.0, -696.0, -767.0, -806.0, -821.0, -821.0]	[-490.0, -490.0, -490.0, -490.0, -490.0, -489.0, -471.0, -428.0, -357.0, -290.0, -285.0, -285.0, -285.0, -285.0, -285.0, -285.0, -285.0, -285.0, -285.0, -285.0, -285.0, -285.0, -286.0, -289.0, -298.0, -300.0, -308.0, -313.0, -318.0, -321.0, -324.0, -327.0, -327.0, -327.0, -327.0, -327.0, -327.0, -327.0, -324.0, -319.0, -314.0, -301.0, -280.0, -234.0, -144.0, -24.0, 105.0, 228.0, 334.0, 439.0, 529.0, 540.0, 540.0, 540.0]	[0.010450631380081177, 0.01614918850827962, 0.02193137223366648, 0.0358369437744841, 0.05282134038861841, 0.06925823865458369, 0.08633172325789928, 0.10263686685357243, 0.11964583955705166, 0.1359523484716192, 0.15296063851565123, 0.17205447400920093, 0.18620785349048674, 0.20517129974905401, 0.2196574789704755, 0.23835775745101273, 0.25286066194530576, 0.269562776084058, 0.2860092316986993, 0.3027236338239163, 0.3196025585057214, 0.3358732274500653, 0.3526490695076063, 0.37190367304719985, 0.3860614898148924, 0.4042504511307925, 0.4194704967085272, 0.4363101680064574, 0.4527293170103803, 0.4699843907728791, 0.48612569458782673, 0.503591712214984, 0.5194418588653207, 0.5365511834388599, 0.5524173725862056, 0.5697007770650089, 0.5860632647527382, 0.6028083867859095, 0.6195808155462146, 0.6361747269984335, 0.6527440625941381, 0.6696339099435136, 0.6860585202230141, 0.7027992049697787, 0.7193415751680732, 0.7361955825472251, 0.7526778780156747, 0.7695622640894726, 0.7860701596364379, 0.802936113672331, 0.8195098865544423, 0.8362003952497616, 0.8524929096456617, 0.8696196421515197]
22	animate/a6.jpg	animate	inanimate	left	1.619	[0.0, 0.0, -1.0, -1.0, -1.0, -1.0, -1.0, -1.0, -3.0, -6.0, -9.0, -9.0, -9.0, -9.0, -9.0, -9.0, -9.0, -9.0, -9.0, -9.0, -9.0, -9.0, -9.0, -3.0, 1.0, 5.0, 10.0, 13.0, 15.0, 17.0, 17.0, 18.0, 18.0, 18.0, 18.0, 19.0, 19.0, 19.0, 19.0, 19.0, 19.0, 19.0, 19.0, 15.0, 8.0, -7.0, -43.0, -115.0, -269.0, -387.0, -500.0, -606.0, -710.0, -816.0, -926.0, -960.0, -960.0, -960.0, -960.0, -960.0, -960.0, -960.0, -960.0, -960.0, -960.0, -958.0, -940.0, -904.0, -861.0, -818.0, -749.0, -662.0, -531.0, -461.0, -400.0, -358.0, -319.0, -282.0, -250.0, -223.0, -202.0, -187.0, -180.0, -179.0, -179.0, -180.0, -202.0, -257.0, -345.0, -457.0, -582.0, -696.0, -788.0, -840.0, -858.0, -865.0, -865.0]	[-490.0, -490.0, -490.0, -490.0, -490.0, -490.0, -490.0, -490.0, -487.0, -478.0, -461.0, -459.0, -459.0, -459.0, -459.0, -459.0, -459.0, -459.0, -459.0, -459.0, -459.0, -459.0, -459.0, -463.0, -467.0, -472.0, -477.0, -479.0, -481.0, -481.0, -483.0, -484.0, -484.0, -484.0, -484.0, -484.0, -484.0, -482.0, -482.0, -481.0, -481.0, -478.0, -474.0, -466.0, -457.0, -441.0, -405.0, -346.0, -194.0, -70.0, 57.0, 196.0, 342.0, 488.0, 540.0, 540.0, 540.0, 540.0, 540.0, 540.0, 540.0, 540.0, 540.0, 540.0, 540.0, 527.0, 487.0, 421.0, 347.0, 260.0, 159.0, 42.0, -139.0, -230.0, -291.0, -325.0, -354.0, -384.0, -410.0, -431.0, -443.0, -450.0, -453.0, -453.0, -453.0, -453.0, -410.0, -299.0, -154.0, -2.0, 145.0, 272.0, 358.0, 409.0, 432.0, 450.0, 451.0]	[0.0064007134642452, 0.011238086968660355, 0.026776937651447952, 0.04349372908473015, 0.06040439778007567, 0.07686041062697768, 0.0938465140061453, 0.11017896432895213, 0.1271066996268928, 0.1435145845171064, 0.160455631907098, 0.17706934071611613, 0.19384450011420995, 0.2103346463991329, 0.2271497417241335, 0.24339788279030472, 0.2604751220205799, 0.2767328203190118, 0.29385067825205624, 0.31000119796954095, 0.32730508246459067, 0.34341225284151733, 0.3604877854231745, 0.37671749445144087, 0.39384354441426694, 0.4100404854398221, 0.42721090861596167, 0.4433846389874816, 0.46057212888263166, 0.4768424566136673, 0.49387395719531924, 0.5102886687964201, 0.5273229000158608, 0.5455733013805002, 0.5605595336528495, 0.5797864891355857, 0.5938634099438787, 0.6126432190649211, 0.6272096115862951, 0.644766082521528, 0.6605943838367239, 0.6775740018347278, 0.6938586654141545, 0.7109481927473098, 0.7271826803917065, 0.7434195573441684, 0.7603063327260315, 0.7769845535513014, 0.7936020169872791, 0.8102495179045945, 0.8271250291727483, 0.8436848074197769, 0.8602790602017194, 0.877240928937681, 0.8936573471873999, 0.912721486762166, 0.9271933300187811, 0.9436018975684419, 0.960493792896159, 0.9770259230863303, 0.9934829600388184, 1.0104243486421183, 1.027139092097059, 1.043863051570952, 1.0614027972333133, 1.0770969545701519, 1.0936191860819235, 1.1103882015449926, 1.1270114677026868, 1.143808813765645, 1.1602795040234923, 1.1772144072456285, 1.193577577592805, 1.210474934312515, 1.2269797577755526, 1.2439245597925037, 1.2600617675343528, 1.2772246814565733, 1.2936707956250757, 1.3104835017584264, 1.3268384800758213, 1.3439187912736088, 1.3600208417046815, 1.3773141448618844, 1.3933588513173163, 1.410520399804227, 1.426698567578569, 1.444113043951802, 1.4600437451153994, 1.4771759390132502, 1.4933643467957154, 1.510531356674619, 1.5266863136785105, 1.5438560541952029, 1.5601335499668494, 1.5771657332079485, 1.5962448914069682]
23	animate/a54.jpg	inanimate	animate	right	0.928	[0.0, 0.0, 0.0, 0.0, -2.0, -6.0, -9.0, -5.0, -5.0, -5.0, -5.0, -5.0, -5.0, -5.0, -5.0, -5.0, -5.0, -5.0, -5.0, -5.0, -5.0, -5.0, -5.0, -6.0, -6.0, -8.0, -9.0, -12.0, -14.0, -16.0, -20.0, -26.0, -32.0, -42.0, -55.0, -79.0, -112.0, -164.0, -238.0, -343.0, -441.0, -502.0, -522.0, -452.0, -321.0, -156.0, 40.0, 259.0, 464.0, 639.0, 763.0, 837.0, 867.0, 878.0, 878.0, 878.0]	[-490.0, -490.0, -490.0, -490.0, -485.0, -474.0, -460.0, -451.0, -451.0, -451.0, -451.0, -451.0, -451.0, -451.0, -451.0, -451.0, -451.0, -451.0, -451.0, -451.0, -451.0, -451.0, -452.0, -460.0, -464.0, -467.0, -468.0, -468.0, -468.0, -467.0, -462.0, -458.0, -447.0, -429.0, -400.0, -362.0, -311.0, -242.0, -139.0, -8.0, 108.0, 180.0, 225.0, 298.0, 344.0, 370.0, 392.0, 424.0, 456.0, 502.0, 538.0, 540.0, 540.0, 540.0, 540.0, 540.0]	[0.016447172267362475, 0.02586421277374029, 0.03135489800479263, 0.047845044173300266, 0.06499567010905594, 0.08117315510753542, 0.09827804239466786, 0.114499218063429, 0.1317068466451019, 0.14783961698412895, 0.16506260551977903, 0.18122131726704538, 0.19850711105391383, 0.21452519355807453, 0.2316628487315029, 0.24794648843817413, 0.2651094023603946, 0.2813449139939621, 0.29837709723506123, 0.3146818996174261, 0.33168541092891246, 0.3482096904190257, 0.3651968177873641, 0.38133436685893685, 0.3984836273593828, 0.4173013244289905, 0.4315963570261374, 0.45071476860903203, 0.4649374387226999, 0.482554325601086, 0.49844748014584184, 0.515114095644094, 0.5317151751369238, 0.5489381636725739, 0.5653139632195234, 0.5813040564535186, 0.5983201970811933, 0.6145819913363084, 0.6314359987154603, 0.6481882887892425, 0.6647767389658839, 0.6814262878615409, 0.6980662792921066, 0.7150479452684522, 0.7314974728506058, 0.748225528281182, 0.7648556211497635, 0.7816287325695157, 0.7981905586784706, 0.8149408007739112, 0.8314647390507162, 0.84836721571628, 0.8645918046822771, 0.8816058973316103, 0.8981902515515685, 0.9149790642550215]
24	animate/a69.jpg	animate	inanimate	left	0.939	[0.0, 0.0, 0.0, 0.0, -1.0, -7.0, -12.0, -12.0, -12.0, -12.0, -12.0, -12.0, -12.0, -12.0, -12.0, -12.0, -12.0, -12.0, -12.0, -12.0, -12.0, -12.0, -11.0, -11.0, -12.0, -16.0, -19.0, -20.0, -20.0, -20.0, -21.0, -21.0, -20.0, -19.0, -18.0, -18.0, -16.0, -15.0, -15.0, -15.0, -15.0, -15.0, -15.0, -22.0, -61.0, -125.0, -216.0, -334.0, -452.0, -569.0, -670.0, -743.0, -777.0, -798.0, -804.0, -804.0]	[-490.0, -490.0, -490.0, -490.0, -490.0, -486.0, -466.0, -444.0, -444.0, -444.0, -444.0, -444.0, -444.0, -444.0, -444.0, -444.0, -444.0, -444.0, -444.0, -444.0, -444.0, -447.0, -450.0, -453.0, -455.0, -456.0, -456.0, -456.0, -455.0, -455.0, -451.0, -450.0, -448.0, -447.0, -445.0, -445.0, -441.0, -441.0, -440.0, -439.0, -439.0, -437.0, -427.0, -421.0, -368.0, -271.0, -149.0, 4.0, 151.0, 283.0, 398.0, 470.0, 508.0, 531.0, 538.0, 538.0]	[0.004790303646586835, 0.009976860950700939, 0.02470880013424903, 0.041376439621672034, 0.05816320434678346, 0.07432703603990376, 0.0913817472755909, 0.10763500828761607, 0.12481055152602494, 0.1409440046409145, 0.15815436374396086, 0.17426289955619723, 0.19140260282438248, 0.20761831710115075, 0.22478771628811955, 0.24094164941925555, 0.25829400320071727, 0.27430321101564914, 0.29154565546195954, 0.30764975387137383, 0.3246819372288883, 0.3412342061055824, 0.35818173876032233, 0.3746671063126996, 0.3912879830459133, 0.4078098733443767, 0.42483591253403574, 0.4438645534683019, 0.45804831152781844, 0.47697182185947895, 0.49134706787299365, 0.5093834532890469, 0.5248656426556408, 0.5422732924344018, 0.5581667883088812, 0.5748900651233271, 0.5913771393243223, 0.6077256322605535, 0.624489868991077, 0.6441073096357286, 0.6578879532171413, 0.6769514101324603, 0.6911945602623746, 0.7106932168826461, 0.7244786391966045, 0.7426037712721154, 0.7579316780902445, 0.7752795944688842, 0.7909242585301399, 0.8082790016196668, 0.824532262631692, 0.8413862700108439, 0.857797909528017, 0.8746334849856794, 0.8912567511433735, 0.9080851584440097]
25	inanimate/n57.jpg	inanimate	animate	left	1.254	[0.0, -1.0, -1.0, -1.0, -1.0, -1.0, -1.0, -1.0, -1.0, -1.0, -1.0, 1.0, 10.0, 21.0, 21.0, 21.0, 21.0, 21.0, 21.0, 21.0, 21.0, 21.0, 21.0, 21.0, 21.0, 21.0, 21.0, 21.0, 21.0, 21.0, 21.0, 20.0, 20.0, 20.0, 20.0, 20.0, 20.0, 20.0, 20.0, 20.0, 20.0, 20.0, 20.0, 20.0, 17.0, 12.0, 3.0, -7.0, -19.0, -30.0, -41.0, -51.0, -61.0, -72.0, -97.0, -106.0, -112.0, -114.0, -137.0, -168.0, -217.0, -268.0, -330.0, -385.0, -447.0, -516.0, -585.0, -604.0, -645.0, -658.0, -661.0, -661.0, -661.0, -661.0, -661.0]	[-490.0, -491.0, -491.0, -491.0, -491.0, -491.0, -491.0, -491.0, -491.0, -490.0, -485.0, -475.0, -459.0, -441.0, -440.0, -440.0, -440.0, -440.0, -440.0, -440.0, -440.0, -440.0, -440.0, -440.0, -440.0, -440.0, -440.0, -440.0, -440.0, -440.0, -440.0, -442.0, -445.0, -446.0, -447.0, -447.0, -447.0, -447.0, -447.0, -447.0, -447.0, -447.0, -447.0, -445.0, -439.0, -429.0, -419.0, -408.0, -396.0, -386.0, -377.0, -367.0, -354.0, -329.0, -244.0, -217.0, -138.0, -96.0, -38.0, 25.0, 91.0, 146.0, 195.0, 234.0, 279.0, 327.0, 370.0, 381.0, 405.0, 410.0, 411.0, 412.0, 412.0, 412.0, 412.0]	[0.0015459320275112987, 0.007185438531450927, 0.017710446496494114, 0.033874278189614415, 0.05264521250501275, 0.06775910349097103, 0.08424890832975507, 0.1007905958686024, 0.11777192051522434, 0.13410744280554354, 0.15105941286310554, 0.16763659904245287, 0.18428990244865417, 0.2008933713659644, 0.21777878131251782, 0.23424469295423478, 0.25107275892514735, 0.26737585465889424, 0.2844271525973454, 0.3007497042417526, 0.3178211407503113, 0.3342696443432942, 0.3511588090332225, 0.36766329128295183, 0.3843606266891584, 0.4008275623200461, 0.41791162826120853, 0.43403859599493444, 0.45115850190632045, 0.4674496508669108, 0.4845948154106736, 0.5006907217903063, 0.5178932303097099, 0.5340519420569763, 0.5511732132872567, 0.5673380690859631, 0.5845207802485675, 0.600691438652575, 0.617979280417785, 0.6340509521542117, 0.6511691514169797, 0.6673582418588921, 0.684514670399949, 0.7007372113876045, 0.7178724772529677, 0.7340209489921108, 0.7511087695602328, 0.76736032392364, 0.784680592478253, 0.8007785468362272, 0.8179598926799372, 0.8371247255709022, 0.8510159611469135, 0.8688161440659314, 0.8843795707216486, 0.9037802647799253, 0.9178066682070494, 0.9349525155266747, 0.9511692537926137, 0.9684700663201511, 0.984682708629407, 1.0010899109765887, 1.0177421903936192, 1.0340671313460916, 1.0508439975092188, 1.0701586755458266, 1.0841471911408007, 1.1027594056213275, 1.1176855632802472, 1.1346030585700646, 1.151008554152213, 1.1683759266743436, 1.184280686546117, 1.2015316643519327, 1.2173606482101604]
26	animate/a67.jpg	animate	inanimate	left	0.974	[0.0, 0.0, 0.0, 0.0, 0.0, 0.0, 0.0, 0.0, 0.0, 0.0, 0.0, 0.0, 0.0, 0.0, 3.0, 11.0, 11.0, 11.0, 11.0, 11.0, 11.0, 11.0, 11.0, 11.0, 11.0, 11.0, 12.0, 15.0, 19.0, 19.0, 19.0, 19.0, 19.0, 19.0, 19.0, 20.0, 20.0, 20.0, 17.0, 13.0, 10.0, 2.0, -8.0, -24.0, -40.0, -58.0, -81.0, -120.0, -179.0, -261.0, -367.0, -475.0, -583.0, -741.0, -828.0, -887.0, -903.0, -903.0]	[-490.0, -490.0, -490.0, -490.0, -490.0, -490.0, -490.0, -490.0, -490.0, -490.0, -490.0, -490.0, -486.0, -472.0, -441.0, -420.0, -420.0, -420.0, -420.0, -420.0, -420.0, -420.0, -420.0, -420.0, -420.0, -420.0, -423.0, -431.0, -438.0, -440.0, -442.0, -443.0, -443.0, -443.0, -443.0, -443.0, -442.0, -438.0, -434.0, -428.0, -424.0, -413.0, -403.0, -392.0, -380.0, -369.0, -355.0, -327.0, -277.0, -183.0, -62.0, 62.0, 178.0, 345.0, 425.0, 475.0, 488.0, 488.0]	[0.002755275461822748, 0.008159603457897902, 0.01702095358632505, 0.03342849714681506, 0.04976982215885073, 0.06641049624886364, 0.08291600248776376, 0.09946963668335229, 0.1180617124773562, 0.13267043035011739, 0.15128913009539247, 0.16610674385447055, 0.1830037592444569, 0.19943178282119334, 0.21642846742179245, 0.23298961098771542, 0.25004671153146774, 0.26636892184615135, 0.2832246358739212, 0.2996229635318741, 0.3164636589353904, 0.332871543825604, 0.34966991387773305, 0.36625017202459276, 0.38313080347143114, 0.39957589365076274, 0.41647700499743223, 0.4330620418768376, 0.44974879594519734, 0.46623245684895664, 0.4831028482876718, 0.4994779651751742, 0.5164592898217961, 0.5330129240173846, 0.5499222273938358, 0.5663656109245494, 0.5831076609902084, 0.5993691140320152, 0.6164600065676495, 0.6326480730203912, 0.6496778669534251, 0.6660099759465083, 0.6832172630820423, 0.6994517508428544, 0.7165112406946719, 0.7326842884067446, 0.7497465090127662, 0.7660083033842966, 0.7832756652496755, 0.7993326596915722, 0.8165419948054478, 0.8326768132392317, 0.8498141271993518, 0.8660161881707609, 0.883235763409175, 0.8995388590265065, 0.9164887809893116, 0.9328103086445481]
27	inanimate/n3.jpg	inanimate	animate	left	1.003	[0.0, 0.0, 0.0, 0.0, 0.0, 0.0, 0.0, 0.0, 3.0, 8.0, 14.0, 17.0, 17.0, 17.0, 17.0, 17.0, 17.0, 17.0, 17.0, 17.0, 17.0, 17.0, 17.0, 21.0, 23.0, 25.0, 25.0, 26.0, 27.0, 28.0, 29.0, 29.0, 29.0, 29.0, 29.0, 28.0, 27.0, 27.0, 27.0, 27.0, 27.0, 27.0, 22.0, 16.0, 3.0, -18.0, -65.0, -144.0, -236.0, -333.0, -431.0, -525.0, -616.0, -700.0, -796.0, -834.0, -846.0, -850.0, -850.0, -850.0]	[-490.0, -490.0, -490.0, -490.0, -490.0, -490.0, -490.0, -490.0, -476.0, -444.0, -390.0, -371.0, -371.0, -371.0, -371.0, -371.0, -371.0, -371.0, -371.0, -371.0, -371.0, -376.0, -385.0, -397.0, -403.0, -412.0, -419.0, -421.0, -423.0, -424.0, -424.0, -424.0, -424.0, -424.0, -424.0, -423.0, -422.0, -422.0, -422.0, -422.0, -422.0, -422.0, -415.0, -409.0, -394.0, -372.0, -320.0, -238.0, -157.0, -72.0, 24.0, 124.0, 217.0, 299.0, 382.0, 416.0, 430.0, 436.0, 436.0, 436.0]	[0.001796811819076538, 0.011669190833345056, 0.018385944655165076, 0.03509215475060046, 0.0523206046782434, 0.06854007369838655, 0.08550706226378679, 0.10200642456766218, 0.11896761052776128, 0.13536866882350296, 0.15219844155944884, 0.1686022304929793, 0.1857344243908301, 0.20202420803252608, 0.21902157529257238, 0.23812018951866776, 0.25215273699723184, 0.27146980445832014, 0.28551122662611306, 0.30313425755593926, 0.31904345471411943, 0.3356933449395001, 0.352225816459395, 0.36873951461166143, 0.3854385567829013, 0.40196112962439656, 0.41861818777397275, 0.43603368813637644, 0.4520073973108083, 0.47032708930782974, 0.48508019105065614, 0.5027141447644681, 0.5186752245062962, 0.5358145864447579, 0.5517456289380789, 0.569263870595023, 0.5852956064045429, 0.6030575600452721, 0.6186718452954665, 0.6360709617147222, 0.6519992735702544, 0.6688915103441104, 0.6853174859425053, 0.7021486238809302, 0.7186671007657424, 0.7355009695747867, 0.7521191156702116, 0.7688492190791294, 0.7854267465882003, 0.8020984821487218, 0.8186678176280111, 0.8353770996909589, 0.8517778166569769, 0.8689837384736165, 0.885376263409853, 0.9022265161620453, 0.9183889825362712, 0.9355897844070569, 0.9520464800298214, 0.9688759113196284]
28	inanimate/n45.jpg	animate	inanimate	right	1.0	[0.0, 0.0, 0.0, 0.0, 0.0, 0.0, 0.0, 0.0, 0.0, 0.0, 6.0, 21.0, 24.0, 24.0, 24.0, 24.0, 24.0, 24.0, 24.0, 24.0, 24.0, 24.0, 24.0, 24.0, 24.0, 27.0, 27.0, 30.0, 30.0, 30.0, 30.0, 29.0, 28.0, 25.0, 24.0, 22.0, 22.0, 18.0, 10.0, 6.0, 4.0, 4.0, 4.0, 12.0, 31.0, 74.0, 128.0, 259.0, 364.0, 476.0, 577.0, 672.0, 748.0, 803.0, 834.0, 852.0, 854.0, 854.0, 854.0, 854.0]	[-490.0, -490.0, -490.0, -490.0, -490.0, -490.0, -490.0, -490.0, -490.0, -483.0, -463.0, -413.0, -400.0, -400.0, -400.0, -400.0, -400.0, -400.0, -400.0, -400.0, -400.0, -400.0, -400.0, -400.0, -400.0, -401.0, -405.0, -409.0, -412.0, -416.0, -418.0, -423.0, -425.0, -426.0, -426.0, -427.0, -427.0, -426.0, -421.0, -418.0, -417.0, -415.0, -410.0, -401.0, -385.0, -349.0, -302.0, -200.0, -106.0, 1.0, 105.0, 212.0, 296.0, 354.0, 385.0, 401.0, 402.0, 402.0, 402.0, 402.0]	[0.0009462096495553851, 0.008062664652243257, 0.018982253735885024, 0.032378556206822395, 0.04947798221837729, 0.06580394716002047, 0.08285422110930085, 0.09920237271580845, 0.11617789464071393, 0.13261103827971965, 0.1495159042533487, 0.1659289092058316, 0.18283275119028986, 0.19902525492943823, 0.21618407277856022, 0.23261141369584948, 0.24967738904524595, 0.26599925791379064, 0.2826880600769073, 0.2993161049671471, 0.31614621891640127, 0.3325892612338066, 0.3494316632859409, 0.3659269295167178, 0.3828352087875828, 0.39931579772382975, 0.4163087276974693, 0.43237801012583077, 0.44950132933445275, 0.46569110243581235, 0.48281408031471074, 0.4992878425400704, 0.5161278552841395, 0.5326432600850239, 0.5495058008236811, 0.565735851181671, 0.5827352664200589, 0.5990079834591597, 0.6161992279812694, 0.6323388250311837, 0.6495457709534094, 0.6656891226302832, 0.6828486232552677, 0.699028838891536, 0.7161726381164044, 0.7324037124635652, 0.7495710636721924, 0.7661045592976734, 0.7827056387905031, 0.799228552961722, 0.8164460801053792, 0.835095499875024, 0.8494772312697023, 0.8686891680117697, 0.8827592622255906, 0.9017899511381984, 0.9160989784868434, 0.935424237861298, 0.9496144813019782, 0.9683260236633942]
29	inanimate/n1.jpg	inanimate	animate	left	0.93	[0.0, 0.0, 0.0, 0.0, 0.0, 0.0, 0.0, 0.0, 0.0, 0.0, 0.0, 0.0, 0.0, -1.0, 4.0, 4.0, 4.0, 4.0, 4.0, 4.0, 4.0, 4.0, 4.0, 4.0, 4.0, 4.0, 8.0, 26.0, 28.0, 30.0, 30.0, 30.0, 30.0, 30.0, 30.0, 29.0, 26.0, 22.0, 0.0, -13.0, -66.0, -117.0, -188.0, -270.0, -354.0, -444.0, -538.0, -628.0, -706.0, -763.0, -815.0, -851.0, -885.0, -892.0, -893.0, -893.0]	[-490.0, -490.0, -490.0, -490.0, -490.0, -490.0, -490.0, -491.0, -491.0, -491.0, -491.0, -491.0, -491.0, -491.0, -483.0, -483.0, -483.0, -483.0, -483.0, -483.0, -483.0, -483.0, -483.0, -483.0, -483.0, -483.0, -485.0, -496.0, -497.0, -497.0, -498.0, -498.0, -498.0, -498.0, -498.0, -497.0, -490.0, -486.0, -466.0, -452.0, -383.0, -309.0, -216.0, -117.0, -13.0, 95.0, 212.0, 312.0, 394.0, 461.0, 527.0, 540.0, 540.0, 540.0, 540.0, 540.0]	[0.015325210290029645, 0.020146882510744035, 0.029144424595870078, 0.04583937069401145, 0.06268279673531651, 0.07893025514204055, 0.09608736634254456, 0.11247886728961021, 0.12924754130654037, 0.14559910632669926, 0.1627142335055396, 0.17895520653109998, 0.1961355283856392, 0.2122375788167119, 0.22948002337943763, 0.24556568975094706, 0.2627692222595215, 0.27892759267706424, 0.29603384528309107, 0.3122458049328998, 0.3294121321523562, 0.3455804012482986, 0.36276447772979736, 0.3789269441040233, 0.3961168233072385, 0.41221750841941684, 0.4294903315603733, 0.44583609385881573, 0.46262593066785485, 0.4791662528878078, 0.49619263340719044, 0.5145884427474812, 0.5294784191064537, 0.546984372776933, 0.5627689833054319, 0.5817075123777613, 0.5960387262748554, 0.6148977247066796, 0.6292855999199674, 0.6473308600252494, 0.662692217505537, 0.680569541756995, 0.6961199977668002, 0.7134539195103571, 0.7293798420578241, 0.745925284223631, 0.7636759738670662, 0.7792742165038362, 0.7959012372884899, 0.8124842261895537, 0.8292119402904063, 0.8459652543533593, 0.862975592375733, 0.8792104213498533, 0.8957896555075422, 0.912960761343129]
30	inanimate/n65.jpg	animate	inanimate	right	0.972	[0.0, 0.0, 0.0, 0.0, 0.0, 0.0, 0.0, 0.0, 1.0, 11.0, 21.0, 23.0, 23.0, 23.0, 23.0, 23.0, 23.0, 23.0, 23.0, 23.0, 23.0, 23.0, 23.0, 23.0, 23.0, 23.0, 23.0, 23.0, 23.0, 23.0, 23.0, 23.0, 23.0, 23.0, 21.0, 17.0, 16.0, 15.0, 12.0, 4.0, -11.0, -62.0, -89.0, -197.0, -234.0, -279.0, -278.0, -249.0, -196.0, -104.0, 24.0, 180.0, 351.0, 526.0, 683.0, 789.0, 843.0, 853.0, 853.0]	[-490.0, -490.0, -490.0, -490.0, -490.0, -490.0, -490.0, -490.0, -490.0, -457.0, -438.0, -433.0, -433.0, -433.0, -433.0, -433.0, -433.0, -433.0, -433.0, -433.0, -433.0, -433.0, -433.0, -433.0, -433.0, -433.0, -433.0, -433.0, -433.0, -433.0, -434.0, -435.0, -435.0, -433.0, -429.0, -426.0, -421.0, -418.0, -417.0, -411.0, -400.0, -356.0, -327.0, -219.0, -184.0, -124.0, -93.0, -47.0, 6.0, 65.0, 131.0, 197.0, 266.0, 340.0, 395.0, 425.0, 439.0, 442.0, 442.0]	[0.006156318821012974, 0.010600817971862853, 0.0192781895166263, 0.02711827086750418, 0.04373709962237626, 0.06110754411201924, 0.07709217583760619, 0.09419638046529144, 0.11043325753416866, 0.1273797661997378, 0.143750787130557, 0.16096626629587263, 0.1771447752835229, 0.19431280915159732, 0.2107520968420431, 0.22752008819952607, 0.24400682107079774, 0.26101647643372416, 0.27731547609437257, 0.29427973402198404, 0.31073472287971526, 0.32764982897788286, 0.34629105671774596, 0.360989203909412, 0.3795713810250163, 0.39429444551933557, 0.41309712384827435, 0.42749558051582426, 0.4455387925263494, 0.46101517928764224, 0.47781423199921846, 0.4941582876490429, 0.5114201882388443, 0.5275993798859417, 0.544348256662488, 0.5609831281471997, 0.5771920158294961, 0.5939060766249895, 0.613592125242576, 0.6273710621753708, 0.6463915110798553, 0.6606875677825883, 0.6786543212365359, 0.6939559454331174, 0.7132876901887357, 0.7273219443159178, 0.744631290086545, 0.7605295646935701, 0.7780754542909563, 0.7937808756250888, 0.8110325360903516, 0.8273666930617765, 0.8443203697679564, 0.8606907080393285, 0.8775047793751583, 0.8939512349897996, 0.9108711197040975, 0.9273401031969115, 0.9441278919111937]
31	inanimate/n14.jpg	animate	inanimate	right	0.939	[0.0, 0.0, 0.0, 0.0, 0.0, 0.0, 0.0, 1.0, 1.0, 1.0, 1.0, 1.0, 1.0, 1.0, 1.0, 2.0, 4.0, 5.0, 5.0, 5.0, 5.0, 5.0, 5.0, 5.0, 5.0, 5.0, 5.0, 5.0, 5.0, 5.0, 5.0, 5.0, 5.0, 5.0, 5.0, 5.0, 5.0, 5.0, 11.0, 12.0, 12.0, 20.0, 36.0, 105.0, 190.0, 304.0, 404.0, 500.0, 593.0, 686.0, 769.0, 827.0, 864.0, 878.0, 879.0, 879.0]	[-490.0, -490.0, -491.0, -492.0, -492.0, -492.0, -492.0, -493.0, -493.0, -493.0, -493.0, -493.0, -493.0, -493.0, -493.0, -493.0, -489.0, -475.0, -464.0, -464.0, -464.0, -464.0, -464.0, -464.0, -464.0, -464.0, -464.0, -464.0, -464.0, -464.0, -464.0, -464.0, -464.0, -464.0, -464.0, -464.0, -463.0, -461.0, -459.0, -457.0, -453.0, -445.0, -426.0, -351.0, -264.0, -154.0, -44.0, 69.0, 177.0, 289.0, 393.0, 473.0, 522.0, 540.0, 540.0, 540.0]	[0.010734279290772974, 0.02992710145190358, 0.03626190358772874, 0.05346168135292828, 0.0696374598192051, 0.08681402693036944, 0.10297649342101067, 0.1202284952159971, 0.1363073349930346, 0.15348526753950864, 0.1696654831757769, 0.1869103170465678, 0.20302226615604013, 0.22026368661317974, 0.23636710236314684, 0.25499877287074924, 0.26972559199202806, 0.286781327216886, 0.3058884748024866, 0.32008725160267204, 0.3390411405125633, 0.35339522385038435, 0.3713189692934975, 0.3868335853330791, 0.4040927551686764, 0.42014872562140226, 0.4368743917439133, 0.45346215926110744, 0.4699663001811132, 0.4866465689847246, 0.5033555097179487, 0.5198524825973436, 0.5378943294053897, 0.5533359000692144, 0.5710831764154136, 0.5864667204441503, 0.6033493998693302, 0.6198931353865191, 0.6373495957814157, 0.6532837102422491, 0.670998218585737, 0.6866097731981426, 0.703614991158247, 0.7199522200971842, 0.736645118216984, 0.7532697498099878, 0.7700619758106768, 0.7866668100468814, 0.8034061294747517, 0.8196430064272135, 0.8368103576358408, 0.8533093784935772, 0.8700814659241587, 0.886529628187418, 0.9033815875882283, 0.920139338937588]
32	inanimate/n27.jpg	inanimate	animate	left	1.069	[0.0, 0.0, 0.0, 0.0, 1.0, 9.0, 25.0, 35.0, 35.0, 37.0, 42.0, 42.0, 42.0, 42.0, 42.0, 42.0, 42.0, 42.0, 42.0, 42.0, 42.0, 42.0, 42.0, 48.0, 56.0, 62.0, 64.0, 66.0, 66.0, 66.0, 66.0, 66.0, 66.0, 67.0, 62.0, 49.0, 30.0, 8.0, -13.0, -26.0, -28.0, -28.0, -17.0, 3.0, 49.0, 120.0, 205.0, 289.0, 348.0, 387.0, 403.0, 403.0, 384.0, 276.0, 153.0, 16.0, -153.0, -328.0, -504.0, -649.0, -754.0, -810.0, -830.0, -831.0]	[-490.0, -490.0, -490.0, -490.0, -490.0, -482.0, -445.0, -411.0, -365.0, -328.0, -316.0, -316.0, -316.0, -316.0, -316.0, -316.0, -316.0, -316.0, -316.0, -316.0, -316.0, -316.0, -316.0, -319.0, -326.0, -330.0, -333.0, -334.0, -334.0, -334.0, -334.0, -334.0, -334.0, -334.0, -326.0, -318.0, -307.0, -296.0, -286.0, -281.0, -279.0, -266.0, -247.0, -223.0, -184.0, -132.0, -69.0, -10.0, 40.0, 95.0, 144.0, 162.0, 174.0, 190.0, 196.0, 196.0, 207.0, 231.0, 282.0, 321.0, 361.0, 386.0, 396.0, 396.0]	[0.004432381712831557, 0.011125242337584496, 0.024023198406212032, 0.040848533739335835, 0.057191565399989486, 0.07411725271958858, 0.09053810825571418, 0.10755493154283613, 0.12410822440870106, 0.1408202372258529, 0.15714995691087097, 0.1742053508060053, 0.19037908117752522, 0.20761230972129852, 0.22372152807656676, 0.24093222862575203, 0.25705748971085995, 0.27421425958164036, 0.2904009605990723, 0.30769801849965006, 0.3237731035333127, 0.34090734540950507, 0.35711247846484184, 0.3744972589192912, 0.3904153307667002, 0.4076946392888203, 0.42377108964137733, 0.44096335826907307, 0.45712992059998214, 0.4743081944761798, 0.49059934343677014, 0.5075704280752689, 0.5268707702634856, 0.5408227631123737, 0.5598411640385166, 0.5741952473763376, 0.5918196436250582, 0.6076237101806328, 0.6244104750221595, 0.6408914051717147, 0.6571777755161747, 0.6739986735628918, 0.6906625584233552, 0.7073431685566902, 0.7240288986358792, 0.7406064261449501, 0.7584345983341336, 0.7739782277494669, 0.7919705811655149, 0.8073728986782953, 0.8241951620439067, 0.8406672176206484, 0.8575075715780258, 0.8739451525034383, 0.890667746658437, 0.9071694981539622, 0.924333777395077, 0.9404344625072554, 0.9574130565160885, 0.9740649946033955, 0.9907333167502657, 1.007363409618847, 1.0240730330115184, 1.040744427125901]
33	inanimate/n24.jpg	inanimate	animate	left	1.486	[0.0, 0.0, 0.0, 0.0, 0.0, 0.0, 0.0, 1.0, 1.0, -5.0, -31.0, -41.0, -41.0, -41.0, -41.0, -41.0, -41.0, -41.0, -41.0, -41.0, -41.0, -41.0, -41.0, -41.0, -41.0, -41.0, -41.0, -41.0, -36.0, -34.0, -29.0, -24.0, -20.0, -16.0, -14.0, -13.0, -11.0, -11.0, -9.0, -9.0, -9.0, -9.0, -9.0, -9.0, -10.0, -16.0, -32.0, -60.0, -115.0, -194.0, -296.0, -405.0, -534.0, -712.0, -816.0, -893.0, -950.0, -960.0, -960.0, -960.0, -960.0, -960.0, -960.0, -960.0, -960.0, -960.0, -960.0, -960.0, -960.0, -960.0, -960.0, -960.0, -954.0, -939.0, -919.0, -898.0, -876.0, -857.0, -855.0, -855.0, -855.0, -855.0, -855.0, -855.0, -855.0, -855.0, -855.0, -855.0, -855.0]	[-490.0, -490.0, -490.0, -490.0, -490.0, -490.0, -490.0, -482.0, -451.0, -389.0, -302.0, -254.0, -254.0, -254.0, -254.0, -254.0, -254.0, -254.0, -254.0, -254.0, -254.0, -254.0, -254.0, -254.0, -254.0, -254.0, -254.0, -255.0, -262.0, -266.0, -277.0, -285.0, -290.0, -292.0, -293.0, -294.0, -298.0, -299.0, -302.0, -302.0, -302.0, -302.0, -302.0, -302.0, -299.0, -294.0, -285.0, -274.0, -245.0, -196.0, -104.0, 3.0, 112.0, 260.0, 344.0, 405.0, 457.0, 493.0, 515.0, 530.0, 535.0, 537.0, 537.0, 537.0, 537.0, 537.0, 537.0, 537.0, 537.0, 537.0, 537.0, 533.0, 509.0, 486.0, 464.0, 452.0, 444.0, 436.0, 435.0, 435.0, 435.0, 435.0, 435.0, 435.0, 435.0, 435.0, 435.0, 435.0, 435.0]	[0.0005659646121785045, 0.005796553916297853, 0.016183321946300566, 0.03325168660376221, 0.04965752351563424, 0.06654395745135844, 0.0830453677335754, 0.09997617499902844, 0.11613830015994608, 0.13319062208756804, 0.1495937283616513, 0.16656242357566953, 0.1827081646770239, 0.19987824652343988, 0.21607552899513394, 0.23323332285508513, 0.24941899988334626, 0.2666573483729735, 0.28274369752034545, 0.3000151553424075, 0.3162592003354803, 0.3331589463632554, 0.3496122285723686, 0.366639974527061, 0.38559215678833425, 0.3998581761261448, 0.41896225174423307, 0.4331886764848605, 0.4521794293541461, 0.46650245133787394, 0.48561983893159777, 0.49996231694240123, 0.5173436839831993, 0.5332726784981787, 0.5500512513099238, 0.5665325227892026, 0.5829431384336203, 0.5996152152074501, 0.6194691996788606, 0.6330685954308137, 0.6522730229189619, 0.6664264024002478, 0.683227161760442, 0.6997480279533193, 0.7168778325431049, 0.7329884163336828, 0.7502912767231464, 0.7663141378434375, 0.7832329985685647, 0.7995306329103187, 0.8164071682840586, 0.8329314477741718, 0.8498496258398518, 0.8663073453353718, 0.8831555501092225, 0.8997207896318287, 0.916435532970354, 0.93282327929046, 0.9497906093019992, 0.9663660888327286, 0.9832057601306587, 0.9997303810669109, 1.0164526337757707, 1.0330530306091532, 1.0498271660180762, 1.0664299522759393, 1.0832621143199503, 1.0994846553076059, 1.116535953246057, 1.1327533742878586, 1.1499057068722323, 1.1660661252681166, 1.183222895138897, 1.1994082308374345, 1.2164649900514632, 1.2327363417716697, 1.2498695596586913, 1.2660733273951337, 1.2833543424494565, 1.2994509316049516, 1.3165506988298148, 1.3329224024200812, 1.3498914390802383, 1.3689508000388741, 1.3831922434037551, 1.402389161521569, 1.4165708716027439, 1.4356490058125928, 1.4498232066398486]
34	inanimate/n16.jpg	inanimate	animate	left	1.83	[0.0, 0.0, 0.0, 0.0, 0.0, 0.0, 0.0, 0.0, 0.0, 0.0, 0.0, 0.0, 0.0, 0.0, 0.0, 0.0, 0.0, 0.0, 0.0, 1.0, 1.0, 1.0, 1.0, 1.0, 1.0, 1.0, 1.0, 1.0, 1.0, 1.0, 1.0, 1.0, 1.0, 1.0, 1.0, 1.0, 1.0, 1.0, 1.0, 1.0, 1.0, 1.0, 1.0, 1.0, 1.0, 1.0, -10.0, -18.0, -21.0, -29.0, -35.0, -39.0, -39.0, -39.0, -39.0, -39.0, -39.0, -39.0, -39.0, -33.0, -23.0, -6.0, 14.0, 37.0, 79.0, 139.0, 228.0, 382.0, 475.0, 549.0, 601.0, 646.0, 668.0, 679.0, 682.0, 682.0, 682.0, 682.0, 682.0, 682.0, 682.0, 682.0, 682.0, 682.0, 682.0, 682.0, 682.0, 682.0, 682.0, 682.0, 682.0, 682.0, 682.0, 672.0, 605.0, 489.0, 334.0, 144.0, -70.0, -272.0, -442.0, -655.0, -715.0, -813.0, -864.0, -891.0, -898.0, -899.0, -899.0, -899.0]	[-490.0, -490.0, -490.0, -490.0, -490.0, -490.0, -490.0, -490.0, -490.0, -490.0, -490.0, -490.0, -490.0, -490.0, -490.0, -490.0, -490.0, -490.0, -490.0, -491.0, -491.0, -491.0, -491.0, -491.0, -491.0, -491.0, -491.0, -491.0, -491.0, -491.0, -491.0, -491.0, -491.0, -491.0, -491.0, -491.0, -491.0, -491.0, -491.0, -491.0, -491.0, -491.0, -491.0, -491.0, -491.0, -491.0, -497.0, -497.0, -497.0, -494.0, -492.0, -491.0, -490.0, -490.0, -490.0, -490.0, -490.0, -490.0, -489.0, -483.0, -478.0, -467.0, -456.0, -444.0, -418.0, -389.0, -331.0, -231.0, -182.0, -145.0, -117.0, -92.0, -76.0, -67.0, -65.0, -65.0, -65.0, -65.0, -65.0, -65.0, -65.0, -65.0, -65.0, -65.0, -65.0, -65.0, -65.0, -65.0, -65.0, -65.0, -65.0, -65.0, -65.0, -65.0, -65.0, -51.0, -20.0, 18.0, 63.0, 118.0, 166.0, 253.0, 278.0, 327.0, 362.0, 383.0, 392.0, 392.0, 392.0, 392.0]	[0.003714182646945119, 0.00838498561643064, 0.023399207275360823, 0.03912237787153572, 0.05638223036658019, 0.07243990746792406, 0.08946082671172917, 0.10577791708055884, 0.12282307096756995, 0.13913435861468315, 0.15614469663705677, 0.17245598428416997, 0.18950421013869345, 0.20592643111012876, 0.22283061442431062, 0.23934567801188678, 0.2560948961181566, 0.2723788770381361, 0.2895158496685326, 0.305923051899299, 0.3228006112622097, 0.33927915222011507, 0.35616831679362804, 0.3726349110947922, 0.38957937178201973, 0.4059705313993618, 0.4228047414217144, 0.43908360239584, 0.4562157962936908, 0.47241239598952234, 0.48959510715212673, 0.5056770190130919, 0.5229054688243195, 0.5390573538606986, 0.5562393823638558, 0.5723909261869267, 0.5895879733143374, 0.6057139170588925, 0.6229915189323947, 0.6393519585253671, 0.6563093898585066, 0.6726333068218082, 0.689563772873953, 0.7057825592346489, 0.7229321610648185, 0.7392328673740849, 0.7563517492963001, 0.7751356543740258, 0.78952933230903, 0.8085296425269917, 0.8227642592974007, 0.8419598120963201, 0.8561241142451763, 0.873765918542631, 0.8896136757684872, 0.906796045601368, 0.9229144799755886, 0.9394701621495187, 0.9562845749314874, 0.9723405453842133, 0.9891897740308195, 1.0088860626565292, 1.0225953676272184, 1.041093235486187, 1.0559750199317932, 1.072903437889181, 1.0893150775227696, 1.1063643273664638, 1.122658548410982, 1.1394002571469173, 1.156023864634335, 1.1729512586025521, 1.1893041889416054, 1.206179358996451, 1.222566763870418, 1.2395893898792565, 1.255747077637352, 1.2728731274837628, 1.2891007885336876, 1.3060868917964399, 1.3226159500190988, 1.3395723573630676, 1.356034172931686, 1.3728465376188979, 1.3891902519389987, 1.4063125471584499, 1.4224507788894698, 1.4395979914115742, 1.4556679566157982, 1.4728783157188445, 1.489059555460699, 1.5062204214045778, 1.5223552397219464, 1.5395983669441193, 1.5557127053616568, 1.5728786912513897, 1.5891162508632988, 1.6062436661450192, 1.6225170658435673, 1.6395823584171012, 1.6585925673134625, 1.6727660853648558, 1.6918544596992433, 1.7061911349883303, 1.7252491305116564, 1.739605261827819, 1.7569268957013264, 1.772900604759343, 1.790024948073551, 1.8062379317125306]
35	inanimate/n15.jpg	animate	inanimate	right	1.222	[0.0, 0.0, 0.0, 0.0, 0.0, 0.0, -1.0, -1.0, -1.0, -4.0, -11.0, -11.0, -11.0, -11.0, -11.0, -11.0, -11.0, -11.0, -11.0, -11.0, -11.0, -11.0, -11.0, -11.0, -11.0, -11.0, -11.0, -11.0, -11.0, -11.0, -11.0, -11.0, -11.0, -12.0, -14.0, -15.0, -17.0, -19.0, -19.0, -19.0, -19.0, -16.0, -8.0, -6.0, -6.0, -5.0, -4.0, -3.0, 3.0, 6.0, 9.0, 10.0, 12.0, 15.0, 18.0, 21.0, 24.0, 30.0, 42.0, 65.0, 105.0, 171.0, 314.0, 422.0, 526.0, 613.0, 694.0, 746.0, 774.0, 785.0, 789.0, 789.0, 789.0, 789.0]	[-490.0, -490.0, -490.0, -490.0, -490.0, -490.0, -487.0, -483.0, -480.0, -471.0, -457.0, -455.0, -455.0, -455.0, -455.0, -455.0, -455.0, -455.0, -455.0, -455.0, -455.0, -455.0, -455.0, -455.0, -455.0, -455.0, -455.0, -455.0, -455.0, -455.0, -455.0, -455.0, -455.0, -455.0, -456.0, -457.0, -457.0, -460.0, -461.0, -463.0, -464.0, -465.0, -465.0, -465.0, -465.0, -464.0, -461.0, -456.0, -448.0, -445.0, -442.0, -440.0, -437.0, -433.0, -430.0, -427.0, -423.0, -419.0, -409.0, -392.0, -359.0, -293.0, -133.0, -14.0, 112.0, 221.0, 325.0, 396.0, 440.0, 458.0, 466.0, 467.0, 467.0, 467.0]	[0.015166831784881651, 0.021803713752888143, 0.03286700404714793, 0.04494064056780189, 0.062059522490017116, 0.0810335500864312, 0.09519409749191254, 0.1130079337162897, 0.12859696033410728, 0.1478751158574596, 0.16191722068469971, 0.18092947755940259, 0.1952760515268892, 0.21437534841243178, 0.22856525052338839, 0.2458186176372692, 0.26211420400068164, 0.2787838914664462, 0.29517846438102424, 0.312082989141345, 0.32862160459626466, 0.3449031963245943, 0.3617336517199874, 0.38106539647560567, 0.3951392451999709, 0.4145669046556577, 0.42845575080718845, 0.4459756992291659, 0.4617821550928056, 0.4792031168472022, 0.495097978040576, 0.5119820227846503, 0.5284595396369696, 0.5452674670377746, 0.561928621144034, 0.5786454125773162, 0.5950809455243871, 0.6120107289170846, 0.6284288538154215, 0.6453695597592741, 0.6617153220577165, 0.6785433881450444, 0.695093609043397, 0.7121196482330561, 0.7284159172559157, 0.7452709486242384, 0.7617296922253445, 0.7785765315638855, 0.7948966939002275, 0.8120811117114499, 0.8281616581371054, 0.8453628013376147, 0.8614716784795746, 0.8786612163530663, 0.8948086641030386, 0.911991375265643, 0.9281593030318618, 0.9453147075837478, 0.9615427098469809, 0.9786639810772613, 0.9948718448868021, 1.0121030253358185, 1.0282074650749564, 1.0452911896863952, 1.0616284186253324, 1.0785465966910124, 1.095067121554166, 1.1120924782007933, 1.1284341444261372, 1.1454123971052468, 1.1636136464076117, 1.178643569466658, 1.1977165836142376, 1.2119477869709954]
36	inanimate/n71.jpg	inanimate	animate	left	1.212	[0.0, -1.0, -1.0, -1.0, 0.0, 1.0, 1.0, 2.0, 2.0, 2.0, 2.0, 2.0, 2.0, 2.0, 2.0, 2.0, 2.0, 2.0, 2.0, 2.0, 2.0, 2.0, 2.0, 2.0, 2.0, 2.0, 2.0, 2.0, 2.0, 2.0, 2.0, 2.0, 2.0, 2.0, 2.0, 2.0, 2.0, 2.0, 2.0, 2.0, 2.0, -1.0, -3.0, -4.0, -4.0, -4.0, -4.0, -9.0, -19.0, -38.0, -65.0, -135.0, -240.0, -362.0, -492.0, -599.0, -679.0, -721.0, -749.0, -758.0, -764.0, -768.0, -773.0, -781.0, -790.0, -800.0, -806.0, -811.0, -811.0, -814.0, -815.0, -815.0, -815.0]	[-490.0, -489.0, -489.0, -489.0, -487.0, -484.0, -479.0, -476.0, -474.0, -474.0, -474.0, -474.0, -474.0, -474.0, -474.0, -474.0, -474.0, -474.0, -474.0, -474.0, -474.0, -474.0, -474.0, -474.0, -474.0, -474.0, -474.0, -474.0, -474.0, -474.0, -474.0, -474.0, -473.0, -473.0, -473.0, -471.0, -470.0, -470.0, -468.0, -465.0, -460.0, -454.0, -448.0, -443.0, -442.0, -438.0, -435.0, -422.0, -407.0, -386.0, -360.0, -304.0, -231.0, -150.0, -52.0, 36.0, 115.0, 173.0, 231.0, 267.0, 292.0, 319.0, 342.0, 364.0, 385.0, 406.0, 422.0, 436.0, 438.0, 449.0, 451.0, 451.0, 451.0]	[0.008958561928011477, 0.014622303075157106, 0.019237810047343373, 0.0332638721447438, 0.04956867452710867, 0.0665994924493134, 0.08283159078564495, 0.0999477420700714, 0.11641638434957713, 0.1332697089528665, 0.14954276732169092, 0.16660805989522487, 0.18285073956940323, 0.19994914147537202, 0.21618601854424924, 0.23340047372039407, 0.24947453488130122, 0.2666459820466116, 0.2828388271154836, 0.3000427009537816, 0.3162078979657963, 0.33329810795839876, 0.34947354497853667, 0.36669141345191747, 0.3830255704233423, 0.4001475243130699, 0.41616663080640137, 0.43324557680170983, 0.4495012271218002, 0.4664958637440577, 0.48303857527207583, 0.49998405994847417, 0.5162270809523761, 0.5332480001961812, 0.5497343917377293, 0.566531396470964, 0.5857873653294519, 0.5999799980781972, 0.6188741537043825, 0.6333087916718796, 0.6508283986477181, 0.6666734252357855, 0.6834059179527685, 0.6999598934780806, 0.7168879702221602, 0.7333275991259143, 0.7500303959241137, 0.766572083462961, 0.7836902826093137, 0.7999984982889146, 0.816391023225151, 0.8329869827721268, 0.8525136287789792, 0.8664461656007916, 0.8843251965008676, 0.8997490179026499, 0.9166849452303723, 0.9331208195071667, 0.9531185051891953, 0.9661560665117577, 0.9857864778023213, 0.9995729241054505, 1.01957777782809, 1.0330846722936258, 1.0523563424358144, 1.066383087192662, 1.0857431626645848, 1.099783560843207, 1.117405909113586, 1.1331253250828013, 1.1508999079233035, 1.1664336386602372, 1.1832644353853539]
37	animate/a53.jpg	inanimate	animate	right	1.161	[0.0, 0.0, 0.0, 0.0, -1.0, -1.0, -1.0, -5.0, -10.0, -10.0, -10.0, -10.0, -10.0, -10.0, -10.0, -10.0, -10.0, -10.0, -10.0, -10.0, -10.0, -10.0, -10.0, -10.0, -10.0, -10.0, -10.0, -10.0, -10.0, -10.0, -9.0, -7.0, -3.0, 6.0, 6.0, 6.0, 6.0, 7.0, 8.0, 12.0, 18.0, 22.0, 22.0, 7.0, -37.0, -136.0, -241.0, -363.0, -490.0, -604.0, -682.0, -703.0, -696.0, -640.0, -520.0, -334.0, -110.0, 117.0, 346.0, 667.0, 805.0, 878.0, 909.0, 917.0, 917.0, 917.0, 917.0, 917.0, 917.0, 917.0]	[-490.0, -491.0, -493.0, -493.0, -494.0, -494.0, -494.0, -486.0, -480.0, -477.0, -477.0, -477.0, -477.0, -477.0, -477.0, -477.0, -477.0, -477.0, -477.0, -477.0, -477.0, -477.0, -477.0, -477.0, -477.0, -477.0, -477.0, -477.0, -477.0, -477.0, -477.0, -477.0, -475.0, -470.0, -470.0, -469.0, -469.0, -468.0, -466.0, -461.0, -455.0, -450.0, -445.0, -424.0, -384.0, -309.0, -218.0, -103.0, 22.0, 123.0, 189.0, 230.0, 262.0, 296.0, 316.0, 320.0, 320.0, 320.0, 320.0, 352.0, 392.0, 427.0, 449.0, 461.0, 464.0, 464.0, 464.0, 464.0, 464.0, 464.0]	[0.01513030903879553, 0.02024450385943055, 0.028178451699204743, 0.04556186683475971, 0.06450210243929178, 0.07869883126113564, 0.09669050201773643, 0.11213651008438319, 0.13097093242686242, 0.14539874368347228, 0.16432225401513278, 0.1787452866556123, 0.19808931939769536, 0.2120897815329954, 0.2290181996067986, 0.245449636480771, 0.2621903212275356, 0.27862312353681773, 0.29499380313791335, 0.3117488238494843, 0.33155229105614126, 0.345245553413406, 0.36374751722905785, 0.3785924377152696, 0.3954983276780695, 0.41166557278484106, 0.4302777871489525, 0.445177320856601, 0.4625689280219376, 0.4786010051611811, 0.49617112951818854, 0.5118069187738001, 0.5291879446012899, 0.5453442669240758, 0.5623477782355621, 0.5785744152963161, 0.5953857559943572, 0.6119376835413277, 0.6287374189123511, 0.6453234797809273, 0.6620419778628275, 0.678543729474768, 0.6953096728539094, 0.7118916376493871, 0.7287572503555566, 0.7452071192674339, 0.7620481560006738, 0.7785615128232166, 0.7953912855591625, 0.8119930477114394, 0.8287651351420209, 0.8453365187160671, 0.8621386433951557, 0.8783891737693921, 0.8953466051025316, 0.9116739353630692, 0.928709190688096, 0.9449621103703976, 0.9619936109520495, 0.9783066052477807, 0.9954364098375663, 1.0116476868279278, 1.0287884140852839, 1.0449614617973566, 1.062137346365489, 1.0783049328019843, 1.0955449879402295, 1.1117405636468902, 1.1288672961527482, 1.1453577837673947]
38	animate/a69.jpg	inanimate	animate	right	0.968	[0.0, 0.0, 0.0, 0.0, 0.0, 0.0, 0.0, 0.0, 1.0, 1.0, 1.0, 1.0, 1.0, 1.0, 1.0, 1.0, 1.0, 1.0, 1.0, 1.0, 1.0, 1.0, 1.0, 1.0, 4.0, 5.0, 5.0, 5.0, 6.0, 6.0, 6.0, 6.0, 6.0, 6.0, 11.0, 15.0, 16.0, 16.0, 12.0, 3.0, -1.0, -1.0, -1.0, 10.0, 30.0, 100.0, 168.0, 269.0, 383.0, 511.0, 641.0, 764.0, 853.0, 917.0, 953.0, 959.0, 959.0, 959.0]	[-490.0, -492.0, -492.0, -492.0, -492.0, -492.0, -492.0, -490.0, -482.0, -479.0, -479.0, -479.0, -479.0, -479.0, -479.0, -479.0, -479.0, -479.0, -479.0, -479.0, -479.0, -479.0, -479.0, -481.0, -485.0, -486.0, -486.0, -486.0, -486.0, -486.0, -486.0, -486.0, -486.0, -486.0, -487.0, -487.0, -487.0, -484.0, -476.0, -468.0, -464.0, -460.0, -458.0, -445.0, -428.0, -374.0, -326.0, -255.0, -165.0, -40.0, 108.0, 253.0, 368.0, 457.0, 507.0, 526.0, 527.0, 527.0]	[0.0033984495094045997, 0.010168792679905891, 0.021796306828036904, 0.03840591956395656, 0.055398849537596107, 0.07170262793079019, 0.08876587252598256, 0.10505633882712573, 0.12207384477369487, 0.1382847804343328, 0.15543745434843004, 0.1716668220469728, 0.18881949596107006, 0.2049768422730267, 0.22202779888175428, 0.23829129990190268, 0.2554695737781003, 0.2716600295389071, 0.2888045114232227, 0.304968343116343, 0.3221305743791163, 0.3383333180099726, 0.3555487971752882, 0.37173413299024105, 0.38862090825568885, 0.4050608784891665, 0.4222053603734821, 0.43857604009099305, 0.45537543413229287, 0.47173792170360684, 0.4888073103502393, 0.5078581379493698, 0.5220060560386628, 0.541189662180841, 0.5554055055836216, 0.5745669250609353, 0.5886725179152563, 0.6062283061910421, 0.6222149860113859, 0.6394427531631663, 0.6555550436023623, 0.6725578722544014, 0.6888974905014038, 0.705197514151223, 0.7218723216792569, 0.7386679610935971, 0.755239344551228, 0.7717772774631158, 0.7885674554854631, 0.8050296123838052, 0.8219355024630204, 0.8385727632557973, 0.8552444986999035, 0.8719155514845625, 0.8886343908961862, 0.905220793094486, 0.9218167526414618, 0.9387502906611189]
39	animate/a26.jpg	inanimate	animate	right	0.925	[0.0, 0.0, 0.0, 0.0, 0.0, 0.0, -4.0, -6.0, -6.0, -6.0, -6.0, -6.0, -6.0, -6.0, -6.0, -6.0, -6.0, -6.0, -6.0, -6.0, -6.0, -6.0, -6.0, -6.0, -6.0, -6.0, -6.0, -6.0, -6.0, -6.0, -4.0, -1.0, -1.0, -1.0, -1.0, -1.0, -1.0, -1.0, -1.0, 0.0, 10.0, 28.0, 68.0, 188.0, 292.0, 401.0, 510.0, 619.0, 707.0, 787.0, 849.0, 887.0, 905.0, 909.0, 910.0, 910.0]	[-490.0, -490.0, -490.0, -490.0, -490.0, -490.0, -489.0, -481.0, -465.0, -458.0, -458.0, -458.0, -458.0, -458.0, -458.0, -458.0, -458.0, -458.0, -458.0, -458.0, -458.0, -458.0, -458.0, -458.0, -458.0, -458.0, -458.0, -458.0, -458.0, -458.0, -459.0, -459.0, -459.0, -459.0, -459.0, -459.0, -459.0, -459.0, -459.0, -459.0, -455.0, -448.0, -425.0, -359.0, -282.0, -196.0, -84.0, 42.0, 184.0, 318.0, 428.0, 500.0, 540.0, 540.0, 540.0, 540.0]	[0.0098980130860582, 0.015394842252135277, 0.020392642356455326, 0.03373023553285748, 0.049701214069500566, 0.06850286840926856, 0.0829689089441672, 0.09930033527780324, 0.11604204401373863, 0.13587179395835847, 0.1491233711130917, 0.1691500701708719, 0.18272181798238307, 0.2021576693514362, 0.21609191282186657, 0.23558135353960097, 0.2492254638345912, 0.26670957228634506, 0.2827447213931009, 0.3003687763120979, 0.3160796590382233, 0.33305006101727486, 0.3493770499480888, 0.36637441720813513, 0.38278093677945435, 0.3996270935749635, 0.4161489837570116, 0.43306784436572343, 0.4493972227210179, 0.46627921937033534, 0.48273659765254706, 0.49956534639932215, 0.5160793858813122, 0.5329538732767105, 0.5492289796238765, 0.5663051948649809, 0.5827967064687982, 0.5995722071966156, 0.6159497133921832, 0.6330730327172205, 0.6494430296588689, 0.6662980610271916, 0.6825550766661763, 0.6995626839343458, 0.716105395462364, 0.7330822828225791, 0.7491959385806695, 0.7662922925082967, 0.7825428227661178, 0.799652147339657, 0.8158371418248862, 0.8329099436523393, 0.8491365807130933, 0.8662452226271853, 0.8824476250447333, 0.8996047362452373]
40	inanimate/n77.jpg	inanimate	animate	left	0.967	[0.0, 0.0, 0.0, 0.0, -4.0, -8.0, -16.0, -19.0, -19.0, -19.0, -19.0, -19.0, -19.0, -19.0, -19.0, -19.0, -19.0, -19.0, -19.0, -19.0, -19.0, -19.0, -19.0, -19.0, -19.0, -19.0, -19.0, -19.0, -19.0, -19.0, -19.0, -19.0, -23.0, -25.0, -25.0, -25.0, -25.0, -25.0, -29.0, -33.0, -42.0, -56.0, -100.0, -147.0, -201.0, -277.0, -348.0, -429.0, -513.0, -582.0, -637.0, -679.0, -715.0, -750.0, -763.0, -767.0, -768.0, -768.0]	[-490.0, -490.0, -490.0, -490.0, -488.0, -482.0, -470.0, -469.0, -468.0, -468.0, -468.0, -468.0, -468.0, -468.0, -468.0, -468.0, -468.0, -468.0, -468.0, -468.0, -468.0, -468.0, -468.0, -468.0, -468.0, -468.0, -468.0, -468.0, -468.0, -468.0, -469.0, -470.0, -474.0, -475.0, -478.0, -479.0, -479.0, -479.0, -473.0, -470.0, -459.0, -443.0, -393.0, -328.0, -252.0, -163.0, -82.0, 5.0, 97.0, 170.0, 232.0, 281.0, 321.0, 363.0, 381.0, 390.0, 391.0, 391.0]	[0.0006799697875976562, 0.006210932275280356, 0.015418394235894084, 0.033142459811642766, 0.04864000924862921, 0.06648081075400114, 0.08249855192843825, 0.09910270338878036, 0.1155191216384992, 0.13248474500142038, 0.14869021927006543, 0.16589067981112748, 0.1820408581988886, 0.19916588417254388, 0.2156700249761343, 0.2323615577770397, 0.24886228539980948, 0.2657630554167554, 0.28233580419328064, 0.2991293956292793, 0.31564684852492064, 0.3325046105310321, 0.3487773275701329, 0.36580678017344326, 0.38212113978806883, 0.3992082776967436, 0.4155240027466789, 0.43251317797694355, 0.4486869083484635, 0.46574093704111874, 0.48207748332060874, 0.4991437998833135, 0.5153400582494214, 0.5326726146740839, 0.5486934278160334, 0.5658990084193647, 0.5820573787204921, 0.5992465752642602, 0.6153742256574333, 0.632571614230983, 0.6487446619430557, 0.6658573998138309, 0.6823021487798542, 0.6990377135807648, 0.7157138863112777, 0.7324320430634543, 0.748769954778254, 0.7659557379083708, 0.7849072376266122, 0.7991343449102715, 0.8155292592709884, 0.8325320878066123, 0.8516235341085121, 0.8658004654571414, 0.8847925837617368, 0.8992012804374099, 0.917871180223301, 0.9325386072741821]
41	animate/a2.jpg	inanimate	animate	right	1.013	[0.0, 0.0, 0.0, 0.0, 0.0, 0.0, 0.0, 0.0, -1.0, -1.0, -1.0, -1.0, 1.0, 1.0, 1.0, 1.0, 1.0, 1.0, 1.0, 1.0, 1.0, 1.0, 1.0, 1.0, 1.0, 1.0, 1.0, 1.0, 1.0, 1.0, 1.0, 1.0, 1.0, 1.0, 1.0, 2.0, 2.0, 2.0, 2.0, 3.0, 4.0, 7.0, 11.0, 24.0, 39.0, 106.0, 201.0, 321.0, 446.0, 570.0, 670.0, 755.0, 823.0, 866.0, 891.0, 892.0, 884.0, 880.0, 880.0, 880.0, 880.0]	[-490.0, -490.0, -490.0, -490.0, -490.0, -490.0, -490.0, -490.0, -490.0, -490.0, -490.0, -484.0, -480.0, -480.0, -480.0, -480.0, -480.0, -480.0, -480.0, -480.0, -480.0, -480.0, -480.0, -480.0, -480.0, -480.0, -480.0, -480.0, -480.0, -480.0, -480.0, -480.0, -480.0, -480.0, -480.0, -481.0, -482.0, -484.0, -484.0, -485.0, -485.0, -485.0, -485.0, -478.0, -469.0, -438.0, -395.0, -325.0, -237.0, -129.0, -13.0, 101.0, 209.0, 296.0, 362.0, 391.0, 416.0, 420.0, 420.0, 420.0, 420.0]	[0.00430014927405864, 0.00969253049697727, 0.024000875186175108, 0.03848671307787299, 0.05548134970013052, 0.07187523995526135, 0.08869238337501884, 0.10521427355706692, 0.12204097432550043, 0.13840209657792002, 0.15469665895216167, 0.17162098095286638, 0.19123910425696522, 0.20494738523848355, 0.22327014920301735, 0.2382608187617734, 0.25515817548148334, 0.2716589031042531, 0.2884637584211305, 0.30498940334655344, 0.32181473867967725, 0.3383926075184718, 0.35514831100590527, 0.3716019345447421, 0.3883412539726123, 0.4049399441573769, 0.4218762128148228, 0.43835134035907686, 0.4550490172114223, 0.47146680078003556, 0.48850512807257473, 0.504948852933012, 0.5218120763311163, 0.538043150678277, 0.555169883184135, 0.5718371813418344, 0.5884945808211342, 0.6047294097952545, 0.6217086864635348, 0.6380291901296005, 0.6551289573544636, 0.6712863037828356, 0.6884478522697464, 0.7046482067089528, 0.7217029179446399, 0.7379855336621404, 0.7551504954462871, 0.771320812520571, 0.7883905424969271, 0.8046403902117163, 0.8217824826715514, 0.837999903713353, 0.8551686202408746, 0.8713054866530001, 0.8884643046185374, 0.9046506643062457, 0.9218186981743202, 0.9381019965512678, 0.9552051770733669, 0.9716717712581158, 0.988540456048213]
42	animate/a44.jpg	inanimate	animate	right	0.843	[0.0, 0.0, 0.0, 0.0, 0.0, 0.0, 0.0, 0.0, 0.0, 0.0, 0.0, 0.0, 0.0, 0.0, 0.0, 0.0, 0.0, 1.0, 1.0, 1.0, 1.0, 1.0, 2.0, 2.0, 1.0, 1.0, 1.0, 1.0, 1.0, 1.0, 1.0, 1.0, 1.0, -4.0, -5.0, -7.0, -11.0, -11.0, -6.0, 13.0, 56.0, 128.0, 243.0, 372.0, 496.0, 624.0, 768.0, 836.0, 874.0, 886.0]	[-490.0, -490.0, -490.0, -490.0, -490.0, -490.0, -490.0, -490.0, -490.0, -490.0, -490.0, -490.0, -490.0, -490.0, -490.0, -490.0, -490.0, -489.0, -489.0, -489.0, -489.0, -489.0, -491.0, -496.0, -498.0, -500.0, -500.0, -501.0, -501.0, -501.0, -501.0, -501.0, -499.0, -497.0, -495.0, -486.0, -476.0, -470.0, -454.0, -428.0, -375.0, -304.0, -205.0, -94.0, 15.0, 143.0, 328.0, 428.0, 485.0, 506.0]	[0.007364296936430037, 0.015233050216920674, 0.029795005451887846, 0.04626945033669472, 0.06297327112406492, 0.08085434988606721, 0.09632254473399371, 0.11496820976026356, 0.12968581297900528, 0.14709209732245654, 0.16303542791865766, 0.1798819259274751, 0.19624714425299317, 0.21331141283735633, 0.22956842847634107, 0.2464630544418469, 0.2630323900375515, 0.27975771471392363, 0.29650078888516873, 0.3131616016617045, 0.32969577983021736, 0.34648834727704525, 0.3631768081104383, 0.3798813115572557, 0.3963506363797933, 0.41324116638861597, 0.4296732860384509, 0.4465754213742912, 0.462980575626716, 0.47986496170051396, 0.49612914538010955, 0.5132186725968495, 0.5296726374654099, 0.546506506158039, 0.5631345510482788, 0.5799554490949959, 0.596207003458403, 0.6132002747617662, 0.6295501330168918, 0.6465635430067778, 0.6627618493512273, 0.6799667471786961, 0.6960780136287212, 0.7132293222239241, 0.7294218258466572, 0.7466291130986065, 0.7627680274890736, 0.7798869094112888, 0.7961084264097735, 0.8133921722183004]
43	animate/a61.jpg	animate	inanimate	left	0.872	[0.0, 0.0, 0.0, 0.0, 0.0, 0.0, 0.0, 0.0, 0.0, 0.0, 0.0, 0.0, 0.0, 0.0, 0.0, 0.0, 0.0, 0.0, 0.0, 0.0, 1.0, 1.0, 4.0, 4.0, 6.0, 9.0, 9.0, 12.0, 13.0, 13.0, 14.0, 14.0, 11.0, 10.0, 6.0, 4.0, 3.0, 1.0, -7.0, -24.0, -82.0, -150.0, -245.0, -350.0, -467.0, -582.0, -687.0, -778.0, -838.0, -882.0, -885.0, -887.0]	[-490.0, -490.0, -490.0, -490.0, -490.0, -490.0, -490.0, -476.0, -453.0, -450.0, -450.0, -450.0, -450.0, -450.0, -450.0, -450.0, -450.0, -450.0, -450.0, -450.0, -453.0, -458.0, -464.0, -467.0, -471.0, -474.0, -474.0, -478.0, -480.0, -480.0, -480.0, -479.0, -476.0, -472.0, -467.0, -461.0, -455.0, -444.0, -429.0, -409.0, -353.0, -291.0, -202.0, -109.0, 10.0, 125.0, 238.0, 348.0, 445.0, 538.0, 540.0, 540.0]	[0.006945822504349053, 0.013886149623431265, 0.029154664487577975, 0.047003316693007946, 0.06228241277858615, 0.07950028136838228, 0.09594844363164157, 0.1127823123242706, 0.1292055572848767, 0.14601143659092486, 0.16250021755695343, 0.1794149822089821, 0.19585597643163055, 0.21265537047293037, 0.22918886609841138, 0.2461224040016532, 0.26250093430280685, 0.2794105790089816, 0.29583791992627084, 0.3126335593406111, 0.32914794015232474, 0.3460060436045751, 0.36252076574601233, 0.3794143678387627, 0.39591680199373513, 0.4126991294324398, 0.42901485436595976, 0.44603031233418733, 0.4622330560814589, 0.4793976766522974, 0.4955669696209952, 0.5127247634809464, 0.5288995179580525, 0.5461194344097748, 0.5622713194461539, 0.57941819075495, 0.5955526677425951, 0.6127589310053736, 0.6288947734283283, 0.6472844386007637, 0.6622464363463223, 0.6794830781873316, 0.6956561258994043, 0.7126814825460315, 0.7289292821660638, 0.7461491987342015, 0.7625488915946335, 0.7793144937604666, 0.7957111146533862, 0.8127627539215609, 0.8320187227800488, 0.8460386408260092]
