trialIndex	stimulus	isAnimate	left_option	right_option	response	response_time	xTrajectory	yTrajectory	tTrajectory
0	蚊子	True	animate	inanimate	left	1.222	[0.0, 0.0, 0.0, 0.0, 0.0, 0.0, 0.0, 0.0, 0.0, 0.0, 0.0, 0.0, 0.0, 0.0, 0.0, 0.0, 0.0, 0.0, 0.0, 0.0, 0.0, 0.0, 0.0, 0.0, 0.0, 0.0, 0.0, 0.0, 0.0, 0.0, 7.0, 17.0, 26.0, 36.0, 53.0, 59.0, 62.0, 62.0, 62.0, 59.0, 53.0, 52.0, 52.0, 52.0, 48.0, 46.0, 44.0, 44.0, 44.0, 46.0, 46.0, 43.0, 29.0, 7.0, -24.0, -66.0, -116.0, -172.0, -241.0, -377.0, -428.0, -560.0, -636.0, -706.0, -762.0, -800.0, -832.0, -847.0, -853.0, -853.0, -853.0, -853.0, -853.0]	[-490.0, -490.0, -490.0, -490.0, -490.0, -490.0, -490.0, -490.0, -490.0, -490.0, -490.0, -490.0, -490.0, -490.0, -490.0, -490.0, -490.0, -490.0, -490.0, -490.0, -490.0, -490.0, -490.0, -490.0, -490.0, -490.0, -490.0, -490.0, -490.0, -490.0, -494.0, -502.0, -511.0, -516.0, -522.0, -524.0, -524.0, -524.0, -524.0, -524.0, -524.0, -524.0, -524.0, -522.0, -513.0, -506.0, -504.0, -503.0, -501.0, -498.0, -496.0, -487.0, -472.0, -451.0, -412.0, -352.0, -271.0, -172.0, -65.0, 95.0, 146.0, 254.0, 305.0, 349.0, 379.0, 396.0, 409.0, 415.0, 418.0, 418.0, 418.0, 418.0, 418.0]	[0.01072202529758215, 0.015625276137143373, 0.021381859900429845, 0.038568667019717395, 0.054242003010585904, 0.0719530979404226, 0.0876141459448263, 0.105801741941832, 0.11941342568024993, 0.13965960196219385, 0.15417854918632656, 0.17210058798082173, 0.18753089476376772, 0.2047907472588122, 0.21979780099354684, 0.23873120988719165, 0.25422534602694213, 0.2699382766149938, 0.28769272088538855, 0.3054795917123556, 0.3193909659748897, 0.3383366629714146, 0.35402911354321986, 0.3697222468908876, 0.3874722537584603, 0.40756448882166296, 0.4194077254505828, 0.43765130010433495, 0.454200838226825, 0.4701096940552816, 0.48749413318000734, 0.5043481405591592, 0.5191053383750841, 0.5377045822096989, 0.5541605950566009, 0.5694618779234588, 0.5875586792826653, 0.6044789053266868, 0.6198129560798407, 0.6376605842960998, 0.6542568851727992, 0.6695550959557295, 0.6874535828828812, 0.7044181821402162, 0.7190538652939722, 0.7376616424880922, 0.7539756607729942, 0.7693909489316866, 0.7874235796043649, 0.8043393683619797, 0.8190965660614893, 0.8378118631662801, 0.8541241748025641, 0.8694896282395348, 0.8877925949636847, 0.9044049384538084, 0.9193211974343285, 0.937687652069144, 0.9557670454960316, 0.9694377797422931, 0.9891275829868391, 1.0049152655992657, 1.0221082167699933, 1.0376381928799674, 1.055367719847709, 1.069678453844972, 1.0887135800439864, 1.1042606227565557, 1.1197738734772429, 1.1372060992289335, 1.154496330418624, 1.1695603866828606, 1.1872107243398204]
1	篮球	False	animate	inanimate	right	0.914	[0.0, -1.0, -1.0, -3.0, -3.0, -3.0, -3.0, -3.0, -1.0, 2.0, 2.0, 2.0, 2.0, 2.0, 2.0, 2.0, 2.0, 2.0, 2.0, 2.0, 2.0, 2.0, 2.0, 2.0, 2.0, 2.0, 0.0, -2.0, -3.0, -3.0, -3.0, -3.0, -2.0, -1.0, -1.0, -1.0, -1.0, -9.0, -10.0, -10.0, -9.0, -6.0, 1.0, 12.0, 21.0, 71.0, 115.0, 290.0, 353.0, 539.0, 651.0, 756.0, 840.0, 901.0, 926.0, 926.0]	[-490.0, -490.0, -490.0, -490.0, -490.0, -489.0, -488.0, -475.0, -467.0, -462.0, -462.0, -462.0, -462.0, -462.0, -462.0, -462.0, -462.0, -462.0, -462.0, -462.0, -462.0, -462.0, -462.0, -462.0, -462.0, -468.0, -472.0, -474.0, -479.0, -479.0, -480.0, -481.0, -482.0, -483.0, -483.0, -483.0, -483.0, -477.0, -472.0, -472.0, -470.0, -466.0, -461.0, -454.0, -447.0, -408.0, -376.0, -235.0, -180.0, 4.0, 133.0, 251.0, 346.0, 416.0, 444.0, 446.0]	[0.010127627872861922, 0.01448713499121368, 0.018935047322884202, 0.03775376838166267, 0.054161994718015194, 0.06953666417393833, 0.0874590442981571, 0.10437278496101499, 0.11920098005793989, 0.1377312745898962, 0.15618340380024165, 0.1694493170361966, 0.18998665048275143, 0.20443596574477851, 0.21945462469011545, 0.2377487167250365, 0.25638584850821644, 0.2694732444360852, 0.28932620491832495, 0.30443838925566524, 0.3220272868638858, 0.3378467133734375, 0.359057838562876, 0.3693486920092255, 0.3888842125888914, 0.4043827860150486, 0.4201537432381883, 0.43743168644141406, 0.4549560721497983, 0.46955079527106136, 0.48813331383280456, 0.5043480042368174, 0.5204316226299852, 0.5376931817736477, 0.5585131391417235, 0.5693235015496612, 0.5878053267952055, 0.6041391424369067, 0.6191663347417489, 0.6373638294171542, 0.6560702518327162, 0.6694525596685708, 0.688679515151307, 0.7042408938286826, 0.7220697486773133, 0.7375000554602593, 0.7543001321610063, 0.7693976390874013, 0.788273362792097, 0.8040992746828124, 0.8200057412032038, 0.8373017749981955, 0.8544319209177047, 0.8694420466199517, 0.8877047358546406, 0.9039436609018594]
2	镜子	False	animate	inanimate	right	0.904	[0.0, 0.0, 0.0, 0.0, 0.0, 0.0, 0.0, 0.0, 0.0, 0.0, 0.0, 1.0, 1.0, 1.0, 1.0, 1.0, 1.0, 1.0, 1.0, 1.0, 1.0, 1.0, 1.0, 1.0, 1.0, 1.0, 1.0, 0.0, -3.0, -4.0, -4.0, -4.0, -6.0, -12.0, -15.0, -15.0, -19.0, -29.0, -31.0, -31.0, -31.0, -25.0, 4.0, 62.0, 121.0, 209.0, 310.0, 473.0, 531.0, 625.0, 738.0, 766.0, 816.0, 825.0, 825.0]	[-490.0, -490.0, -490.0, -490.0, -490.0, -490.0, -490.0, -489.0, -485.0, -477.0, -465.0, -461.0, -461.0, -461.0, -461.0, -461.0, -461.0, -461.0, -461.0, -461.0, -461.0, -461.0, -461.0, -461.0, -461.0, -461.0, -463.0, -466.0, -468.0, -468.0, -468.0, -469.0, -470.0, -470.0, -468.0, -468.0, -465.0, -465.0, -463.0, -463.0, -459.0, -452.0, -434.0, -400.0, -337.0, -232.0, -114.0, 70.0, 126.0, 229.0, 362.0, 393.0, 441.0, 447.0, 447.0]	[0.013668276718817651, 0.01869747939053923, 0.02564019593410194, 0.044378703576512635, 0.06086202315054834, 0.07614077802281827, 0.09416760609019548, 0.11102263745851815, 0.12603344582021236, 0.14434289780911058, 0.1608101746533066, 0.17614490818232298, 0.19421269628219306, 0.21103257033973932, 0.225887730717659, 0.24432381719816476, 0.26083717413712293, 0.276121731614694, 0.29420624498743564, 0.3110725403530523, 0.3259375994093716, 0.34441771800629795, 0.36082969896961004, 0.3760674938093871, 0.3941055858740583, 0.41111182782333344, 0.426017505582422, 0.44431091484148055, 0.460690469131805, 0.4761439865687862, 0.49398137477692217, 0.510922763380222, 0.5260728356661275, 0.5453673751326278, 0.5611717830179259, 0.5762365219416097, 0.5953464001649991, 0.6128069566329941, 0.625745189958252, 0.6442379378713667, 0.6611858118558303, 0.6783415577374399, 0.6940032884012908, 0.7108712904155254, 0.7255844562314451, 0.7442413852550089, 0.7617432429688051, 0.7786706370534375, 0.7938746399013326, 0.8108307059155777, 0.8256012155907229, 0.8442656541010365, 0.8611002054531127, 0.8767653494141996, 0.8940211059525609]
3	乐队	True	animate	inanimate	left	1.15	[0.0, 0.0, 0.0, 0.0, 0.0, 0.0, 0.0, 0.0, 0.0, -1.0, -4.0, -5.0, -9.0, -11.0, -11.0, -11.0, -11.0, -11.0, -11.0, -11.0, -11.0, -11.0, -11.0, -11.0, -7.0, 3.0, 7.0, 7.0, 13.0, 13.0, 13.0, 13.0, 13.0, 14.0, 14.0, 15.0, 15.0, 15.0, 15.0, 15.0, 15.0, 15.0, 15.0, 15.0, 15.0, 6.0, -14.0, -45.0, -96.0, -159.0, -237.0, -318.0, -433.0, -501.0, -534.0, -641.0, -703.0, -760.0, -800.0, -823.0, -838.0, -840.0, -842.0, -842.0, -842.0, -842.0, -842.0, -842.0, -842.0, -842.0]	[-490.0, -490.0, -490.0, -490.0, -490.0, -490.0, -490.0, -490.0, -490.0, -490.0, -490.0, -479.0, -470.0, -466.0, -466.0, -466.0, -466.0, -466.0, -466.0, -466.0, -466.0, -466.0, -466.0, -466.0, -473.0, -482.0, -487.0, -488.0, -492.0, -492.0, -492.0, -492.0, -492.0, -492.0, -492.0, -492.0, -492.0, -490.0, -488.0, -487.0, -486.0, -485.0, -483.0, -479.0, -473.0, -463.0, -445.0, -410.0, -358.0, -295.0, -211.0, -135.0, -34.0, 41.0, 80.0, 203.0, 285.0, 357.0, 412.0, 445.0, 466.0, 475.0, 477.0, 477.0, 477.0, 477.0, 477.0, 477.0, 477.0, 477.0]	[0.01489673473406583, 0.02070827316492796, 0.028343554586172104, 0.046564601245336235, 0.06345820322167128, 0.07862056349404156, 0.0967177061829716, 0.1133368763839826, 0.12862587126437575, 0.14640728081576526, 0.163484861375764, 0.17819768586196005, 0.19680000166408718, 0.21311299595981836, 0.22861293470486999, 0.24642472295090556, 0.2634749967837706, 0.2781973786186427, 0.2968976570991799, 0.3132714086677879, 0.3284163608914241, 0.3464978022966534, 0.36350028961896896, 0.37839231395628303, 0.39681508857756853, 0.4150907485745847, 0.42859900824259967, 0.45176938571967185, 0.4634675558190793, 0.48127763730008155, 0.4969083066098392, 0.5147235081531107, 0.5287034903885797, 0.5475580514175817, 0.5634433552622795, 0.5790115606505424, 0.5966871569398791, 0.6173289383295923, 0.6285372952697799, 0.6465596860507503, 0.6633996987948194, 0.6784797976724803, 0.6964974098373204, 0.7144218379398808, 0.7284656494157389, 0.7487968177301809, 0.7632434022380039, 0.7797516391146928, 0.7964247399941087, 0.8138487737160176, 0.8285028889076784, 0.8469911994179711, 0.863222956424579, 0.8785849965643138, 0.8965497020399198, 0.9134634427027777, 0.9285036056535318, 0.9467311376938596, 0.9630253586219624, 0.9786645612912253, 0.9962879336671904, 1.013441972900182, 1.0284524398157373, 1.0467861264478415, 1.0629400594625622, 1.0786113474750891, 1.096379445050843, 1.1133320977678522, 1.1285002606455237, 1.1467503205640242]
4	医生	True	inanimate	animate	right	0.998	[0.0, 0.0, 0.0, 0.0, 0.0, 0.0, 0.0, 0.0, 0.0, 0.0, 1.0, 2.0, 2.0, 2.0, 2.0, 2.0, 3.0, 4.0, 4.0, 3.0, 0.0, -7.0, -13.0, -13.0, -13.0, -13.0, -13.0, -13.0, -13.0, -13.0, -13.0, -13.0, -13.0, -13.0, -13.0, -13.0, -13.0, -13.0, -13.0, -13.0, -14.0, -14.0, -13.0, -10.0, -6.0, 1.0, 11.0, 28.0, 52.0, 128.0, 168.0, 266.0, 367.0, 517.0, 562.0, 681.0, 748.0, 805.0, 837.0, 844.0]	[-490.0, -490.0, -490.0, -490.0, -490.0, -490.0, -490.0, -490.0, -490.0, -490.0, -490.0, -489.0, -489.0, -489.0, -489.0, -488.0, -486.0, -482.0, -479.0, -472.0, -469.0, -467.0, -467.0, -467.0, -467.0, -467.0, -467.0, -467.0, -467.0, -467.0, -467.0, -467.0, -467.0, -467.0, -467.0, -467.0, -467.0, -467.0, -467.0, -467.0, -467.0, -467.0, -466.0, -463.0, -460.0, -455.0, -446.0, -434.0, -414.0, -347.0, -310.0, -214.0, -113.0, 27.0, 72.0, 205.0, 283.0, 341.0, 366.0, 369.0]	[0.01316392282024026, 0.01812485884875059, 0.023667768109589815, 0.04320499545428902, 0.05882098735310137, 0.07697922876104712, 0.09214602631982416, 0.11012336111161858, 0.12385212210938334, 0.14354602131061256, 0.15879746957216412, 0.17450732819270343, 0.192356321727857, 0.2126919273287058, 0.22400507354177535, 0.24269477056805044, 0.25882139697205275, 0.27680487581528723, 0.292312323814258, 0.30904481664765626, 0.32411877159029245, 0.34246747684665024, 0.3589296337449923, 0.3742507138522342, 0.3923301072791219, 0.40921312803402543, 0.42406555777415633, 0.44238524965476245, 0.458922499907203, 0.4742036440875381, 0.49227689346298575, 0.5091510395286605, 0.524170039803721, 0.5424757370492443, 0.5589839740423486, 0.5743002755334601, 0.5923926394898444, 0.6093203749042004, 0.6239256793633103, 0.6423433339223266, 0.6588614694774151, 0.6741845976794139, 0.6921506684739143, 0.7090964944800362, 0.7238536922959611, 0.7423187921522185, 0.7587263357127085, 0.7742631384171546, 0.7920797052793205, 0.8090415738988668, 0.8238311983877793, 0.8423584209522232, 0.8586560551775619, 0.8740389166632667, 0.8920384381199256, 0.9090504827909172, 0.9238435204606503, 0.9424915749114007, 0.9587066066451371, 0.9742420440306887]
5	青蛙	True	inanimate	animate	right	0.846	[0.0, 0.0, 0.0, 0.0, 0.0, 0.0, 1.0, 1.0, 1.0, 1.0, 1.0, 1.0, 1.0, 1.0, 1.0, 1.0, 1.0, 1.0, 1.0, 1.0, 1.0, 1.0, 1.0, 1.0, 4.0, 4.0, 4.0, 4.0, 5.0, 5.0, 5.0, 5.0, -1.0, -2.0, -2.0, -7.0, -10.0, -16.0, -19.0, -19.0, -4.0, 43.0, 114.0, 211.0, 321.0, 469.0, 733.0, 890.0, 956.0, 959.0, 959.0, 959.0]	[-490.0, -490.0, -490.0, -490.0, -490.0, -490.0, -490.0, -488.0, -487.0, -487.0, -482.0, -472.0, -466.0, -458.0, -453.0, -450.0, -450.0, -450.0, -450.0, -450.0, -450.0, -450.0, -450.0, -450.0, -458.0, -458.0, -458.0, -458.0, -460.0, -460.0, -461.0, -462.0, -464.0, -464.0, -464.0, -464.0, -462.0, -458.0, -457.0, -449.0, -424.0, -370.0, -291.0, -186.0, -67.0, 61.0, 248.0, 355.0, 408.0, 521.0, 536.0, 536.0]	[0.010169953224249184, 0.017801138572394848, 0.022181125706993043, 0.04095342545770109, 0.053923061466775835, 0.06876115524210036, 0.08697332721203566, 0.10501688066869974, 0.11911974276881665, 0.13732850144151598, 0.1536872343858704, 0.16922335443086922, 0.1881738300435245, 0.20369493146426976, 0.21892385161481798, 0.23726163420360535, 0.2537162818480283, 0.26972924428991973, 0.28705804608762264, 0.3040025067748502, 0.31911742163356394, 0.33742619096301496, 0.3538576278369874, 0.36919133737683296, 0.387238304130733, 0.40410733013413846, 0.4190928798634559, 0.4373040278442204, 0.4536808514967561, 0.4690166088985279, 0.48718713829293847, 0.5040452416287735, 0.5187505567446351, 0.5374081685440615, 0.5538785174721852, 0.5691876509226859, 0.5872684096684679, 0.604074630420655, 0.6190707614878193, 0.6373471040278673, 0.6537573783425614, 0.6691197598120198, 0.6870233666850254, 0.7039848939748481, 0.7188120650826022, 0.7372338155983016, 0.7535621699644253, 0.7691337886499241, 0.7869950701715425, 0.8040333973476663, 0.8187441738555208, 0.837378575000912]
6	蜗牛	True	inanimate	animate	right	0.86	[0.0, 0.0, 0.0, 0.0, 0.0, 0.0, 0.0, 0.0, 0.0, 0.0, 1.0, -1.0, -2.0, -2.0, -2.0, -2.0, -2.0, -2.0, -2.0, -2.0, -2.0, -2.0, -2.0, -2.0, -2.0, -1.0, 4.0, 4.0, 4.0, 3.0, 3.0, 4.0, 2.0, -1.0, -5.0, -6.0, -7.0, -9.0, -9.0, -9.0, -4.0, 24.0, 82.0, 168.0, 274.0, 400.0, 636.0, 808.0, 876.0, 959.0, 959.0, 959.0]	[-490.0, -490.0, -490.0, -490.0, -490.0, -490.0, -490.0, -490.0, -490.0, -490.0, -487.0, -472.0, -469.0, -468.0, -468.0, -468.0, -468.0, -468.0, -468.0, -468.0, -468.0, -468.0, -468.0, -468.0, -468.0, -472.0, -480.0, -484.0, -487.0, -487.0, -487.0, -486.0, -482.0, -481.0, -476.0, -473.0, -469.0, -467.0, -463.0, -458.0, -442.0, -396.0, -317.0, -222.0, -123.0, -14.0, 154.0, 263.0, 311.0, 399.0, 407.0, 407.0]	[0.014748596237041056, 0.019659356330521405, 0.034383444814011455, 0.04626627604011446, 0.0631875260733068, 0.07812733703758568, 0.09655762102920562, 0.11294673255179077, 0.12834085803478956, 0.1460949609754607, 0.16320838150568306, 0.178251275094226, 0.19647641782648861, 0.21296383335720748, 0.22825214557815343, 0.24634860560763627, 0.2631722342921421, 0.27794206142425537, 0.29651604662649333, 0.3181046862155199, 0.32785247860010713, 0.3461660265456885, 0.3632787644164637, 0.377870756899938, 0.39655567542649806, 0.4128113257465884, 0.4281651738565415, 0.4463339966023341, 0.4631726439110935, 0.47793154837563634, 0.49654717615339905, 0.5158632196253166, 0.5281413146294653, 0.5489520559785888, 0.563125915476121, 0.5779100785730407, 0.5965594983426854, 0.6144989450694993, 0.6282693487592041, 0.6487199836410582, 0.6632191335083917, 0.6806373646249995, 0.69655748445075, 0.7138456675456837, 0.7283041988266632, 0.7506987260421738, 0.7629368851194158, 0.7787822530372068, 0.7963609106373042, 0.8129094248870388, 0.8283707929076627, 0.8502475176937878]
7	和尚	True	inanimate	animate	right	0.814	[0.0, 0.0, 0.0, 0.0, 0.0, 0.0, 0.0, 0.0, 0.0, 0.0, 0.0, 0.0, 0.0, 0.0, 0.0, 1.0, 4.0, 6.0, 6.0, 6.0, 6.0, 6.0, 6.0, 6.0, 6.0, 6.0, 6.0, 6.0, 8.0, 10.0, 10.0, 9.0, 7.0, 5.0, 5.0, 5.0, 2.0, 1.0, 0.0, 1.0, 36.0, 94.0, 171.0, 265.0, 371.0, 480.0, 578.0, 705.0, 735.0, 783.0]	[-490.0, -490.0, -490.0, -490.0, -490.0, -490.0, -490.0, -490.0, -490.0, -490.0, -490.0, -490.0, -490.0, -490.0, -490.0, -490.0, -482.0, -478.0, -478.0, -478.0, -478.0, -478.0, -478.0, -478.0, -478.0, -478.0, -478.0, -478.0, -479.0, -484.0, -486.0, -488.0, -490.0, -491.0, -491.0, -491.0, -491.0, -484.0, -475.0, -458.0, -421.0, -342.0, -231.0, -100.0, 28.0, 152.0, 267.0, 404.0, 430.0, 451.0]	[0.012450400041416287, 0.016767581808380783, 0.0233897864818573, 0.04204910492990166, 0.05873210437130183, 0.07386715791653842, 0.09197044465690851, 0.1089080786332488, 0.12368302571121603, 0.14216348563786596, 0.15865841053891927, 0.17397744266781956, 0.19194999884348363, 0.20889411808457226, 0.22367384389508516, 0.24219423974864185, 0.2586563966469839, 0.27392183954361826, 0.29183159035164863, 0.30877946433611214, 0.32352164341136813, 0.3421447805594653, 0.35843422287143767, 0.37396590563002974, 0.3917681365273893, 0.40880782913882285, 0.423542840173468, 0.4422110333107412, 0.45888618216849864, 0.47397174243815243, 0.4919432745082304, 0.5088150312658399, 0.5235435570357367, 0.5421455315081403, 0.5608526365831494, 0.573849237873219, 0.593963659601286, 0.6089143933495507, 0.626233296468854, 0.6420738856540993, 0.6597034019650891, 0.673977954662405, 0.6924195025349036, 0.708873467403464, 0.7237228251760826, 0.7416397440247238, 0.760511371656321, 0.773562244954519, 0.7936971466988325, 0.8082741205580533]
8	大门	False	animate	inanimate	right	0.893	[0.0, 0.0, 0.0, 0.0, 0.0, 0.0, 0.0, 0.0, 0.0, 0.0, 0.0, -3.0, -6.0, -7.0, -7.0, -7.0, -7.0, -7.0, -7.0, -7.0, -7.0, -7.0, -7.0, -7.0, -7.0, -7.0, -7.0, -7.0, -7.0, -9.0, -13.0, -22.0, -25.0, -31.0, -34.0, -35.0, -35.0, -43.0, -56.0, -73.0, -115.0, -201.0, -223.0, -238.0, -212.0, -147.0, -53.0, 82.0, 242.0, 421.0, 581.0, 713.0, 798.0, 813.0]	[-490.0, -490.0, -490.0, -490.0, -490.0, -490.0, -490.0, -490.0, -490.0, -490.0, -490.0, -490.0, -486.0, -482.0, -482.0, -482.0, -482.0, -482.0, -482.0, -482.0, -482.0, -482.0, -482.0, -482.0, -482.0, -482.0, -482.0, -482.0, -482.0, -482.0, -485.0, -488.0, -488.0, -489.0, -491.0, -491.0, -487.0, -478.0, -463.0, -441.0, -380.0, -268.0, -235.0, -138.0, -64.0, 19.0, 101.0, 187.0, 272.0, 341.0, 394.0, 430.0, 447.0, 448.0]	[0.008030135766603053, 0.01306036242749542, 0.017193565727211535, 0.03325363213662058, 0.049681314383633435, 0.06488907197490335, 0.0831196759827435, 0.1000327339861542, 0.11476808635052294, 0.13323728227987885, 0.14961410593241453, 0.16496419941540807, 0.18285005690995604, 0.1998767788754776, 0.21457799791824073, 0.23318406846374273, 0.24951822543516755, 0.2648645641747862, 0.2828596483450383, 0.2999580502510071, 0.31459168542642146, 0.33317556919064373, 0.34965786477550864, 0.3649721182882786, 0.38293033838272095, 0.3999478444457054, 0.414740540785715, 0.4332571820123121, 0.4522728523006663, 0.46485575777478516, 0.4858975816750899, 0.49984957452397794, 0.5147545696236193, 0.5332165975123644, 0.5519493025494739, 0.5649991518585011, 0.5849671416217461, 0.5999694166239351, 0.6176002982538193, 0.6331947862636298, 0.65478991123382, 0.664790972834453, 0.6841459282441065, 0.6998448641970754, 0.7156537093687803, 0.7331436204258353, 0.75015976105351, 0.7652047027368098, 0.783197738812305, 0.7999602688942105, 0.8149727839045227, 0.8330651479773223, 0.849424563581124, 0.8650712756207213]
9	戒指	False	animate	inanimate	right	0.877	[0.0, 0.0, 0.0, 0.0, 0.0, 0.0, 0.0, 1.0, 3.0, 8.0, 16.0, 21.0, 21.0, 21.0, 21.0, 21.0, 21.0, 21.0, 21.0, 21.0, 21.0, 21.0, 21.0, 21.0, 21.0, 21.0, 21.0, 21.0, 19.0, 19.0, 19.0, 16.0, 16.0, 14.0, 14.0, 14.0, 16.0, 16.0, 16.0, 16.0, 17.0, 22.0, 33.0, 65.0, 140.0, 246.0, 365.0, 501.0, 650.0, 800.0, 959.0, 959.0, 959.0, 959.0]	[-490.0, -490.0, -490.0, -490.0, -490.0, -490.0, -490.0, -490.0, -484.0, -474.0, -461.0, -451.0, -451.0, -451.0, -451.0, -451.0, -451.0, -451.0, -451.0, -451.0, -451.0, -451.0, -451.0, -451.0, -451.0, -451.0, -451.0, -451.0, -456.0, -457.0, -457.0, -458.0, -459.0, -459.0, -459.0, -459.0, -457.0, -456.0, -451.0, -449.0, -443.0, -436.0, -421.0, -385.0, -309.0, -200.0, -73.0, 73.0, 213.0, 340.0, 487.0, 514.0, 540.0, 540.0]	[0.014187103253789246, 0.021844912669621408, 0.026701400871388614, 0.04498798353597522, 0.061985009466297925, 0.07674152462277561, 0.09546672028955072, 0.1116585413692519, 0.1270513015333563, 0.14503512158989906, 0.16198982228524983, 0.17676238005515188, 0.19539370911661536, 0.21178725804202259, 0.22718240751419216, 0.24516486236825585, 0.26200146169867367, 0.2767733368091285, 0.29538896458689123, 0.3118043588474393, 0.3271093963412568, 0.3450396271655336, 0.36213086114730686, 0.3769426721846685, 0.39540674805175513, 0.4139425039757043, 0.4271251318277791, 0.44762628397438675, 0.46208754589315504, 0.47697718092240393, 0.49549621145706624, 0.5175087868701667, 0.5269435767550021, 0.5461203563027084, 0.5620991854229942, 0.5782520944485441, 0.5952323951059952, 0.6125816769199446, 0.6272057547466829, 0.645409393357113, 0.6618807662744075, 0.6772032118169591, 0.6952624665573239, 0.7117147247772664, 0.7268357836874202, 0.7467426748480648, 0.7615701872855425, 0.7796840553637594, 0.7950771567411721, 0.8132470034761354, 0.8270361804170534, 0.8462931732647121, 0.8619023385690525, 0.8774435785599053]
10	诗人	True	animate	inanimate	left	1.264	[0.0, 0.0, 0.0, 0.0, 0.0, 0.0, 0.0, 0.0, 0.0, 0.0, 0.0, -1.0, 3.0, 7.0, 17.0, 17.0, 17.0, 17.0, 17.0, 17.0, 17.0, 17.0, 17.0, 17.0, 17.0, 17.0, 17.0, 17.0, 17.0, 17.0, 17.0, 17.0, 19.0, 21.0, 26.0, 28.0, 28.0, 29.0, 30.0, 30.0, 33.0, 33.0, 24.0, -12.0, -67.0, -135.0, -217.0, -313.0, -402.0, -495.0, -593.0, -611.0, -646.0, -656.0, -658.0, -658.0, -658.0, -658.0, -658.0, -658.0, -658.0, -658.0, -658.0, -658.0, -658.0, -657.0, -654.0, -653.0, -654.0, -655.0, -657.0, -657.0, -658.0, -660.0, -664.0, -667.0, -670.0]	[-490.0, -490.0, -490.0, -490.0, -490.0, -490.0, -490.0, -490.0, -490.0, -490.0, -490.0, -489.0, -486.0, -480.0, -457.0, -454.0, -450.0, -450.0, -450.0, -450.0, -450.0, -450.0, -450.0, -450.0, -450.0, -450.0, -450.0, -450.0, -450.0, -450.0, -450.0, -450.0, -450.0, -455.0, -462.0, -463.0, -463.0, -463.0, -458.0, -456.0, -448.0, -437.0, -411.0, -361.0, -290.0, -200.0, -106.0, 5.0, 104.0, 197.0, 297.0, 320.0, 358.0, 369.0, 369.0, 369.0, 369.0, 369.0, 369.0, 369.0, 369.0, 369.0, 369.0, 369.0, 369.0, 368.0, 362.0, 356.0, 352.0, 350.0, 349.0, 349.0, 348.0, 348.0, 347.0, 347.0, 347.0]	[0.014211679110303521, 0.02302455995231867, 0.029363116715103388, 0.04508185002487153, 0.062150555895641446, 0.07680774305481464, 0.09544897091109306, 0.11191863706335425, 0.12723971728701144, 0.14514537213835865, 0.16213249939028174, 0.17708084371406585, 0.19538278633262962, 0.21176814334467053, 0.22719571937341243, 0.24501092091668397, 0.26212434156332165, 0.276787331327796, 0.2953998871380463, 0.3117166361771524, 0.3270298655843362, 0.3450136857572943, 0.3620745410444215, 0.3768273014575243, 0.395416987943463, 0.4116821956122294, 0.42709304636809975, 0.44508813053835183, 0.46209710312541574, 0.4768665889278054, 0.49546753941103816, 0.5146426121937111, 0.5270773791708052, 0.547861837898381, 0.5620534466579556, 0.577026708284393, 0.5954911254812032, 0.6136896441457793, 0.627192442654632, 0.6470846564043313, 0.6621760193957016, 0.6798734610201791, 0.6953710103407502, 0.7124134335899726, 0.7273153567221016, 0.7452254488598555, 0.7619565762579441, 0.776831533992663, 0.7948866927763447, 0.8133903632406145, 0.8270546122221276, 0.8476820577634498, 0.8617600025609136, 0.8772312692599371, 0.8951215640408918, 0.9146939486963674, 0.927063521114178, 0.9474745612824336, 0.9617262446554378, 0.9799783526686952, 0.9951260355301201, 1.0138512313133106, 1.0266996941063553, 1.047275256831199, 1.0618020547553897, 1.079627837636508, 1.0951892163138837, 1.1130890684435144, 1.1270926026627421, 1.1455399532569572, 1.1617880942067131, 1.1771180490031838, 1.1950977732194588, 1.211881807190366, 1.2268386848736554, 1.2453433794435114, 1.2617789123905823]
11	坦克	False	animate	inanimate	right	0.781	[0.0, 0.0, 0.0, 0.0, 0.0, 0.0, 0.0, 0.0, 0.0, 0.0, 0.0, 0.0, 0.0, 0.0, 0.0, 0.0, 0.0, 0.0, 0.0, 0.0, 0.0, 0.0, 0.0, 0.0, 0.0, 0.0, 0.0, 4.0, 10.0, 12.0, 13.0, 16.0, 19.0, 24.0, 40.0, 62.0, 89.0, 118.0, 147.0, 176.0, 228.0, 308.0, 406.0, 500.0, 599.0, 694.0, 819.0, 851.0]	[-490.0, -490.0, -490.0, -490.0, -490.0, -490.0, -490.0, -490.0, -490.0, -490.0, -488.0, -483.0, -480.0, -480.0, -480.0, -480.0, -480.0, -480.0, -480.0, -480.0, -480.0, -480.0, -480.0, -480.0, -482.0, -482.0, -483.0, -484.0, -484.0, -484.0, -483.0, -480.0, -475.0, -468.0, -438.0, -398.0, -353.0, -300.0, -252.0, -204.0, -125.0, -26.0, 67.0, 149.0, 232.0, 298.0, 382.0, 395.0]	[0.014359135064296424, 0.01863672223407775, 0.02654370479285717, 0.044059215928427875, 0.060537756769917905, 0.07596942887175828, 0.09503390977624804, 0.11081886175088584, 0.1263007097877562, 0.1441435592714697, 0.16442557564005256, 0.17595068970695138, 0.19433523493353277, 0.21081411722116172, 0.2260860453825444, 0.2441265267552808, 0.26104675279930234, 0.2759281957987696, 0.2943284424254671, 0.3108455539913848, 0.32611850614193827, 0.34413543553091586, 0.3609358536778018, 0.3760070778662339, 0.3943690952146426, 0.4107138335239142, 0.4260574416257441, 0.44410406704992056, 0.4609908424317837, 0.4758972027339041, 0.4942837960552424, 0.5105933770537376, 0.5260663504013792, 0.5440921544795856, 0.560985756572336, 0.5759153275284916, 0.594331958098337, 0.6105831711320207, 0.626061605871655, 0.6440553247230127, 0.6609216200886294, 0.6758986363420263, 0.6941975069930777, 0.710658639902249, 0.7260060027474537, 0.743816084228456, 0.7608841075561941, 0.7759392891312018]
12	鸭子	True	animate	inanimate	left	1.05	[0.0, 0.0, 0.0, 0.0, 0.0, 0.0, 0.0, 0.0, 0.0, 0.0, -1.0, -3.0, -3.0, -3.0, -3.0, -3.0, -3.0, -3.0, -3.0, -3.0, -3.0, -3.0, -3.0, -3.0, -3.0, -3.0, -3.0, -3.0, -3.0, -3.0, -3.0, 5.0, 6.0, 5.0, -24.0, -58.0, -126.0, -230.0, -372.0, -520.0, -682.0, -830.0, -960.0, -960.0, -960.0, -960.0, -960.0, -960.0, -960.0, -960.0, -960.0, -960.0, -960.0, -960.0, -959.0, -956.0, -954.0, -952.0, -942.0, -927.0, -920.0, -896.0, -885.0, -882.0]	[-490.0, -495.0, -498.0, -499.0, -499.0, -499.0, -499.0, -499.0, -499.0, -491.0, -478.0, -475.0, -475.0, -475.0, -475.0, -475.0, -475.0, -475.0, -475.0, -475.0, -475.0, -475.0, -475.0, -475.0, -475.0, -475.0, -475.0, -475.0, -475.0, -475.0, -475.0, -476.0, -473.0, -465.0, -435.0, -391.0, -313.0, -209.0, -89.0, 38.0, 189.0, 333.0, 459.0, 540.0, 540.0, 540.0, 540.0, 540.0, 540.0, 540.0, 540.0, 540.0, 540.0, 537.0, 533.0, 530.0, 527.0, 526.0, 516.0, 497.0, 487.0, 446.0, 427.0, 421.0]	[0.013733471278101206, 0.01813393842894584, 0.026979245827533305, 0.04398651188239455, 0.06172388943377882, 0.0757451729150489, 0.09489259775727987, 0.11068164568860084, 0.12839035131037235, 0.1440094152931124, 0.16102555592078716, 0.17586945230141282, 0.19828582485206425, 0.21057620784267783, 0.22583345870953053, 0.24360189761500806, 0.26079450745601207, 0.27575957716908306, 0.2936631840420887, 0.3103434528457001, 0.32873141136951745, 0.3436988703906536, 0.3619475649902597, 0.37564287532586604, 0.39381647668778896, 0.410517908167094, 0.42821910441853106, 0.44376921909861267, 0.4614611994475126, 0.4756149201421067, 0.49524464877322316, 0.5104725450510159, 0.5270050165709108, 0.5437948532635346, 0.5607710579643026, 0.5756197329610586, 0.5939735582796857, 0.6104705311590806, 0.6257206139853224, 0.6436832714825869, 0.6605379615211859, 0.6756013351259753, 0.6938292084960267, 0.7103285706834868, 0.7257244028151035, 0.7437474762555212, 0.7605885129887611, 0.7753631187370047, 0.7939138931687921, 0.8100995701970533, 0.8257479888852686, 0.8439813235308975, 0.8607076723128557, 0.8754112807800993, 0.8937941193580627, 0.9101238390430808, 0.9256104658124968, 0.9433997259475291, 0.9604981279699132, 0.9753136936342344, 0.9937473909230903, 1.010041611851193, 1.0255674918880686, 1.043552677379921]
13	樱桃	False	inanimate	animate	left	1.713	[0.0, 1.0, 1.0, 1.0, 2.0, 4.0, 11.0, 24.0, 43.0, 50.0, 50.0, 50.0, 50.0, 50.0, 50.0, 50.0, 50.0, 50.0, 50.0, 50.0, 50.0, 50.0, 50.0, 50.0, 50.0, 50.0, 50.0, 50.0, 50.0, 50.0, 50.0, 50.0, 52.0, 52.0, 30.0, 9.0, 0.0, -17.0, -24.0, -33.0, -45.0, -60.0, -74.0, -79.0, -82.0, -82.0, -82.0, -82.0, -82.0, -82.0, -82.0, -82.0, -82.0, -82.0, -82.0, -82.0, -82.0, -82.0, -82.0, -82.0, -82.0, -82.0, -82.0, -82.0, -82.0, -82.0, -82.0, -84.0, -90.0, -99.0, -116.0, -132.0, -145.0, -236.0, -353.0, -482.0, -652.0, -693.0, -750.0, -782.0, -790.0, -790.0, -790.0, -790.0, -780.0, -713.0, -611.0, -486.0, -369.0, -250.0, -142.0, -77.0, -67.0, -67.0, -105.0, -200.0, -259.0, -438.0, -554.0, -645.0, -694.0, -710.0, -711.0]	[-490.0, -491.0, -491.0, -491.0, -492.0, -493.0, -493.0, -491.0, -475.0, -467.0, -467.0, -467.0, -467.0, -467.0, -467.0, -467.0, -467.0, -467.0, -467.0, -467.0, -467.0, -467.0, -467.0, -467.0, -467.0, -467.0, -467.0, -467.0, -467.0, -467.0, -467.0, -468.0, -468.0, -467.0, -450.0, -437.0, -432.0, -420.0, -407.0, -391.0, -376.0, -359.0, -341.0, -332.0, -324.0, -319.0, -317.0, -314.0, -313.0, -311.0, -310.0, -310.0, -310.0, -310.0, -310.0, -310.0, -310.0, -310.0, -310.0, -310.0, -310.0, -310.0, -310.0, -310.0, -310.0, -307.0, -302.0, -295.0, -285.0, -271.0, -247.0, -221.0, -202.0, -77.0, 57.0, 176.0, 310.0, 339.0, 379.0, 402.0, 409.0, 409.0, 409.0, 409.0, 409.0, 403.0, 395.0, 391.0, 389.0, 389.0, 389.0, 389.0, 389.0, 389.0, 389.0, 390.0, 398.0, 439.0, 467.0, 488.0, 502.0, 507.0, 507.0]	[0.012332435231655836, 0.017423419281840324, 0.02316122967749834, 0.04194513475522399, 0.05845132365357131, 0.07368058525025845, 0.09171731199603528, 0.10857166070491076, 0.12340395175851882, 0.14192127564456314, 0.15826464851852506, 0.1736171314259991, 0.19165146874729544, 0.208594222785905, 0.2232995379017666, 0.24197080300655216, 0.2582653653807938, 0.27383561874739826, 0.29163068160414696, 0.3085382783319801, 0.32331288408022374, 0.34193021850660443, 0.3582210261374712, 0.3735680476529524, 0.3915225131204352, 0.4084836990805343, 0.42332998488564044, 0.44190772471483797, 0.45824597764294595, 0.4737182683311403, 0.49207072833087295, 0.5085315199103206, 0.523428664309904, 0.5419616894796491, 0.560112762846984, 0.573840158409439, 0.5926247461466119, 0.6084615807048976, 0.6246790017466992, 0.6417743316851556, 0.6586102483561262, 0.6738258566474542, 0.6916454954771325, 0.7083438548725098, 0.7235560497501865, 0.7416678698500618, 0.7583440426969901, 0.7737835653824732, 0.7917090175906196, 0.8084288809914142, 0.8235652999719605, 0.8415143040474504, 0.8586912126047537, 0.8735825542826205, 0.8919271635822952, 0.9083391445456073, 0.9236796806799248, 0.9416959274094552, 0.9586103507317603, 0.9735900977393612, 0.9919231017120183, 1.0084088105941191, 1.0237759707961231, 1.0416451029013842, 1.058659536880441, 1.0733191133476794, 1.0918978771660477, 1.108241250156425, 1.1236763355555013, 1.1417157930554822, 1.1585684351157397, 1.1732802354963496, 1.191846028668806, 1.2081149910809472, 1.223720401758328, 1.2414212566800416, 1.258402922656387, 1.2731515871128067, 1.2918201214633882, 1.3081204865593463, 1.3237132678041235, 1.3444513052236289, 1.3585121834184974, 1.3734461917774752, 1.391880571609363, 1.4104972233762965, 1.4237744006095454, 1.4428245455492288, 1.458638510783203, 1.4760693712159991, 1.4918502271175385, 1.508680341183208, 1.5238706907257438, 1.5421180200064555, 1.5585050836671144, 1.5734745906665921, 1.5914164268178865, 1.608154722256586, 1.6235256369691342, 1.641586939804256, 1.6584365097805858, 1.6735415260773152, 1.6913973462069407]
14	铅笔	False	animate	inanimate	right	0.902	[0.0, 0.0, 0.0, 0.0, 0.0, 0.0, 0.0, 0.0, 3.0, 15.0, 15.0, 15.0, 15.0, 15.0, 15.0, 15.0, 15.0, 15.0, 15.0, 15.0, 15.0, 15.0, 15.0, 15.0, 15.0, 15.0, 15.0, 17.0, 23.0, 29.0, 31.0, 34.0, 34.0, 34.0, 33.0, 32.0, 30.0, 30.0, 30.0, 30.0, 32.0, 35.0, 35.0, 28.0, 26.0, 29.0, 102.0, 190.0, 310.0, 477.0, 654.0, 811.0, 916.0, 959.0]	[-490.0, -490.0, -490.0, -490.0, -490.0, -490.0, -490.0, -483.0, -471.0, -451.0, -451.0, -451.0, -451.0, -451.0, -451.0, -451.0, -451.0, -451.0, -451.0, -451.0, -451.0, -451.0, -451.0, -451.0, -451.0, -451.0, -451.0, -451.0, -458.0, -461.0, -463.0, -463.0, -463.0, -463.0, -459.0, -457.0, -453.0, -449.0, -438.0, -423.0, -406.0, -383.0, -358.0, -302.0, -244.0, -208.0, -67.0, 18.0, 101.0, 181.0, 258.0, 326.0, 372.0, 392.0]	[0.00014636374544352293, 0.005312441033311188, 0.01555482519324869, 0.0341704529710114, 0.05058926052879542, 0.06564102880656719, 0.0850567416055128, 0.10061709629371762, 0.11835071921814233, 0.133968417881988, 0.15072992397472262, 0.16554071102291346, 0.1850605303188786, 0.2005751464748755, 0.21616724506020546, 0.2339346599765122, 0.25097401125822216, 0.26586603571195155, 0.28417412226554006, 0.30058576189912856, 0.31585461809299886, 0.3339500541333109, 0.3509221627609804, 0.36582169646862894, 0.3841236390871927, 0.40065030800178647, 0.41579730820376426, 0.433945992263034, 0.4508303783368319, 0.465782135957852, 0.4841560998465866, 0.5006933500990272, 0.5159198809415102, 0.5340119036845863, 0.550837580463849, 0.5655889755580574, 0.5841213180683553, 0.6005271549802274, 0.6158775897929445, 0.6337183912983164, 0.6507833425421268, 0.665519377682358, 0.6840797095792368, 0.70040567452088, 0.7158185732550919, 0.7337133054388687, 0.750744464690797, 0.7655419398797676, 0.7840322983684018, 0.800417996593751, 0.8159725486766547, 0.8339536380954087, 0.8507670268882066, 0.8660515843657777]
15	书包	False	animate	inanimate	right	0.899	[0.0, 0.0, 0.0, 0.0, 0.0, 0.0, 0.0, 0.0, 0.0, -1.0, -21.0, -25.0, -33.0, -33.0, -33.0, -33.0, -33.0, -33.0, -33.0, -33.0, -33.0, -33.0, -33.0, -33.0, -33.0, -33.0, -33.0, -33.0, -33.0, -33.0, -33.0, -33.0, -33.0, -31.0, -28.0, -28.0, -28.0, -28.0, -30.0, -30.0, -30.0, -30.0, -25.0, -12.0, 9.0, 44.0, 113.0, 229.0, 386.0, 571.0, 780.0, 944.0, 959.0, 959.0, 959.0]	[-490.0, -490.0, -490.0, -490.0, -490.0, -490.0, -490.0, -490.0, -490.0, -490.0, -477.0, -472.0, -469.0, -469.0, -469.0, -469.0, -469.0, -469.0, -469.0, -469.0, -469.0, -469.0, -469.0, -469.0, -469.0, -469.0, -469.0, -469.0, -469.0, -469.0, -469.0, -469.0, -469.0, -471.0, -472.0, -473.0, -473.0, -474.0, -474.0, -474.0, -474.0, -473.0, -471.0, -466.0, -454.0, -430.0, -376.0, -278.0, -161.0, -11.0, 151.0, 302.0, 473.0, 537.0, 540.0]	[0.015578718390315771, 0.023967663408257067, 0.02966348989866674, 0.04788078193087131, 0.06491023453418165, 0.07963910163380206, 0.0982516574440524, 0.11471756896935403, 0.130028409184888, 0.1479845813009888, 0.1648491700179875, 0.17964425578247756, 0.19828514219261706, 0.21464626444503665, 0.2300349286524579, 0.25104022992309183, 0.26489460142329335, 0.2799047271255404, 0.29825582168996334, 0.31701719877310097, 0.330029160133563, 0.34980190731585026, 0.36511069943662733, 0.37987608928233385, 0.3983043251791969, 0.4167707903543487, 0.4300684474874288, 0.4499343787319958, 0.46502915502060205, 0.48239618609659374, 0.49829821521416306, 0.5156826543388888, 0.5300677990308031, 0.548642466776073, 0.5648086878936738, 0.5805458531249315, 0.598133385530673, 0.6152488540392369, 0.6301265424117446, 0.6526872988324612, 0.665020348620601, 0.6800871355226263, 0.6980934836901724, 0.7147758004721254, 0.7298265447607264, 0.7481138100847602, 0.7647363934665918, 0.7799311804119498, 0.7978354699444026, 0.8149202185450122, 0.8299180561443791, 0.8482298974413425, 0.864781824988313, 0.8800243984442204, 0.8980986719252542]
16	天鹅	True	inanimate	animate	right	0.919	[0.0, 0.0, 0.0, 0.0, 0.0, 0.0, 0.0, 0.0, 0.0, 0.0, 1.0, 1.0, 1.0, 1.0, 1.0, 1.0, 1.0, 1.0, 1.0, 1.0, 1.0, 1.0, 1.0, 1.0, 1.0, 1.0, 1.0, 1.0, 4.0, 6.0, 5.0, 5.0, 5.0, 5.0, 5.0, 3.0, 4.0, 5.0, 1.0, -6.0, -38.0, -54.0, -55.0, -54.0, -33.0, 21.0, 108.0, 226.0, 357.0, 499.0, 721.0, 785.0, 934.0, 959.0, 959.0]	[-490.0, -493.0, -493.0, -493.0, -493.0, -493.0, -493.0, -493.0, -493.0, -493.0, -489.0, -481.0, -481.0, -481.0, -481.0, -481.0, -481.0, -481.0, -481.0, -481.0, -481.0, -481.0, -481.0, -481.0, -481.0, -481.0, -481.0, -481.0, -481.0, -481.0, -481.0, -481.0, -482.0, -482.0, -482.0, -482.0, -478.0, -465.0, -449.0, -439.0, -397.0, -373.0, -365.0, -337.0, -298.0, -232.0, -151.0, -52.0, 55.0, 165.0, 325.0, 368.0, 471.0, 493.0, 497.0]	[0.01656394253950566, 0.02130881475750357, 0.032014046562835574, 0.0504825598327443, 0.06686928204726428, 0.08219514088705182, 0.10038341954350471, 0.11696026439312845, 0.13184682745486498, 0.15022420475725085, 0.16723488399293274, 0.18205830047372729, 0.20049370429478586, 0.21690773323643953, 0.23218614677898586, 0.2502559828571975, 0.26700554229319096, 0.2820832518627867, 0.3005029544001445, 0.3167053568176925, 0.33213156752754003, 0.35027069423813373, 0.3671267497120425, 0.3818303581792861, 0.4005316605325788, 0.41691770020406693, 0.43211180437356234, 0.45018471241928637, 0.4671455571660772, 0.4819478108547628, 0.5005197480786592, 0.5167293184204027, 0.5321743024978787, 0.5500232960330322, 0.567029879312031, 0.5817693277494982, 0.600501008797437, 0.6167126272339374, 0.6319685127818957, 0.6500359594356269, 0.666992025449872, 0.6817860872251913, 0.700385331059806, 0.7167713706148788, 0.7322986159706488, 0.7501005055382848, 0.766982160974294, 0.7818018227117136, 0.8003536211326718, 0.8165672875475138, 0.8321382235735655, 0.8501285290112719, 0.8670944937039167, 0.8819745713844895, 0.9004973565461114]
17	螳螂	True	animate	inanimate	left	0.927	[0.0, 0.0, 0.0, 0.0, 0.0, 0.0, 0.0, 0.0, 0.0, 0.0, 1.0, 15.0, 32.0, 34.0, 34.0, 34.0, 34.0, 34.0, 34.0, 34.0, 34.0, 34.0, 34.0, 34.0, 34.0, 34.0, 34.0, 34.0, 34.0, 34.0, 34.0, 34.0, 34.0, 34.0, 34.0, 34.0, 34.0, 34.0, 36.0, 38.0, 39.0, 40.0, 40.0, 40.0, 40.0, 33.0, 5.0, -116.0, -171.0, -352.0, -465.0, -591.0, -690.0, -766.0, -805.0, -820.0, -821.0]	[-490.0, -490.0, -490.0, -490.0, -490.0, -490.0, -490.0, -490.0, -490.0, -484.0, -474.0, -450.0, -420.0, -416.0, -416.0, -416.0, -416.0, -416.0, -416.0, -416.0, -416.0, -416.0, -416.0, -416.0, -416.0, -416.0, -416.0, -416.0, -416.0, -416.0, -416.0, -416.0, -416.0, -416.0, -416.0, -416.0, -416.0, -416.0, -416.0, -416.0, -415.0, -412.0, -408.0, -402.0, -393.0, -369.0, -324.0, -183.0, -127.0, 69.0, 190.0, 299.0, 382.0, 431.0, 459.0, 471.0, 472.0]	[0.006305379094555974, 0.011233547236770391, 0.016853256383910775, 0.029816748457960784, 0.046305529307574034, 0.06154571345541626, 0.07967152819037437, 0.09654806356411427, 0.11130116530694067, 0.12980893184430897, 0.14620999014005065, 0.16155632899608463, 0.17958520504180342, 0.19647232175339013, 0.2113677595043555, 0.22996529657393694, 0.24633563484530896, 0.2615116484230384, 0.279654529877007, 0.29643856384791434, 0.31130601232871413, 0.32984961883630604, 0.34609844244550914, 0.3614997359691188, 0.37943372142035514, 0.3964341606479138, 0.41120740107726306, 0.42982780758757144, 0.4462575378129259, 0.46154277806635946, 0.4795037287985906, 0.4964894908480346, 0.511283211177215, 0.5298848443198949, 0.5461602919967845, 0.5615097028203309, 0.5796160615282133, 0.5965284368721768, 0.6112665199907497, 0.6299961530603468, 0.6461930942023173, 0.6616336408769712, 0.6798062182497233, 0.6964741990668699, 0.7137507769512013, 0.7298323473660275, 0.7476356022525579, 0.7616015897365287, 0.7844736420083791, 0.7964561425615102, 0.8124639850575477, 0.8296794642228633, 0.84663757821545, 0.8617323545040563, 0.8800445371307433, 0.8963636753614992, 0.9112543344963342]
18	石头	False	inanimate	animate	left	1.915	[0.0, 0.0, 0.0, 0.0, 0.0, 0.0, 0.0, 0.0, 0.0, 0.0, 0.0, 0.0, 0.0, -2.0, -2.0, -2.0, -2.0, -2.0, -2.0, -2.0, -2.0, -2.0, -2.0, -2.0, -2.0, -2.0, -2.0, -2.0, -6.0, -11.0, -12.0, -17.0, -17.0, -17.0, -14.0, -11.0, -10.0, -8.0, -8.0, -16.0, -51.0, -114.0, -215.0, -403.0, -474.0, -696.0, -840.0, -958.0, -960.0, -960.0, -960.0, -960.0, -960.0, -960.0, -960.0, -960.0, -960.0, -949.0, -862.0, -743.0, -677.0, -461.0, -329.0, -205.0, -100.0, -18.0, 36.0, 70.0, 73.0, 75.0, 72.0, 63.0, 56.0, 21.0, -29.0, -95.0, -213.0, -359.0, -543.0, -717.0, -853.0, -960.0, -960.0, -960.0, -960.0, -960.0, -960.0, -960.0, -960.0, -960.0, -960.0, -960.0, -956.0, -922.0, -859.0, -741.0, -707.0, -622.0, -567.0, -515.0, -490.0, -479.0, -479.0, -479.0, -479.0, -479.0, -479.0, -479.0, -485.0, -558.0, -640.0, -729.0, -801.0, -830.0, -834.0, -834.0]	[-490.0, -490.0, -490.0, -490.0, -490.0, -490.0, -490.0, -490.0, -490.0, -490.0, -490.0, -490.0, -484.0, -471.0, -462.0, -460.0, -460.0, -460.0, -460.0, -460.0, -460.0, -460.0, -460.0, -460.0, -460.0, -460.0, -460.0, -460.0, -461.0, -465.0, -467.0, -469.0, -470.0, -470.0, -470.0, -470.0, -469.0, -464.0, -453.0, -433.0, -388.0, -315.0, -214.0, -37.0, 28.0, 220.0, 329.0, 427.0, 463.0, 512.0, 513.0, 513.0, 513.0, 513.0, 513.0, 513.0, 513.0, 499.0, 435.0, 347.0, 293.0, 103.0, -43.0, -178.0, -291.0, -367.0, -416.0, -455.0, -459.0, -463.0, -467.0, -467.0, -467.0, -455.0, -436.0, -398.0, -303.0, -159.0, 18.0, 191.0, 334.0, 441.0, 481.0, 487.0, 487.0, 487.0, 487.0, 487.0, 487.0, 487.0, 487.0, 487.0, 487.0, 465.0, 420.0, 329.0, 299.0, 216.0, 150.0, 93.0, 62.0, 54.0, 53.0, 53.0, 53.0, 53.0, 53.0, 55.0, 72.0, 178.0, 284.0, 386.0, 460.0, 486.0, 490.0, 490.0]	[0.0064958431757986546, 0.01098403288051486, 0.01479774818290025, 0.030368001549504697, 0.046956110396422446, 0.06453272013459355, 0.08015690406318754, 0.09802432963624597, 0.11175411462318152, 0.13188765093218535, 0.1466731793479994, 0.16377260524313897, 0.18014942889567465, 0.1976185186067596, 0.21210026054177433, 0.23341822298243642, 0.24665205087512732, 0.2621304856147617, 0.28012591099832207, 0.29698162502609193, 0.31199072673916817, 0.33035410929005593, 0.34671113558579236, 0.362173869041726, 0.3800389051903039, 0.39710965915583074, 0.4119880301877856, 0.4303278607549146, 0.44697263091802597, 0.46217048983089626, 0.48017854464706033, 0.4971066212747246, 0.5120163949904963, 0.5303173136198893, 0.5466661478858441, 0.5620790467364714, 0.5798935655038804, 0.5970506768207997, 0.6116972826421261, 0.6302579557523131, 0.6465572967426851, 0.6621664620470256, 0.6800117009552196, 0.6968742416938767, 0.7117963033961132, 0.7303556111874059, 0.7465644988697022, 0.7621036908822134, 0.7800639590714127, 0.7969776997342706, 0.8120328814256936, 0.8303406266495585, 0.8488838918274269, 0.862226604949683, 0.8824195333290845, 0.897012208472006, 0.9143850422697142, 0.9302665914874524, 0.9480811103712767, 0.9621907991822809, 0.9841852838872001, 0.9968497680965811, 1.0118097177473828, 1.029917100444436, 1.0482156297657639, 1.0617313988041133, 1.0825237082317472, 1.0966736742993817, 1.1146312117343768, 1.1302181904902682, 1.1485457330709323, 1.1619679768336937, 1.180937567143701, 1.1969140069559216, 1.2129327721195295, 1.229948230087757, 1.2473231118638068, 1.2618877977365628, 1.2809055160032585, 1.296851577120833, 1.3120586520526558, 1.3300120935309678, 1.346945631550625, 1.3619991064770147, 1.3802481424063444, 1.3965532861184329, 1.4121102275094017, 1.4298633063444868, 1.447035094955936, 1.4620339565444738, 1.4802563685225323, 1.4964884669752792, 1.5121450775768608, 1.5301091003930196, 1.5469450170639902, 1.5620066840201616, 1.5802188561065122, 1.5966608743183315, 1.6120734317228198, 1.6300818278687075, 1.6469610938802361, 1.6617759770015255, 1.6802124048117548, 1.6966039057588205, 1.712094287155196, 1.72991870471742, 1.7468993467045948, 1.7617009178502485, 1.780190252349712, 1.7965032466454431, 1.8119646147824824, 1.8297886908985674, 1.8468307729344815, 1.8616688665933907, 1.8802510438254103, 1.896674288669601]
19	夫妻	True	animate	inanimate	left	1.02	[0.0, 0.0, 0.0, 0.0, 0.0, 0.0, 0.0, 0.0, 0.0, 0.0, 0.0, 0.0, 0.0, 0.0, 0.0, 0.0, 0.0, -9.0, -18.0, -18.0, -18.0, -18.0, -18.0, -18.0, -18.0, -18.0, -18.0, -18.0, -18.0, -18.0, -18.0, -14.0, -14.0, -14.0, -14.0, -16.0, -17.0, -22.0, -28.0, -37.0, -47.0, -61.0, -78.0, -108.0, -175.0, -203.0, -295.0, -379.0, -418.0, -535.0, -604.0, -652.0, -691.0, -727.0, -753.0, -775.0, -800.0, -804.0, -809.0, -809.0, -809.0]	[-490.0, -490.0, -490.0, -490.0, -490.0, -490.0, -490.0, -490.0, -490.0, -490.0, -490.0, -490.0, -487.0, -472.0, -444.0, -408.0, -378.0, -325.0, -298.0, -293.0, -293.0, -293.0, -293.0, -293.0, -293.0, -293.0, -293.0, -293.0, -293.0, -293.0, -293.0, -296.0, -296.0, -296.0, -296.0, -295.0, -293.0, -285.0, -274.0, -261.0, -245.0, -225.0, -198.0, -159.0, -87.0, -62.0, 10.0, 71.0, 99.0, 184.0, 234.0, 278.0, 321.0, 371.0, 407.0, 446.0, 478.0, 484.0, 489.0, 489.0, 489.0]	[0.0012256591580808163, 0.0060575713869184256, 0.017651634756475687, 0.03613243601284921, 0.05264374485705048, 0.0678115664049983, 0.0863073862856254, 0.10266441258136183, 0.11811042064800858, 0.13596112094819546, 0.15290216822177172, 0.1679522298509255, 0.1861162738641724, 0.20269516669213772, 0.21792681759689003, 0.2361045149154961, 0.25624044064898044, 0.2678853627294302, 0.28624908661004156, 0.30279794218949974, 0.31796644639689475, 0.3361113757127896, 0.35295855649746954, 0.3676689915591851, 0.38629212870728225, 0.40276384295430034, 0.418001979123801, 0.4360786419128999, 0.45302207861095667, 0.46790932421572506, 0.4861815709155053, 0.5027645597001538, 0.5180586746428162, 0.5361124679911882, 0.5529459953540936, 0.5677025105105713, 0.5860972957452759, 0.6026461513247341, 0.6180204794509336, 0.6358271476346999, 0.6529054108541459, 0.6676168700214475, 0.6861471645534039, 0.7025212574517354, 0.7179201615508646, 0.735774616478011, 0.7528323996812105, 0.7676377254538238, 0.7861557319993153, 0.8026195955462754, 0.8179287291131914, 0.8387944250134751, 0.8527832818217576, 0.8679347194265574, 0.8863134620478377, 0.9049447912257165, 0.9179878138238564, 0.9383950993651524, 0.9530345372622833, 0.970543562900275, 0.98625820025336]
20	太阳	False	animate	inanimate	right	1.152	[0.0, 0.0, 0.0, 0.0, 0.0, 0.0, 0.0, 0.0, 0.0, 0.0, 0.0, -1.0, -1.0, -1.0, -1.0, -1.0, -1.0, -1.0, -1.0, -1.0, -1.0, -1.0, -1.0, -1.0, -1.0, -1.0, -1.0, 0.0, 2.0, 2.0, 2.0, 2.0, 4.0, 5.0, 5.0, 5.0, 5.0, 5.0, 5.0, 5.0, 4.0, 1.0, -1.0, -2.0, -2.0, -2.0, 1.0, 2.0, 4.0, 6.0, 10.0, 12.0, 16.0, 21.0, 30.0, 59.0, 92.0, 120.0, 247.0, 355.0, 463.0, 554.0, 643.0, 721.0, 791.0, 823.0, 837.0, 846.0, 846.0, 846.0]	[-490.0, -490.0, -490.0, -490.0, -490.0, -490.0, -490.0, -490.0, -490.0, -490.0, -484.0, -473.0, -471.0, -471.0, -471.0, -471.0, -471.0, -471.0, -471.0, -471.0, -471.0, -471.0, -471.0, -471.0, -471.0, -471.0, -471.0, -471.0, -474.0, -474.0, -474.0, -474.0, -478.0, -479.0, -479.0, -480.0, -480.0, -479.0, -478.0, -476.0, -471.0, -466.0, -463.0, -461.0, -459.0, -457.0, -453.0, -450.0, -447.0, -445.0, -442.0, -440.0, -437.0, -435.0, -431.0, -413.0, -387.0, -369.0, -259.0, -145.0, -24.0, 83.0, 183.0, 267.0, 343.0, 379.0, 390.0, 396.0, 396.0, 396.0]	[0.01389935938641429, 0.02048572397325188, 0.02614024910144508, 0.04451523697935045, 0.06153376691509038, 0.07620119408238679, 0.09490693383850157, 0.11128102685324848, 0.12665057624690235, 0.144576711114496, 0.1614774811314419, 0.1762179535580799, 0.1948100293520838, 0.21117831964511424, 0.22660589579027146, 0.24471976386848837, 0.2615502191474661, 0.27637534227687865, 0.2949162181466818, 0.3139192590024322, 0.32652332726866007, 0.34612711460795254, 0.3615594693692401, 0.37771852244623005, 0.3947715270332992, 0.41604443348478526, 0.4264527054037899, 0.44919539242982864, 0.4615004528313875, 0.4769563595764339, 0.49467496387660503, 0.5118092057527974, 0.5265971234766766, 0.5446225862251595, 0.5613813616801053, 0.576533823274076, 0.5944828273495659, 0.6126120554981753, 0.6264920269604772, 0.6458742890972644, 0.6611359772505239, 0.6773735369788483, 0.6946228081360459, 0.7117198447231203, 0.726466802530922, 0.7447977584088221, 0.7612664006883278, 0.7765728035010397, 0.7945986075792462, 0.8116270361933857, 0.826266132760793, 0.8448148592142388, 0.861341186799109, 0.8764598564011976, 0.8947044550441206, 0.9115205744747072, 0.9264777933713049, 0.9446558321360499, 0.9610835143830627, 0.9765452237334102, 0.9943740786984563, 1.0114554138854146, 1.0261917903553694, 1.044651770265773, 1.0609395059291273, 1.0766514125280082, 1.094295606133528, 1.1113213041098788, 1.1261774884769693, 1.14472996967379]
21	面包	False	inanimate	animate	left	0.921	[0.0, 0.0, 0.0, 0.0, -2.0, -6.0, -10.0, -10.0, -4.0, 3.0, 3.0, 3.0, 3.0, 3.0, 3.0, 3.0, 3.0, 3.0, 3.0, 3.0, 3.0, 3.0, 3.0, 3.0, 3.0, 3.0, 6.0, 11.0, 17.0, 18.0, 18.0, 15.0, 12.0, 10.0, 10.0, 8.0, -2.0, -19.0, -30.0, -52.0, -84.0, -104.0, -114.0, -136.0, -152.0, -180.0, -232.0, -308.0, -411.0, -575.0, -628.0, -724.0, -828.0, -872.0, -886.0, -892.0]	[-490.0, -490.0, -490.0, -490.0, -483.0, -476.0, -465.0, -452.0, -436.0, -425.0, -423.0, -423.0, -423.0, -423.0, -423.0, -423.0, -423.0, -423.0, -423.0, -423.0, -423.0, -423.0, -423.0, -423.0, -423.0, -423.0, -423.0, -425.0, -425.0, -425.0, -425.0, -424.0, -422.0, -420.0, -419.0, -415.0, -411.0, -404.0, -400.0, -392.0, -378.0, -369.0, -363.0, -347.0, -333.0, -313.0, -264.0, -175.0, -57.0, 133.0, 191.0, 321.0, 490.0, 540.0, 540.0, 540.0]	[0.014016231638379395, 0.018738575861789286, 0.026508342591114342, 0.0452772289281711, 0.06422224326524884, 0.07706558599602431, 0.09593141102232039, 0.11220651736948639, 0.1268370805773884, 0.14523118315264583, 0.16331876849289984, 0.17712569481227547, 0.19634343427605927, 0.2119659116724506, 0.2295660732779652, 0.24520117999054492, 0.266415718360804, 0.2769424329744652, 0.2952682690229267, 0.3118946071481332, 0.3267357728909701, 0.3449728621635586, 0.36430870299227536, 0.3769574858015403, 0.39685891568660736, 0.41174991603475064, 0.42716725217178464, 0.44509816565550864, 0.46405649185180664, 0.47692236269358546, 0.49685519514605403, 0.5117810114752501, 0.5299109221668914, 0.5450971757527441, 0.5630707559175789, 0.5769582367502153, 0.5966698853299022, 0.6116434882860631, 0.6284582423977554, 0.6449654552852735, 0.6632073232904077, 0.6769965002313256, 0.6958578878547996, 0.7117380717536435, 0.7273520157905295, 0.7450924653094262, 0.7624588137259707, 0.7770054090069607, 0.7983069873880595, 0.8116664258996025, 0.8270349514205009, 0.8447453636908904, 0.8619683521101251, 0.8768934858962893, 0.8951186285121366, 0.911745990626514]
22	黑板	False	inanimate	animate	left	0.856	[0.0, 0.0, 0.0, 0.0, 0.0, 0.0, 0.0, 0.0, 0.0, 0.0, 0.0, 6.0, 12.0, 25.0, 25.0, 25.0, 25.0, 25.0, 25.0, 25.0, 25.0, 25.0, 25.0, 25.0, 25.0, 25.0, 25.0, 25.0, 25.0, 25.0, 25.0, 25.0, 28.0, 35.0, 32.0, 32.0, 33.0, 33.0, 20.0, -8.0, -68.0, -159.0, -265.0, -369.0, -481.0, -592.0, -729.0, -789.0, -808.0, -844.0, -855.0, -860.0]	[-490.0, -490.0, -490.0, -490.0, -490.0, -490.0, -490.0, -490.0, -490.0, -490.0, -490.0, -486.0, -480.0, -466.0, -466.0, -466.0, -466.0, -466.0, -466.0, -466.0, -466.0, -466.0, -466.0, -466.0, -466.0, -466.0, -466.0, -466.0, -466.0, -466.0, -466.0, -466.0, -466.0, -466.0, -461.0, -459.0, -455.0, -445.0, -427.0, -405.0, -361.0, -286.0, -187.0, -78.0, 34.0, 140.0, 285.0, 362.0, 392.0, 456.0, 483.0, 494.0]	[0.014071732410229743, 0.018357852939516306, 0.02684510196559131, 0.043490213342010975, 0.06129927095025778, 0.07528369047213346, 0.09411401685792953, 0.11014575255103409, 0.12610512576065958, 0.14342368755023926, 0.16409926093183458, 0.17520214593969285, 0.19373756041750312, 0.21017616533208638, 0.22493165649939328, 0.2431912737665698, 0.26144781918264925, 0.2751639507478103, 0.2942629063036293, 0.3101052022539079, 0.32536962104495615, 0.343320673215203, 0.36080102692358196, 0.37511517421808094, 0.3937021300662309, 0.4100891937268898, 0.4255140391178429, 0.4433384566800669, 0.46020680002402514, 0.47518142708577216, 0.49349019629880786, 0.5100721612107009, 0.5252590973395854, 0.5433323468314484, 0.5604409887455404, 0.575193066499196, 0.5935567903798074, 0.6100445473566651, 0.6253403688315302, 0.6433054156368598, 0.660085353651084, 0.6751821779180318, 0.6934083446394652, 0.7096796962432563, 0.7252786216558889, 0.7432812150800601, 0.7600522785214707, 0.7751603667857125, 0.7934083787258714, 0.8096889464650303, 0.8252441810909659, 0.8431996705476195]
23	新娘	True	animate	inanimate	left	1.384	[0.0, 0.0, 0.0, 0.0, 0.0, 0.0, 0.0, 0.0, 0.0, 0.0, 0.0, 0.0, 0.0, 0.0, 0.0, 0.0, 0.0, 0.0, 0.0, 0.0, 0.0, 0.0, 0.0, 0.0, 0.0, 0.0, 0.0, 0.0, 0.0, 0.0, 0.0, 0.0, 0.0, 0.0, 0.0, 0.0, 0.0, 0.0, 0.0, 0.0, -2.0, -24.0, -70.0, -152.0, -258.0, -383.0, -527.0, -675.0, -805.0, -960.0, -960.0, -960.0, -960.0, -960.0, -960.0, -960.0, -960.0, -960.0, -960.0, -960.0, -960.0, -960.0, -960.0, -936.0, -813.0, -715.0, -665.0, -569.0, -534.0, -501.0, -478.0, -467.0, -463.0, -463.0, -463.0, -489.0, -511.0, -560.0, -622.0, -681.0, -722.0, -739.0, -750.0, -755.0]	[-490.0, -490.0, -490.0, -490.0, -490.0, -490.0, -490.0, -490.0, -490.0, -490.0, -490.0, -490.0, -490.0, -490.0, -490.0, -490.0, -490.0, -490.0, -490.0, -490.0, -490.0, -490.0, -490.0, -490.0, -490.0, -490.0, -490.0, -490.0, -490.0, -490.0, -490.0, -490.0, -490.0, -490.0, -490.0, -490.0, -490.0, -490.0, -490.0, -490.0, -489.0, -458.0, -402.0, -306.0, -182.0, -42.0, 107.0, 244.0, 360.0, 499.0, 540.0, 540.0, 540.0, 540.0, 540.0, 540.0, 540.0, 540.0, 540.0, 540.0, 540.0, 540.0, 540.0, 520.0, 413.0, 319.0, 271.0, 162.0, 115.0, 68.0, 35.0, 17.0, 12.0, 12.0, 12.0, 31.0, 54.0, 110.0, 202.0, 289.0, 349.0, 380.0, 403.0, 416.0]	[0.012518803123384714, 0.018070928286761045, 0.023465357488021255, 0.042189529282040894, 0.05873258213978261, 0.07405571022536606, 0.09212076768744737, 0.10898945236112922, 0.12397534342017025, 0.1423755899304524, 0.15859813103452325, 0.17407315236050636, 0.19214913249015808, 0.20886660658288747, 0.22372688702307642, 0.2422954108333215, 0.25875108235049993, 0.27407694119028747, 0.2921266385819763, 0.3089666513260454, 0.3240167129551992, 0.3422800849657506, 0.35871698323171586, 0.3740302126388997, 0.3920696701388806, 0.40896805084776133, 0.4236774619203061, 0.44217703642789274, 0.45851051073987037, 0.474020006833598, 0.4918290643254295, 0.5089431676315144, 0.5236222001258284, 0.5423542225034907, 0.5586375208804384, 0.5738316250499338, 0.5919451517984271, 0.6089978150557727, 0.6236614875961095, 0.6423556220252067, 0.6587030909722671, 0.6739169924985617, 0.692046903190203, 0.7088278653100133, 0.7236495750257745, 0.7421928402036428, 0.7584860371425748, 0.7740149892633781, 0.7945526640396565, 0.8088115154532716, 0.8238390490878373, 0.8422430503414944, 0.8606736755464226, 0.8739368580281734, 0.893486714689061, 0.9089146321639419, 0.9248866346897557, 0.9421499004820362, 0.9635211108252406, 0.9739607855444774, 0.9928825892275199, 1.0088689276017249, 1.0243087917333469, 1.0420536786550656, 1.0584318676264957, 1.0737406597472727, 1.0941489692777395, 1.1086375379236415, 1.1265244194073603, 1.142080678138882, 1.1604321140330285, 1.1737587845418602, 1.1930581027409062, 1.2085512147750705, 1.226644602837041, 1.2418291496578604, 1.25966687919572, 1.2737284400500357, 1.292806232930161, 1.3084519209805876, 1.3240829316200688, 1.3418558078119531, 1.3588098258478567, 1.3736431408906356]
24	大门	False	inanimate	animate	left	0.831	[0.0, 0.0, 0.0, 0.0, 0.0, 0.0, 0.0, 0.0, 0.0, 0.0, 0.0, 0.0, 0.0, 0.0, 0.0, -3.0, -9.0, -10.0, -10.0, -10.0, -10.0, -10.0, -10.0, -10.0, -10.0, -10.0, -10.0, -10.0, -10.0, -10.0, -10.0, -12.0, -13.0, -13.0, -15.0, -15.0, -17.0, -49.0, -59.0, -106.0, -247.0, -373.0, -513.0, -657.0, -779.0, -875.0, -931.0, -954.0, -955.0, -955.0]	[-490.0, -490.0, -490.0, -490.0, -490.0, -490.0, -490.0, -490.0, -490.0, -490.0, -490.0, -490.0, -490.0, -490.0, -490.0, -488.0, -470.0, -466.0, -466.0, -466.0, -466.0, -466.0, -466.0, -466.0, -466.0, -466.0, -466.0, -466.0, -466.0, -466.0, -467.0, -468.0, -469.0, -470.0, -472.0, -471.0, -469.0, -450.0, -442.0, -400.0, -278.0, -166.0, -22.0, 124.0, 267.0, 379.0, 461.0, 510.0, 517.0, 517.0]	[0.00921524444129318, 0.013746100710704923, 0.01927945262286812, 0.03904878650791943, 0.05192831053864211, 0.06742347055114806, 0.08547487470787019, 0.10220634343568236, 0.1172632317757234, 0.13564845966175199, 0.1520935499574989, 0.16737742477562279, 0.18549538881052285, 0.20232652686536312, 0.21706631663255394, 0.2356396191753447, 0.2520475040655583, 0.26742046687286347, 0.28533055901061743, 0.3021125451195985, 0.31702197750564665, 0.3356560373213142, 0.3519802956143394, 0.36740206903778017, 0.38525037991348654, 0.4023402484599501, 0.41697524895425886, 0.43560794345103204, 0.45191957242786884, 0.4672939005540684, 0.485245976713486, 0.5024222024949268, 0.517012829775922, 0.5357550921617076, 0.5519080011872575, 0.5672471720026806, 0.5853296373970807, 0.602205831441097, 0.6169585918541998, 0.6355356490239501, 0.651909742038697, 0.6673782780999318, 0.6853085089242086, 0.7022403402952477, 0.7169726206921041, 0.7355698165483773, 0.7517742668278515, 0.7672124243108556, 0.7851979511324316, 0.8022028277628124]
25	香蕉	False	animate	inanimate	right	1.077	[0.0, 0.0, 0.0, 0.0, 0.0, 0.0, 0.0, 0.0, 0.0, 1.0, 6.0, 7.0, 10.0, 10.0, 10.0, 10.0, 10.0, 10.0, 10.0, 10.0, 10.0, 10.0, 10.0, 10.0, 10.0, 10.0, 10.0, 10.0, 9.0, 7.0, 7.0, 7.0, 7.0, 7.0, 7.0, 5.0, 2.0, 0.0, -2.0, -2.0, -2.0, -2.0, -2.0, -2.0, -2.0, -2.0, -2.0, -2.0, -2.0, -2.0, -2.0, -2.0, 0.0, 16.0, 28.0, 91.0, 170.0, 273.0, 394.0, 538.0, 684.0, 801.0, 885.0, 932.0, 949.0]	[-490.0, -490.0, -490.0, -490.0, -490.0, -490.0, -490.0, -490.0, -490.0, -490.0, -483.0, -471.0, -468.0, -468.0, -468.0, -468.0, -468.0, -468.0, -468.0, -468.0, -468.0, -468.0, -468.0, -468.0, -468.0, -468.0, -468.0, -468.0, -468.0, -468.0, -468.0, -469.0, -469.0, -469.0, -466.0, -461.0, -456.0, -451.0, -450.0, -448.0, -447.0, -445.0, -445.0, -444.0, -444.0, -443.0, -442.0, -442.0, -442.0, -441.0, -437.0, -432.0, -422.0, -388.0, -367.0, -263.0, -157.0, -43.0, 65.0, 176.0, 277.0, 362.0, 421.0, 453.0, 463.0]	[0.013574205222539604, 0.018866234575398266, 0.025756044313311577, 0.044068568269722164, 0.060629029176197946, 0.07597263727802783, 0.09398376406170428, 0.11089545674622059, 0.12583492638077587, 0.14411536511033773, 0.16067377792205662, 0.17593853815924376, 0.19380937691312283, 0.2108886642381549, 0.2256902352673933, 0.244171719183214, 0.26071067608427256, 0.276012982823886, 0.2940787229454145, 0.31082111434079707, 0.3256073255324736, 0.3440461427671835, 0.3607342621544376, 0.3759027663618326, 0.39407397841569036, 0.41085664718411863, 0.4258674554293975, 0.44411512615624815, 0.4606083444086835, 0.4760096378158778, 0.49383542069699615, 0.5107914867112413, 0.5255336657864973, 0.54411379492376, 0.5604622878599912, 0.575782002764754, 0.593879145453684, 0.6107771848328412, 0.6257391824619845, 0.6441527410643175, 0.6604449140140787, 0.6759469007374719, 0.693846752983518, 0.710835586884059, 0.7258068005321547, 0.744182129856199, 0.7636367545928806, 0.7758496549213305, 0.7941396508831531, 0.8107676957733929, 0.8258218533592299, 0.8441610012669116, 0.8626400958746672, 0.8760500516509637, 0.8958804841386154, 0.9109018738381565, 0.9283579929033294, 0.9441088114399463, 0.9622230208478868, 0.9759572431212291, 0.9950951107311994, 1.010853097308427, 1.0284293656004593, 1.0442395762074739, 1.065282765426673]
26	手表	False	animate	inanimate	right	0.865	[0.0, 0.0, 0.0, 0.0, 0.0, 0.0, 0.0, 0.0, 0.0, 0.0, 0.0, 0.0, 0.0, 0.0, 0.0, 0.0, 0.0, 0.0, 0.0, 0.0, -1.0, -4.0, -4.0, -4.0, -4.0, -4.0, -4.0, -4.0, -4.0, -4.0, -4.0, -4.0, -4.0, -4.0, -4.0, -4.0, 6.0, 24.0, 27.0, 27.0, 22.0, 20.0, 26.0, 70.0, 126.0, 201.0, 306.0, 425.0, 553.0, 684.0, 804.0, 889.0, 907.0]	[-490.0, -490.0, -490.0, -490.0, -490.0, -490.0, -490.0, -490.0, -490.0, -490.0, -490.0, -490.0, -490.0, -490.0, -490.0, -490.0, -490.0, -490.0, -489.0, -478.0, -466.0, -455.0, -455.0, -455.0, -455.0, -455.0, -455.0, -455.0, -455.0, -455.0, -455.0, -455.0, -455.0, -455.0, -455.0, -455.0, -462.0, -467.0, -467.0, -467.0, -462.0, -433.0, -413.0, -312.0, -223.0, -127.0, -1.0, 109.0, 216.0, 318.0, 404.0, 452.0, 458.0]	[0.013178122346289456, 0.01812881848309189, 0.024969817604869604, 0.04344618145842105, 0.060213831602595747, 0.07541407982353121, 0.09343373985029757, 0.11046148580498993, 0.1250476756831631, 0.14366535155568272, 0.15998244180809706, 0.17538578331004828, 0.19333069142885506, 0.21030211739707738, 0.22506716579664499, 0.24368279369082302, 0.26012378791347146, 0.2754475986585021, 0.293404794880189, 0.31039977283217013, 0.32508836267516017, 0.3438360863365233, 0.3626524180872366, 0.37544968083966523, 0.39902317279484123, 0.4103571403538808, 0.4260297935688868, 0.4436091339448467, 0.4611601436045021, 0.4755695229396224, 0.49344616441521794, 0.5100646519567817, 0.5251232468290254, 0.5434231414692476, 0.5612915910314769, 0.5753384744748473, 0.5950013124383986, 0.610185859259218, 0.6256547367665917, 0.6434364876477048, 0.6605335242347792, 0.675312225939706, 0.6938032672042027, 0.7100913441972807, 0.7253352829720825, 0.7434167244937271, 0.7603359264321625, 0.7753467347938567, 0.7937299147015437, 0.810138140921481, 0.8254558077314869, 0.8433205026667565, 0.8604438218753785]
27	猴子	True	inanimate	animate	right	0.869	[0.0, 0.0, 0.0, 0.0, 0.0, 0.0, 0.0, 0.0, 0.0, 0.0, 0.0, 0.0, -1.0, -1.0, -1.0, -1.0, -1.0, -1.0, -1.0, -1.0, -1.0, -1.0, 0.0, 2.0, 7.0, 8.0, 8.0, 8.0, 8.0, 7.0, 7.0, 7.0, 0.0, -3.0, -4.0, -4.0, -4.0, -4.0, -4.0, 2.0, 11.0, 35.0, 55.0, 168.0, 270.0, 381.0, 483.0, 585.0, 671.0, 739.0, 770.0, 774.0, 774.0]	[-490.0, -490.0, -490.0, -490.0, -490.0, -490.0, -490.0, -490.0, -490.0, -490.0, -490.0, -490.0, -481.0, -476.0, -476.0, -476.0, -476.0, -476.0, -476.0, -476.0, -476.0, -476.0, -477.0, -483.0, -489.0, -491.0, -493.0, -495.0, -499.0, -501.0, -501.0, -503.0, -499.0, -496.0, -487.0, -482.0, -480.0, -473.0, -472.0, -464.0, -453.0, -427.0, -410.0, -298.0, -192.0, -83.0, 28.0, 154.0, 276.0, 378.0, 423.0, 427.0, 427.0]	[0.013037288328632712, 0.01838222425431013, 0.024758668965660036, 0.043141848873347044, 0.059455525828525424, 0.074923379230313, 0.09296420204918832, 0.10985541471745819, 0.12470033508725464, 0.14317055500578135, 0.15966991719324142, 0.17495822941418737, 0.1927741136169061, 0.20987661147955805, 0.22475191054400057, 0.24312382645439357, 0.25945934874471277, 0.2749121835222468, 0.2927270437357947, 0.30985616566613317, 0.32452461682260036, 0.34316857531666756, 0.35952833225019276, 0.37473643117118627, 0.3927997818682343, 0.4100688503822312, 0.424500074936077, 0.443130380124785, 0.4596171129960567, 0.4748808491276577, 0.49283599737100303, 0.5097838713554665, 0.5245489197550341, 0.5431252942653373, 0.5596816590987146, 0.5747214807197452, 0.5927291942061856, 0.6098753827391192, 0.6246062978170812, 0.6431635576300323, 0.6596069412771612, 0.6750150613952428, 0.6929551908979192, 0.7097470755688846, 0.7245421613333747, 0.7430936185410246, 0.762147176777944, 0.7749161089304835, 0.7931187235517427, 0.8099839949281886, 0.8246893100440502, 0.8431219833437353, 0.8612863686867058]
28	石头	False	animate	inanimate	right	0.903	[0.0, 0.0, 0.0, 0.0, 0.0, 0.0, 0.0, 0.0, 0.0, 0.0, 0.0, 0.0, 0.0, 1.0, 1.0, 1.0, 0.0, 0.0, 0.0, 0.0, 0.0, 0.0, 0.0, 0.0, 0.0, -1.0, -1.0, -1.0, -2.0, -3.0, -4.0, -4.0, -4.0, -4.0, -4.0, -4.0, -4.0, -4.0, -4.0, -13.0, -44.0, -108.0, -211.0, -397.0, -452.0, -540.0, -567.0, -519.0, -473.0, -257.0, -51.0, 64.0, 411.0, 608.0, 732.0]	[-490.0, -490.0, -490.0, -490.0, -490.0, -490.0, -490.0, -490.0, -490.0, -490.0, -490.0, -490.0, -490.0, -490.0, -489.0, -489.0, -488.0, -488.0, -488.0, -488.0, -488.0, -488.0, -488.0, -488.0, -488.0, -486.0, -485.0, -485.0, -484.0, -482.0, -482.0, -482.0, -480.0, -480.0, -480.0, -477.0, -472.0, -461.0, -450.0, -425.0, -374.0, -296.0, -186.0, -27.0, 17.0, 87.0, 139.0, 239.0, 272.0, 355.0, 403.0, 419.0, 472.0, 499.0, 513.0]	[0.008325730334036052, 0.012709813425317407, 0.017733213491737843, 0.034031530492939055, 0.05049471138045192, 0.06579360482282937, 0.08385524898767471, 0.10073861095588654, 0.11560230469331145, 0.13404043926857412, 0.15028858033474535, 0.16569123906083405, 0.18366925651207566, 0.20060893846675754, 0.21567060542292893, 0.23401419073343277, 0.2503247957210988, 0.26581381179858, 0.2837150292471051, 0.30065300466958433, 0.31536890112329274, 0.3340056915767491, 0.3502883071778342, 0.3654749020934105, 0.3835641941986978, 0.4006107134046033, 0.41539419384207577, 0.4340238163713366, 0.4503709439886734, 0.4657387867337093, 0.48379770014435053, 0.5005182463210076, 0.515473417355679, 0.5341306877089664, 0.5505204820074141, 0.5658255195012316, 0.5858645065454766, 0.6007128403289244, 0.6184072099858895, 0.634083959273994, 0.6516581795876846, 0.6658723163418472, 0.6891126671107486, 0.7005162665154785, 0.7181638735346496, 0.7342092626495287, 0.7554135611280799, 0.7656013319501653, 0.7883348029572517, 0.8004162900615484, 0.8165306284790859, 0.8340744702145457, 0.8506700883153826, 0.8658276699716225, 0.8836005461635068]
29	军人	True	inanimate	animate	right	0.917	[0.0, 0.0, 0.0, 0.0, 0.0, 0.0, 0.0, 0.0, 0.0, 0.0, 0.0, 0.0, 0.0, 0.0, 0.0, 0.0, 0.0, 0.0, 0.0, 0.0, 0.0, 0.0, 0.0, 0.0, 0.0, 0.0, 0.0, 0.0, 0.0, 0.0, 0.0, 0.0, 0.0, 0.0, 0.0, 0.0, 0.0, 0.0, 0.0, 0.0, 0.0, 0.0, 7.0, 28.0, 67.0, 139.0, 232.0, 329.0, 443.0, 621.0, 723.0, 770.0, 838.0, 847.0, 847.0]	[-490.0, -490.0, -490.0, -490.0, -490.0, -490.0, -490.0, -490.0, -490.0, -490.0, -490.0, -490.0, -490.0, -490.0, -490.0, -490.0, -490.0, -490.0, -490.0, -490.0, -490.0, -490.0, -490.0, -490.0, -490.0, -490.0, -490.0, -490.0, -490.0, -490.0, -490.0, -490.0, -490.0, -490.0, -490.0, -490.0, -490.0, -490.0, -490.0, -490.0, -490.0, -490.0, -471.0, -429.0, -374.0, -276.0, -184.0, -78.0, 36.0, 208.0, 293.0, 334.0, 391.0, 396.0, 396.0]	[0.012443368439562619, 0.01673802232835442, 0.023311416269280016, 0.04203012667130679, 0.058422310277819633, 0.0737099398393184, 0.09181663987692446, 0.10895156441256404, 0.12351659161504358, 0.1421189074171707, 0.16119806561619043, 0.17381783516611904, 0.19402919546701014, 0.20895535324234515, 0.2263254562858492, 0.242186525487341, 0.26382670644670725, 0.27370864269323647, 0.29289429693017155, 0.3087321554776281, 0.32455977401696146, 0.3419698131037876, 0.3586480339290574, 0.3736629382474348, 0.3919812648091465, 0.40856254706159234, 0.4236993072554469, 0.4417797246715054, 0.458445998840034, 0.4735342897474766, 0.4935958047863096, 0.508730175672099, 0.5264477559830993, 0.5418760147877038, 0.5595662883715704, 0.5737790598068386, 0.5934203936485574, 0.6084639700129628, 0.6251705214381218, 0.6419118888443336, 0.6592628773069009, 0.6738043525256217, 0.692046903190203, 0.7085776680614799, 0.7238796335877851, 0.7418634536443278, 0.7587515943450853, 0.7737374854041263, 0.7918001534417272, 0.8084070356562734, 0.823738697101362, 0.8417836158769205, 0.8588533458532766, 0.8737624367931858, 0.8919742675498128]
30	母猪	True	animate	inanimate	left	0.885	[0.0, 0.0, 0.0, 0.0, 0.0, 0.0, 0.0, 0.0, 0.0, 0.0, 0.0, 0.0, 0.0, 0.0, 0.0, 0.0, 0.0, 0.0, 0.0, 0.0, 0.0, 0.0, 1.0, 1.0, 1.0, 1.0, 1.0, 0.0, -5.0, -11.0, -20.0, -34.0, -45.0, -57.0, -71.0, -88.0, -104.0, -125.0, -148.0, -181.0, -217.0, -271.0, -337.0, -438.0, -509.0, -583.0, -655.0, -714.0, -756.0, -778.0, -783.0, -783.0, -783.0]	[-490.0, -490.0, -490.0, -490.0, -490.0, -490.0, -490.0, -490.0, -490.0, -490.0, -490.0, -490.0, -490.0, -490.0, -490.0, -490.0, -490.0, -490.0, -490.0, -490.0, -490.0, -490.0, -491.0, -490.0, -489.0, -485.0, -482.0, -474.0, -461.0, -446.0, -428.0, -400.0, -381.0, -359.0, -333.0, -304.0, -275.0, -240.0, -209.0, -165.0, -122.0, -65.0, 1.0, 71.0, 109.0, 162.0, 219.0, 271.0, 319.0, 355.0, 360.0, 360.0, 360.0]	[0.014661010005511343, 0.020023695193231106, 0.030901983031071723, 0.046571905608288944, 0.0633306810632348, 0.07837835338432342, 0.09629015217069536, 0.11300967424176633, 0.12796962400898337, 0.14626132661942393, 0.16454381321091205, 0.17799541167914867, 0.19794155610725284, 0.21309743099845946, 0.2309262859635055, 0.24639584601391107, 0.2641356128733605, 0.2782333550276235, 0.2979490995639935, 0.3131094118580222, 0.3294985234970227, 0.3464088507462293, 0.36429436691105366, 0.3780145945493132, 0.39664797170553356, 0.4131152486661449, 0.42828204622492194, 0.4462020370410755, 0.46329566033091396, 0.4782074820250273, 0.4965278565650806, 0.5130616934038699, 0.5283397656166926, 0.5463761510327458, 0.5633137850090861, 0.5781372014898807, 0.5965200400678441, 0.6131934821605682, 0.6283636931329966, 0.6461256466573104, 0.6632455525686964, 0.6782730862032622, 0.6963763729436323, 0.7130341137526557, 0.7283166232518852, 0.746301467414014, 0.7634807652793825, 0.778050912427716, 0.7966235323110595, 0.8129645158769563, 0.8283272386761382, 0.846339730778709, 0.8632278714794666]
31	蝌蚪	True	inanimate	animate	right	0.967	[0.0, 0.0, 0.0, 0.0, 0.0, 0.0, 0.0, 0.0, 0.0, 0.0, 0.0, 0.0, 0.0, 0.0, 0.0, 0.0, 0.0, 0.0, 0.0, 0.0, 0.0, 0.0, -1.0, -5.0, -12.0, -35.0, -75.0, -131.0, -205.0, -298.0, -414.0, -560.0, -606.0, -616.0, -620.0, -620.0, -620.0, -620.0, -620.0, -620.0, -620.0, -620.0, -620.0, -620.0, -621.0, -617.0, -603.0, -579.0, -528.0, -414.0, -249.0, -50.0, 168.0, 443.0, 518.0, 722.0, 809.0, 844.0]	[-490.0, -490.0, -490.0, -490.0, -490.0, -490.0, -490.0, -490.0, -490.0, -490.0, -490.0, -490.0, -490.0, -490.0, -490.0, -490.0, -490.0, -490.0, -490.0, -490.0, -490.0, -490.0, -489.0, -470.0, -415.0, -329.0, -227.0, -114.0, -13.0, 83.0, 188.0, 312.0, 349.0, 356.0, 359.0, 359.0, 359.0, 359.0, 359.0, 359.0, 359.0, 359.0, 359.0, 359.0, 359.0, 354.0, 348.0, 343.0, 340.0, 340.0, 344.0, 368.0, 423.0, 527.0, 540.0, 540.0, 540.0, 540.0]	[0.012823954923078418, 0.017692731111310422, 0.024307426414452493, 0.04270562494639307, 0.059238779242150486, 0.0744919340359047, 0.0924597114790231, 0.10957654542289674, 0.12443136447109282, 0.14283673104364425, 0.1592760186176747, 0.17456296551972628, 0.1926235855789855, 0.20951172627974302, 0.2241573081118986, 0.24279205058701336, 0.2592439674772322, 0.2745029249927029, 0.2926423930330202, 0.30947318975813687, 0.3243952514603734, 0.34279993537347764, 0.3592364923097193, 0.374534361762926, 0.39242158457636833, 0.4093537572771311, 0.42435500829014927, 0.44262896152213216, 0.4590815611882135, 0.47448251326568425, 0.49220589618198574, 0.5093647140311077, 0.5241205465281382, 0.5426880463492125, 0.5592123258393258, 0.5745159980142489, 0.5924721701303497, 0.6094647587742656, 0.6243045591982082, 0.6427314297761768, 0.659068658715114, 0.67446346685756, 0.6923059750115499, 0.7093896996229887, 0.7243243906414136, 0.7426079013384879, 0.7589410343207419, 0.7744884183630347, 0.7922780198277906, 0.8093494564527646, 0.8241015342064202, 0.8426314874086529, 0.858863927074708, 0.8743365592090413, 0.8921531260712072, 0.909311261260882, 0.9241384323686361, 0.94280150544364]
32	毛巾	False	inanimate	animate	left	0.862	[0.0, 0.0, 0.0, 0.0, 0.0, 0.0, 0.0, 0.0, 0.0, 0.0, 0.0, 0.0, 0.0, -1.0, -4.0, -4.0, -4.0, -4.0, -4.0, -4.0, -4.0, -4.0, -4.0, -4.0, -4.0, -4.0, -4.0, -4.0, -4.0, 5.0, 14.0, 18.0, 19.0, 19.0, 19.0, 23.0, 24.0, 24.0, 22.0, 18.0, -30.0, -110.0, -207.0, -318.0, -438.0, -558.0, -663.0, -750.0, -833.0, -894.0, -932.0, -942.0, -942.0]	[-490.0, -490.0, -490.0, -490.0, -490.0, -490.0, -490.0, -490.0, -490.0, -490.0, -490.0, -490.0, -490.0, -489.0, -482.0, -479.0, -478.0, -478.0, -478.0, -478.0, -478.0, -478.0, -478.0, -478.0, -478.0, -478.0, -478.0, -478.0, -478.0, -486.0, -497.0, -507.0, -512.0, -516.0, -518.0, -518.0, -518.0, -518.0, -510.0, -504.0, -441.0, -344.0, -244.0, -139.0, -40.0, 54.0, 137.0, 199.0, 286.0, 373.0, 439.0, 473.0, 477.0]	[0.012909834505990148, 0.01980066834948957, 0.02415983402170241, 0.0424986407160759, 0.06086338858585805, 0.07418698712717742, 0.09285381494555622, 0.10914496390614659, 0.12460428394842893, 0.14255670143757015, 0.15959673537872732, 0.1741952132433653, 0.19281493709422648, 0.20930132863577455, 0.22456131014041603, 0.24522220622748137, 0.25950051355175674, 0.2743467993568629, 0.29296993638854474, 0.3108233673265204, 0.3246644268510863, 0.345457760267891, 0.35948040906805545, 0.37423521745949984, 0.3928952185669914, 0.4098106659948826, 0.42463203438092023, 0.4448212080169469, 0.459599909838289, 0.47723215678706765, 0.492988778045401, 0.5099090040894225, 0.5246289964998141, 0.5427360378671438, 0.5593405307736248, 0.574711445486173, 0.5929676495725289, 0.611707522533834, 0.6244836227269843, 0.6426288933726028, 0.6594286288600415, 0.6743035865947604, 0.6923652306431904, 0.7090714407386258, 0.7243795501999557, 0.7424954662565142, 0.7593003216898069, 0.7744531246135011, 0.7924069074215367, 0.8091738747898489, 0.8246516268700361, 0.8425023270538077, 0.8593194704735652]
33	窗户	False	inanimate	animate	left	0.915	[0.0, 0.0, 0.0, 0.0, 0.0, 0.0, 0.0, 0.0, 0.0, 0.0, 0.0, 0.0, 0.0, 0.0, 0.0, 0.0, 0.0, 0.0, 0.0, 0.0, 0.0, 0.0, -1.0, -4.0, -11.0, -19.0, -30.0, -40.0, -52.0, -58.0, -65.0, -69.0, -70.0, -70.0, -70.0, -71.0, -71.0, -71.0, -71.0, -71.0, -71.0, -71.0, -71.0, -77.0, -114.0, -140.0, -242.0, -336.0, -444.0, -552.0, -657.0, -754.0, -815.0, -835.0, -843.0, -845.0]	[-490.0, -490.0, -490.0, -490.0, -490.0, -490.0, -490.0, -490.0, -490.0, -490.0, -490.0, -490.0, -490.0, -490.0, -490.0, -490.0, -490.0, -490.0, -490.0, -490.0, -490.0, -490.0, -485.0, -480.0, -471.0, -464.0, -455.0, -447.0, -439.0, -432.0, -425.0, -420.0, -418.0, -418.0, -417.0, -414.0, -414.0, -413.0, -408.0, -403.0, -387.0, -372.0, -354.0, -300.0, -229.0, -184.0, -45.0, 70.0, 189.0, 287.0, 381.0, 466.0, 529.0, 540.0, 540.0, 540.0]	[0.012722783954814076, 0.017494962783530354, 0.023871066165156662, 0.044855546089820564, 0.059275848092511296, 0.07409482717048377, 0.09259883896447718, 0.10995767812710255, 0.12432473211083561, 0.14389848208520561, 0.15927417553029954, 0.17687570257112384, 0.1925913637969643, 0.2144800352398306, 0.22410426498390734, 0.24745589040685445, 0.25927898834925145, 0.2751537108561024, 0.29239513142965734, 0.3135936271864921, 0.3241401391569525, 0.3426188923185691, 0.35928448382765055, 0.37414954288396984, 0.3921135657001287, 0.4102267511188984, 0.4239736027084291, 0.4427878863643855, 0.45888481684960425, 0.474377587554045, 0.4921849383972585, 0.5127372905844823, 0.5239381381543353, 0.5426872272510082, 0.5590623441385105, 0.5743602137081325, 0.5923378898296505, 0.6126335593871772, 0.6239354416029528, 0.6424722215160728, 0.6590845650061965, 0.674309047870338, 0.6921491667162627, 0.7092154832789674, 0.7241607556352392, 0.7423599569592625, 0.7588139219442382, 0.7742554927244782, 0.7920153982704505, 0.8091015121899545, 0.8238959152949974, 0.842303671175614, 0.8589733586413786, 0.8742517721839249, 0.8922403709730133, 0.9093626661924645]
34	司机	True	animate	inanimate	left	0.851	[0.0, 0.0, 0.0, 0.0, 0.0, 0.0, 0.0, 0.0, 0.0, 0.0, 0.0, 0.0, 0.0, 8.0, 13.0, 15.0, 12.0, 12.0, 12.0, 12.0, 12.0, 12.0, 12.0, 12.0, 12.0, 12.0, 12.0, 12.0, 12.0, 13.0, 13.0, 13.0, 13.0, 13.0, 14.0, 14.0, 15.0, 16.0, 12.0, -17.0, -91.0, -173.0, -222.0, -407.0, -541.0, -667.0, -783.0, -875.0, -922.0, -937.0, -937.0]	[-490.0, -490.0, -490.0, -490.0, -490.0, -490.0, -490.0, -490.0, -490.0, -490.0, -490.0, -490.0, -490.0, -483.0, -475.0, -454.0, -412.0, -412.0, -412.0, -412.0, -412.0, -412.0, -412.0, -412.0, -412.0, -412.0, -412.0, -412.0, -412.0, -415.0, -415.0, -417.0, -418.0, -418.0, -419.0, -419.0, -420.0, -420.0, -413.0, -393.0, -329.0, -232.0, -174.0, 17.0, 129.0, 242.0, 345.0, 425.0, 462.0, 480.0, 481.0]	[0.01560650288593024, 0.019931876682676375, 0.03098014835268259, 0.04857894463930279, 0.06570533593185246, 0.08040041103959084, 0.09820468991529197, 0.11486584402155131, 0.13013026292901486, 0.14815674966666847, 0.16633922571782023, 0.18027312797494233, 0.1996014593169093, 0.21503040078096092, 0.23038083559367806, 0.24832608504220843, 0.2662580225151032, 0.27992909820750356, 0.29869627801235765, 0.3150273628998548, 0.330540613620542, 0.3483247539261356, 0.36509615858085454, 0.37993561767507344, 0.39840515493415296, 0.4149092957377434, 0.43031536787748337, 0.4483026013476774, 0.46526993135921657, 0.48012475040741265, 0.4984768689610064, 0.5151090098079294, 0.5303461219882593, 0.5481657609343529, 0.5651088561862707, 0.5799182779155672, 0.5983994205016643, 0.6147830707486719, 0.6302707215072587, 0.6480709044262767, 0.6650959197431803, 0.6798602854833007, 0.698379316017963, 0.7146902623353526, 0.7302089743316174, 0.7479702453128994, 0.7650942471809685, 0.7798497382318601, 0.7983513608342037, 0.8147827977081761, 0.8302014991641045]
35	火焰	False	animate	inanimate	right	0.88	[0.0, 0.0, 0.0, 0.0, 0.0, 0.0, 0.0, 0.0, 0.0, 0.0, 1.0, 4.0, 6.0, 14.0, 27.0, 37.0, 38.0, 38.0, 38.0, 38.0, 38.0, 38.0, 38.0, 38.0, 38.0, 38.0, 38.0, 50.0, 59.0, 65.0, 69.0, 69.0, 69.0, 69.0, 70.0, 71.0, 71.0, 66.0, 62.0, 61.0, 67.0, 90.0, 128.0, 197.0, 307.0, 504.0, 567.0, 744.0, 787.0, 857.0, 864.0]	[-490.0, -490.0, -490.0, -490.0, -490.0, -490.0, -490.0, -490.0, -490.0, -490.0, -491.0, -483.0, -473.0, -434.0, -390.0, -340.0, -318.0, -318.0, -318.0, -318.0, -318.0, -318.0, -318.0, -318.0, -318.0, -318.0, -318.0, -335.0, -344.0, -349.0, -351.0, -351.0, -351.0, -351.0, -351.0, -345.0, -341.0, -317.0, -297.0, -273.0, -237.0, -171.0, -85.0, 8.0, 101.0, 233.0, 265.0, 344.0, 355.0, 367.0, 367.0]	[0.01334059692453593, 0.017746184021234512, 0.025517316069453955, 0.051306401495821774, 0.06017730897292495, 0.07565403706394136, 0.09375425172038376, 0.11058573110494763, 0.12532210757490247, 0.1438865354284644, 0.16034869232680649, 0.175737697747536, 0.19363754999358207, 0.21053627191577107, 0.22526923508848995, 0.24382444692309946, 0.2601661132648587, 0.2754991400288418, 0.2934648694936186, 0.31039362878073007, 0.32528872520197183, 0.34386680636089295, 0.3604023498483002, 0.375759270042181, 0.3947571909520775, 0.4105578442104161, 0.4282627950888127, 0.4438760564662516, 0.4650834269123152, 0.47544152301270515, 0.494760638452135, 0.5105015584267676, 0.526503256871365, 0.5437730080448091, 0.5649305438855663, 0.5754333650693297, 0.5940786888822913, 0.610420013894327, 0.6261104164877906, 0.6436853194609284, 0.660192191018723, 0.675464119296521, 0.6954256236786023, 0.7102732748026028, 0.7281761988997459, 0.7433791777584702, 0.7611779953585938, 0.775542318704538, 0.7937568799825385, 0.8102924235863611, 0.8256674343720078]
36	野猪	True	inanimate	animate	right	0.8	[0.0, 0.0, 0.0, 0.0, 0.0, 0.0, 0.0, 0.0, 0.0, 0.0, 2.0, 2.0, 2.0, 2.0, 2.0, 2.0, 2.0, 2.0, 2.0, 2.0, 2.0, 2.0, 2.0, 2.0, 2.0, 2.0, 0.0, -1.0, -4.0, -13.0, -31.0, -56.0, -87.0, -118.0, -143.0, -186.0, -204.0, -250.0, -285.0, -307.0, -308.0, -255.0, -153.0, 82.0, 195.0, 444.0, 671.0, 852.0, 959.0]	[-490.0, -490.0, -490.0, -490.0, -490.0, -490.0, -490.0, -490.0, -490.0, -488.0, -482.0, -482.0, -482.0, -482.0, -482.0, -482.0, -482.0, -482.0, -482.0, -482.0, -482.0, -482.0, -482.0, -482.0, -482.0, -482.0, -482.0, -482.0, -484.0, -486.0, -479.0, -466.0, -454.0, -437.0, -423.0, -391.0, -375.0, -292.0, -206.0, -131.0, -72.0, 14.0, 99.0, 216.0, 255.0, 347.0, 419.0, 470.0, 497.0]	[0.005932643311098218, 0.011302155209705234, 0.01638426457066089, 0.032716714893467724, 0.04565085226204246, 0.06190513726323843, 0.07899364060722291, 0.09600705048069358, 0.11071304837241769, 0.1291815615259111, 0.145641329116188, 0.16108563053421676, 0.1789254080504179, 0.19599035929422826, 0.21067348786164075, 0.22930276894476265, 0.2456826645648107, 0.26108122733421624, 0.27899985283147544, 0.29598527343478054, 0.3109919858397916, 0.32929529377724975, 0.3458581438753754, 0.3611007174476981, 0.3789316202746704, 0.3959706302266568, 0.4107268040534109, 0.429245151928626, 0.44556190085131675, 0.4610113223316148, 0.4788678251206875, 0.4960106003563851, 0.5106961182318628, 0.5292417727177963, 0.5456022123107687, 0.5610431004315615, 0.5789388566045091, 0.5959259838564321, 0.6108944668667391, 0.6292916415259242, 0.651370435487479, 0.660789865301922, 0.6841042854357511, 0.6960028179455549, 0.7123622336657718, 0.7290387477260083, 0.746043624356389, 0.7611612699693069, 0.7789798848098144]
37	河流	False	inanimate	animate	left	1.081	[0.0, 0.0, 0.0, 0.0, 0.0, 0.0, 0.0, 0.0, 0.0, 0.0, 1.0, 1.0, -1.0, -1.0, -1.0, -1.0, -1.0, -1.0, -1.0, -1.0, -1.0, -1.0, -1.0, -1.0, -1.0, -1.0, -1.0, 2.0, 5.0, 7.0, 7.0, 7.0, 7.0, 7.0, 5.0, 0.0, -1.0, -6.0, -7.0, -7.0, -7.0, -7.0, -7.0, -9.0, -9.0, -10.0, -10.0, -13.0, -13.0, -13.0, -13.0, -14.0, -20.0, -31.0, -57.0, -110.0, -202.0, -313.0, -434.0, -581.0, -622.0, -712.0, -745.0, -756.0, -759.0, -759.0]	[-490.0, -490.0, -490.0, -490.0, -490.0, -490.0, -490.0, -490.0, -490.0, -490.0, -489.0, -486.0, -476.0, -471.0, -471.0, -471.0, -471.0, -471.0, -471.0, -471.0, -471.0, -471.0, -471.0, -471.0, -471.0, -471.0, -471.0, -471.0, -470.0, -470.0, -470.0, -470.0, -470.0, -469.0, -466.0, -463.0, -461.0, -455.0, -453.0, -448.0, -447.0, -442.0, -439.0, -435.0, -430.0, -427.0, -425.0, -417.0, -415.0, -412.0, -410.0, -405.0, -389.0, -374.0, -336.0, -250.0, -132.0, -6.0, 124.0, 292.0, 341.0, 452.0, 504.0, 524.0, 528.0, 528.0]	[0.012183818849734962, 0.01673447247594595, 0.022807472036220133, 0.04217437421903014, 0.058099955320358276, 0.07422248576767743, 0.09147721820045263, 0.10782639391254634, 0.1230020661605522, 0.14450298307929188, 0.15796311490703374, 0.17611350561492145, 0.1912304685683921, 0.20811246521770954, 0.22311883617658168, 0.2431933218613267, 0.25788191170431674, 0.2759404837852344, 0.2913943425519392, 0.30867877101991326, 0.32314003293868154, 0.34216252993792295, 0.35796011111233383, 0.373654609778896, 0.3910827395739034, 0.40844191994983703, 0.4231298271333799, 0.4415502123301849, 0.4579229400260374, 0.4731754121603444, 0.49122442689258605, 0.5081350955879316, 0.5231571679469198, 0.5414171265438199, 0.5577837101882324, 0.5732631689170375, 0.5911118211224675, 0.6081310337176546, 0.6228895968524739, 0.6414413953898475, 0.6577578029828146, 0.673179917735979, 0.6910787458764389, 0.7080839638365433, 0.7231650868197903, 0.7413608748465776, 0.7579547862987965, 0.7732116958359256, 0.7911501186899841, 0.8080577154178172, 0.8228934197686613, 0.8414001623168588, 0.8577571886125952, 0.8733011592412367, 0.8910136196063831, 0.9080123521853238, 0.9228064139606431, 0.9412981377681717, 0.9575906521640718, 0.9729950175387785, 0.9909112537279725, 1.007954359636642, 1.0228323894552886, 1.0414452865952626, 1.0598957090405747, 1.0732930356170982]
38	鸡蛋	False	inanimate	animate	left	1.567	[0.0, 0.0, 0.0, 0.0, 0.0, 0.0, 0.0, 0.0, 0.0, 0.0, 0.0, 1.0, 1.0, 1.0, 1.0, 1.0, 1.0, 1.0, 1.0, 1.0, 1.0, 1.0, 1.0, 1.0, 1.0, 1.0, 1.0, 1.0, 1.0, 1.0, 1.0, 4.0, 10.0, 10.0, 10.0, 10.0, 10.0, 8.0, 8.0, 7.0, 7.0, 7.0, 6.0, 6.0, 6.0, 6.0, 6.0, 6.0, 6.0, 6.0, 4.0, -2.0, -15.0, -45.0, -100.0, -188.0, -387.0, -463.0, -674.0, -803.0, -906.0, -960.0, -960.0, -960.0, -960.0, -960.0, -960.0, -960.0, -960.0, -960.0, -960.0, -960.0, -960.0, -936.0, -867.0, -761.0, -643.0, -517.0, -392.0, -218.0, -169.0, -93.0, -51.0, -49.0, -49.0, -76.0, -150.0, -270.0, -413.0, -604.0, -656.0, -746.0, -761.0, -761.0, -761.0]	[-490.0, -490.0, -490.0, -490.0, -490.0, -490.0, -490.0, -490.0, -490.0, -490.0, -490.0, -482.0, -481.0, -481.0, -481.0, -481.0, -481.0, -481.0, -481.0, -481.0, -481.0, -481.0, -481.0, -481.0, -481.0, -481.0, -481.0, -481.0, -481.0, -481.0, -481.0, -481.0, -481.0, -481.0, -480.0, -478.0, -474.0, -470.0, -467.0, -464.0, -459.0, -455.0, -452.0, -449.0, -449.0, -448.0, -447.0, -445.0, -443.0, -442.0, -438.0, -430.0, -413.0, -377.0, -305.0, -213.0, -57.0, -4.0, 143.0, 232.0, 304.0, 369.0, 418.0, 452.0, 458.0, 458.0, 458.0, 458.0, 458.0, 458.0, 458.0, 458.0, 458.0, 442.0, 403.0, 344.0, 274.0, 204.0, 132.0, 29.0, -1.0, -52.0, -86.0, -92.0, -95.0, -102.0, -99.0, -54.0, 34.0, 216.0, 282.0, 407.0, 428.0, 429.0, 430.0]	[0.015616265125572681, 0.02102776092942804, 0.029705815250054002, 0.04801321914419532, 0.06496006913948804, 0.07965992297977209, 0.0983509854413569, 0.11723967967554927, 0.13005605712532997, 0.15003428689669818, 0.16498979926109314, 0.18255685165058821, 0.1984377180924639, 0.2199393177870661, 0.2298366141039878, 0.2494615640025586, 0.265046494663693, 0.28084509994369, 0.29820564575493336, 0.3153794822283089, 0.33027867460623384, 0.34802560950629413, 0.364773120963946, 0.3797098599607125, 0.3980083892820403, 0.41508460452314466, 0.4299916476011276, 0.44844514213036746, 0.46479636582080275, 0.4800829712767154, 0.4981135540874675, 0.5151901106582955, 0.5297251004958525, 0.5483434590278193, 0.564848282490857, 0.5801161146955565, 0.5981419188901782, 0.6149778355611488, 0.6297988626174629, 0.6482486025197431, 0.6645636447938159, 0.6801001061685383, 0.6981095263035968, 0.7150318003259599, 0.7298453180119395, 0.7482315700035542, 0.7648138761287555, 0.7800701030064374, 0.7981682698009536, 0.8149840477854013, 0.8300470800604671, 0.84825618006289, 0.864890027558431, 0.8801134864334017, 0.8979833013145253, 0.9149069406557828, 0.9298378770472482, 0.9482162782223895, 0.9644040033454075, 0.9800240913173184, 0.9980611593928188, 1.0145605215802789, 1.0302683322224766, 1.0512558842310682, 1.0644808374345303, 1.0800545040983707, 1.0983547400683165, 1.114601515699178, 1.1296495293499902, 1.148229658487253, 1.1644167009508237, 1.1800855995388702, 1.1977564172120765, 1.2148725683800876, 1.229826032766141, 1.2479074741713703, 1.2648184841964394, 1.28003579901997, 1.2978417845442891, 1.3148046772694215, 1.3302151866955683, 1.3487437745789066, 1.3645201930776238, 1.3800491451984271, 1.3991443460108712, 1.4170554622542113, 1.4297906024148688, 1.448131115641445, 1.4697187312413007, 1.4798416487174109, 1.5031140848295763, 1.5148692574584857, 1.5310146572301164, 1.5481618697522208, 1.5655418714741245]
39	海豚	True	animate	inanimate	left	0.786	[0.0, 0.0, 0.0, 0.0, 0.0, 0.0, 0.0, 0.0, 1.0, 3.0, 3.0, 3.0, 3.0, 3.0, 3.0, 3.0, 3.0, 3.0, 3.0, 3.0, 3.0, 3.0, 3.0, 3.0, 3.0, 8.0, 14.0, 14.0, 14.0, 14.0, 6.0, -28.0, -54.0, -119.0, -190.0, -211.0, -219.0, -249.0, -265.0, -283.0, -319.0, -370.0, -435.0, -539.0, -652.0, -755.0, -832.0, -838.0]	[-490.0, -490.0, -490.0, -490.0, -490.0, -490.0, -490.0, -480.0, -454.0, -443.0, -443.0, -443.0, -443.0, -443.0, -443.0, -443.0, -443.0, -443.0, -443.0, -443.0, -443.0, -443.0, -443.0, -443.0, -443.0, -443.0, -447.0, -447.0, -447.0, -446.0, -436.0, -388.0, -355.0, -272.0, -186.0, -144.0, -124.0, -38.0, 14.0, 59.0, 125.0, 192.0, 258.0, 337.0, 412.0, 485.0, 537.0, 539.0]	[0.009243916254490614, 0.013678516610525548, 0.019348743138834834, 0.03585732134524733, 0.05237818753812462, 0.06751733704004437, 0.08566090115346014, 0.10251149523537606, 0.11713830369990319, 0.13594439544249326, 0.1522365683922544, 0.16757164325099438, 0.18556979927234352, 0.20246579067315906, 0.2172165031079203, 0.23577990697231144, 0.2523536797380075, 0.267534130718559, 0.28546265489421785, 0.3024282781407237, 0.31714041996747255, 0.3357867677696049, 0.3520625567762181, 0.3674689701292664, 0.3854626889806241, 0.4025965895270929, 0.4172036007512361, 0.43443990126252174, 0.4515874551143497, 0.4675379536347464, 0.4856746910372749, 0.5022802078165114, 0.5176255226833746, 0.5355390281183645, 0.5524565235245973, 0.5673666384536773, 0.5858156956965104, 0.6022829726571217, 0.6176883620209992, 0.6354868382913992, 0.6524080883245915, 0.6671652860241011, 0.6855419806670398, 0.7019041269086301, 0.7176337828859687, 0.7354684404563159, 0.7525497756432742, 0.7674342907266691]
40	鲨鱼	True	animate	inanimate	left	0.749	[0.0, 0.0, 0.0, 0.0, 0.0, 0.0, -1.0, -4.0, -9.0, -11.0, -11.0, -11.0, -11.0, -11.0, -11.0, -11.0, -11.0, -11.0, -11.0, -11.0, -11.0, -11.0, -11.0, -11.0, -11.0, -9.0, -8.0, -8.0, -8.0, -7.0, -13.0, -30.0, -63.0, -94.0, -128.0, -171.0, -211.0, -291.0, -365.0, -409.0, -547.0, -640.0, -712.0, -756.0, -768.0, -768.0]	[-490.0, -490.0, -490.0, -490.0, -490.0, -490.0, -490.0, -490.0, -484.0, -479.0, -478.0, -478.0, -478.0, -478.0, -478.0, -478.0, -478.0, -478.0, -478.0, -478.0, -478.0, -478.0, -478.0, -478.0, -478.0, -478.0, -478.0, -478.0, -478.0, -476.0, -468.0, -455.0, -432.0, -415.0, -388.0, -353.0, -302.0, -178.0, -73.0, -20.0, 150.0, 255.0, 343.0, 406.0, 425.0, 426.0]	[0.014891956117935479, 0.02123836346436292, 0.02826197596732527, 0.048927309340797365, 0.06363740318920463, 0.07886871264781803, 0.09685970074497163, 0.11379562807269394, 0.12846407922916114, 0.14711657108273357, 0.1635841892566532, 0.17895612807478756, 0.19669418828561902, 0.21365093695931137, 0.22867812926415354, 0.24697836523409933, 0.263355188886635, 0.27887287689372897, 0.2968372410396114, 0.31378204305656254, 0.3286890861345455, 0.346974644693546, 0.36339106294326484, 0.3789609749801457, 0.39683966455049813, 0.41371176252141595, 0.4286836589453742, 0.4469808228313923, 0.4635986277135089, 0.47893745719920844, 0.49670657876413316, 0.513705994002521, 0.5284263278590515, 0.5469136143801734, 0.5635529231512919, 0.5789019926451147, 0.5967895567882806, 0.613681452232413, 0.6286769005237147, 0.6469945444259793, 0.6634242746513337, 0.6788883734261617, 0.6965032124426216, 0.7136613476322964, 0.7287264278857037, 0.7468648719368502]
41	桥梁	False	inanimate	animate	left	0.861	[0.0, 0.0, 0.0, 0.0, 0.0, 0.0, 0.0, 0.0, 0.0, 0.0, 0.0, 0.0, 0.0, -2.0, -5.0, -7.0, -13.0, -19.0, -27.0, -40.0, -57.0, -72.0, -99.0, -130.0, -170.0, -206.0, -243.0, -277.0, -309.0, -315.0, -320.0, -323.0, -325.0, -326.0, -329.0, -329.0, -329.0, -329.0, -330.0, -330.0, -330.0, -334.0, -347.0, -377.0, -432.0, -511.0, -599.0, -687.0, -761.0, -807.0, -823.0, -824.0]	[-490.0, -490.0, -490.0, -490.0, -490.0, -490.0, -490.0, -490.0, -490.0, -489.0, -489.0, -488.0, -487.0, -485.0, -483.0, -482.0, -478.0, -472.0, -465.0, -455.0, -442.0, -420.0, -383.0, -341.0, -286.0, -230.0, -168.0, -119.0, -70.0, -53.0, -41.0, -30.0, -17.0, -8.0, 4.0, 10.0, 15.0, 16.0, 19.0, 23.0, 37.0, 52.0, 75.0, 118.0, 183.0, 255.0, 328.0, 395.0, 455.0, 496.0, 510.0, 510.0]	[0.008768439176492393, 0.013604788691736758, 0.018443186301738024, 0.03485960455145687, 0.051213900092989206, 0.06665444688405842, 0.08457034174352884, 0.10144687711726874, 0.11641399480868131, 0.13482925994321704, 0.15103712363634259, 0.16661864100024104, 0.18454204523004591, 0.20136635657399893, 0.21639798628166318, 0.2347780941054225, 0.25119314703624696, 0.26661048317328095, 0.28468748729210347, 0.3014578679576516, 0.3163109803572297, 0.33467743499204516, 0.3510122746229172, 0.36659208533819765, 0.38455713214352727, 0.4013206862146035, 0.4164181931409985, 0.43472013575956225, 0.45115498604718596, 0.4669679272919893, 0.4845110862515867, 0.5013196963118389, 0.5164151552598923, 0.5347027619136497, 0.5509659216040745, 0.566610585548915, 0.5845411577029154, 0.6013842424144968, 0.6164039254654199, 0.6347673080163077, 0.6511550543364137, 0.6665928703732789, 0.6844531279057264, 0.701324884663336, 0.7163759702816606, 0.734867011429742, 0.7508816805202514, 0.7666263551218435, 0.7844890020787716, 0.8014088866766542, 0.8161585751222447, 0.8345861283596605]
42	公路	False	animate	inanimate	right	1.308	[0.0, 0.0, 0.0, 0.0, 0.0, 0.0, 0.0, 0.0, -2.0, -2.0, -5.0, -5.0, -5.0, -5.0, -5.0, -5.0, -5.0, -5.0, -5.0, -5.0, -5.0, -5.0, -5.0, -5.0, -5.0, -5.0, -5.0, -5.0, -5.0, -4.0, -2.0, -2.0, 0.0, 5.0, 5.0, 5.0, 1.0, -16.0, -28.0, -36.0, -55.0, -61.0, -65.0, -68.0, -69.0, -69.0, -63.0, -52.0, -7.0, 64.0, 249.0, 329.0, 595.0, 752.0, 859.0, 904.0, 911.0, 911.0, 911.0, 911.0, 911.0, 911.0, 911.0, 911.0, 911.0, 911.0, 909.0, 857.0, 794.0, 747.0, 691.0, 681.0, 677.0, 676.0, 691.0, 694.0, 706.0, 708.0, 709.0]	[-490.0, -490.0, -490.0, -490.0, -490.0, -490.0, -490.0, -490.0, -486.0, -481.0, -477.0, -477.0, -477.0, -477.0, -477.0, -477.0, -477.0, -477.0, -477.0, -477.0, -477.0, -477.0, -477.0, -477.0, -477.0, -477.0, -477.0, -477.0, -477.0, -476.0, -476.0, -476.0, -475.0, -475.0, -472.0, -471.0, -467.0, -453.0, -443.0, -438.0, -425.0, -420.0, -416.0, -412.0, -406.0, -395.0, -355.0, -331.0, -256.0, -166.0, -1.0, 51.0, 175.0, 252.0, 294.0, 306.0, 306.0, 306.0, 306.0, 306.0, 306.0, 306.0, 306.0, 306.0, 306.0, 306.0, 306.0, 276.0, 248.0, 221.0, 197.0, 197.0, 197.0, 209.0, 284.0, 312.0, 386.0, 404.0, 405.0]	[0.00019927031826227903, 0.00483969459310174, 0.01554560917429626, 0.034184106276370585, 0.050546252517960966, 0.06601683667395264, 0.08386787818744779, 0.10071437619626522, 0.11551867797970772, 0.13398411916568875, 0.15065141732338816, 0.16601755341980606, 0.18391535757109523, 0.20089053828269243, 0.21573784796055406, 0.23405992926564068, 0.2505538301775232, 0.2659486383199692, 0.2837283411063254, 0.3007004498504102, 0.3158003460848704, 0.33403163275215775, 0.3505794642260298, 0.36599509371444583, 0.38385227927938104, 0.40087422251235694, 0.41577239090111107, 0.43403405614662915, 0.4505508263828233, 0.4660060504684225, 0.4839454973116517, 0.5009257979691029, 0.5155563611770049, 0.5339951784117147, 0.5506095698801801, 0.5660903939278796, 0.5839038888225332, 0.6007374161854386, 0.6157379845390096, 0.6340429991250858, 0.650578542612493, 0.6660156761063263, 0.683855794952251, 0.7009668261744082, 0.7154591494472697, 0.7340218706522137, 0.7505031421314925, 0.7659273049794137, 0.7836609279038385, 0.8006081192288548, 0.8154612316284329, 0.8338788861874491, 0.850451976293698, 0.8659461124334484, 0.88381763396319, 0.9008419665042311, 0.9157346736174077, 0.9340192081872374, 0.9503970558289438, 0.9660007598577067, 0.9839224573224783, 1.0008768166881055, 1.015591689152643, 1.0340270929737017, 1.0506326098693535, 1.0661287938710302, 1.083842619555071, 1.1007068668259308, 1.1154719153419137, 1.1337748819496483, 1.150453102774918, 1.1659325615037233, 1.1839013629360124, 1.2007328423205763, 1.2157890480011702, 1.2340261372737586, 1.2501875796588138, 1.2659698008792475, 1.2838269864441827]
43	面包	False	animate	inanimate	right	0.866	[0.0, 0.0, 0.0, 0.0, 0.0, 0.0, 0.0, 0.0, 3.0, 4.0, 4.0, 4.0, 4.0, 4.0, 4.0, 4.0, 4.0, 4.0, 4.0, 4.0, 4.0, 4.0, 4.0, 5.0, 5.0, 5.0, 6.0, 12.0, 13.0, 13.0, 13.0, 12.0, 4.0, -5.0, -27.0, -61.0, -104.0, -167.0, -226.0, -277.0, -314.0, -335.0, -336.0, -301.0, -230.0, -110.0, 66.0, 277.0, 499.0, 684.0, 809.0, 871.0, 886.0]	[-490.0, -490.0, -490.0, -490.0, -490.0, -490.0, -490.0, -487.0, -464.0, -454.0, -454.0, -454.0, -454.0, -454.0, -454.0, -454.0, -454.0, -454.0, -454.0, -454.0, -454.0, -454.0, -454.0, -454.0, -454.0, -454.0, -456.0, -458.0, -458.0, -458.0, -458.0, -453.0, -443.0, -432.0, -414.0, -380.0, -324.0, -237.0, -150.0, -79.0, -15.0, 33.0, 65.0, 123.0, 173.0, 220.0, 269.0, 312.0, 349.0, 396.0, 431.0, 450.0, 453.0]	[0.014048180542886257, 0.0184698102530092, 0.02664508076850325, 0.04489241004921496, 0.06181604939047247, 0.07675415382254869, 0.09506974974647164, 0.11157184257172048, 0.12691681610886008, 0.14495593216270208, 0.161782291601412, 0.17672483331989497, 0.1950537412194535, 0.21159030869603157, 0.22704450879245996, 0.2449470916762948, 0.26178164302837104, 0.27671974746044725, 0.29496810073032975, 0.31142752699088305, 0.32701587094925344, 0.3449508805060759, 0.3618123971391469, 0.3767450401792303, 0.39514426281675696, 0.41143336379900575, 0.4269565131980926, 0.44499767723027617, 0.4617585006635636, 0.47677818359807134, 0.4950589636573568, 0.5114146246341988, 0.526916611357592, 0.544778234208934, 0.5618384067201987, 0.5767529591685161, 0.5950661657843739, 0.6114023707341403, 0.6268681761575863, 0.6448424389818683, 0.6617421848932281, 0.6765263479901478, 0.694774360046722, 0.7114699888043106, 0.727009863476269, 0.7445721372496337, 0.7616565444041044, 0.7767182113602757, 0.7951611246680841, 0.8112409884342924, 0.826991124311462, 0.8449370565358549, 0.8618347544688731]
44	钉子	False	animate	inanimate	right	1.552	[0.0, 0.0, 0.0, 0.0, 0.0, 0.0, 0.0, 0.0, 0.0, 0.0, 0.0, 0.0, 0.0, 0.0, 0.0, 0.0, 0.0, 0.0, 0.0, 0.0, 0.0, 0.0, 0.0, 0.0, 0.0, 0.0, 0.0, 2.0, 2.0, 2.0, 1.0, 0.0, -3.0, -3.0, -2.0, -9.0, -26.0, -49.0, -78.0, -132.0, -202.0, -253.0, -253.0, -240.0, -180.0, -78.0, 168.0, 378.0, 569.0, 728.0, 849.0, 901.0, 905.0, 905.0, 905.0, 905.0, 905.0, 905.0, 905.0, 905.0, 905.0, 905.0, 886.0, 782.0, 696.0, 651.0, 626.0, 617.0, 615.0, 612.0, 603.0, 598.0, 597.0, 601.0, 610.0, 612.0, 612.0, 612.0, 612.0, 613.0, 616.0, 618.0, 621.0, 622.0, 627.0, 631.0, 633.0, 637.0, 646.0, 667.0, 697.0, 727.0, 743.0, 745.0]	[-490.0, -490.0, -490.0, -490.0, -490.0, -490.0, -490.0, -490.0, -490.0, -490.0, -490.0, -490.0, -490.0, -490.0, -490.0, -490.0, -490.0, -490.0, -490.0, -490.0, -490.0, -490.0, -490.0, -490.0, -490.0, -490.0, -490.0, -492.0, -492.0, -492.0, -492.0, -492.0, -490.0, -489.0, -485.0, -476.0, -464.0, -444.0, -420.0, -361.0, -287.0, -198.0, -170.0, -109.0, -32.0, 33.0, 137.0, 196.0, 241.0, 283.0, 317.0, 331.0, 332.0, 332.0, 332.0, 332.0, 332.0, 332.0, 332.0, 332.0, 332.0, 332.0, 324.0, 271.0, 233.0, 229.0, 232.0, 240.0, 244.0, 249.0, 267.0, 289.0, 327.0, 361.0, 372.0, 374.0, 374.0, 374.0, 374.0, 374.0, 372.0, 370.0, 369.0, 369.0, 367.0, 367.0, 367.0, 367.0, 368.0, 380.0, 394.0, 407.0, 417.0, 418.0]	[0.015094366623088717, 0.019690417568199337, 0.028692738385871053, 0.046714105061255395, 0.0637869070051238, 0.07877075008582324, 0.09694025537464768, 0.11352699890267104, 0.12906789756380022, 0.14692405913956463, 0.16389753308612853, 0.1785478936508298, 0.19689694023691118, 0.21349767840001732, 0.2290389183908701, 0.24692716530989856, 0.26380199391860515, 0.2787940289126709, 0.2969980089692399, 0.3136065978324041, 0.3290826432639733, 0.34699512470979244, 0.36383035872131586, 0.37882034573704004, 0.3970137444557622, 0.41360048798378557, 0.42904615472070873, 0.44689958554226905, 0.46382527286186814, 0.47881287056952715, 0.49724520242307335, 0.513584820786491, 0.5289571008179337, 0.5469463823828846, 0.5637095951242372, 0.5788040299667045, 0.597041460685432, 0.6135766628431156, 0.6291424789233133, 0.6466999739641324, 0.663846162497066, 0.6787965547991917, 0.6969619641313329, 0.7135060410946608, 0.7289616065099835, 0.7468000187072903, 0.763655050075613, 0.7787744023371488, 0.7970159290125594, 0.8133644219487906, 0.8291527872206643, 0.8469410233665258, 0.8637970787240192, 0.8788201750721782, 0.8970132324611768, 0.9135743759106845, 0.9289790827315301, 0.9470038628205657, 0.9638100835727528, 0.9787662785965949, 0.9971259065205231, 1.0135655354242772, 1.0289900394855067, 1.0465799611993134, 1.063649691059254, 1.07877518737223, 1.0969443514477462, 1.113281921716407, 1.1291689322097227, 1.1465922832721844, 1.1637620239052922, 1.178780682850629, 1.1969788601854816, 1.2136075876187533, 1.229143025004305, 1.246797458617948, 1.2636934500187635, 1.2787520450074226, 1.2969143823720515, 1.3134785979054868, 1.3290259819477797, 1.3467701860936359, 1.3636815374484286, 1.3784974445588887, 1.3969581071287394, 1.4133226427948102, 1.4290720960125327, 1.4465541563695297, 1.4637044409755617, 1.4787159318802878, 1.497028797166422, 1.5134264421649277, 1.5289932822342962, 1.546777081093751]
45	蚯蚓	True	animate	inanimate	left	0.832	[0.0, 0.0, 0.0, 0.0, 0.0, 0.0, -1.0, -2.0, -4.0, -4.0, -4.0, -4.0, -4.0, -4.0, -4.0, -4.0, -4.0, -4.0, -4.0, -4.0, -4.0, -4.0, -4.0, -4.0, -2.0, 1.0, 8.0, 14.0, 16.0, 16.0, 16.0, 15.0, 11.0, 10.0, 8.0, 8.0, 7.0, 5.0, 0.0, -12.0, -34.0, -81.0, -165.0, -272.0, -465.0, -529.0, -701.0, -796.0, -849.0, -871.0, -871.0]	[-490.0, -490.0, -490.0, -490.0, -490.0, -490.0, -490.0, -477.0, -452.0, -443.0, -443.0, -443.0, -443.0, -443.0, -443.0, -443.0, -443.0, -443.0, -443.0, -443.0, -443.0, -443.0, -445.0, -445.0, -445.0, -445.0, -445.0, -445.0, -444.0, -444.0, -442.0, -440.0, -436.0, -434.0, -430.0, -428.0, -424.0, -418.0, -408.0, -389.0, -349.0, -274.0, -169.0, -53.0, 129.0, 184.0, 349.0, 454.0, 533.0, 540.0, 540.0]	[0.014645172166638076, 0.021543515380471945, 0.028081069351173937, 0.04683186509646475, 0.06311584601644427, 0.07856185419950634, 0.09647672495339066, 0.11338329769205302, 0.12834154069423676, 0.1466707899235189, 0.1632889361353591, 0.17868852289393544, 0.19653615111019462, 0.2133911824785173, 0.22832143609412014, 0.24666843470185995, 0.26322650630027056, 0.27863121300470084, 0.29647611058317125, 0.3133594725513831, 0.3284088515210897, 0.3466954341856763, 0.36320947378408164, 0.3785892631858587, 0.3965218833182007, 0.4134728293865919, 0.428127285791561, 0.44657122308854014, 0.4631811772705987, 0.4786012440454215, 0.49651031219400465, 0.5133957221405581, 0.5283577198861167, 0.5466105105588213, 0.5632044220110402, 0.5785057048778981, 0.5965048850048333, 0.613378006964922, 0.628058746107854, 0.6465497873723507, 0.6631576934596524, 0.6786518295994028, 0.6964247057912871, 0.7133329851785675, 0.7283458415186033, 0.7465682534966618, 0.7630577170057222, 0.7785614103777334, 0.7965455718804151, 0.8134477072162554, 0.8283561156131327]
