trialIndex	stimulus	left_option	right_option	response	response_time	xTrajectory	yTrajectory	tTrajectory
0	inanimate/n60.jpg	inanimate	animate	left	1.173	[0.0, 0.0, 0.0, 0.0, 0.0, -2.0, -2.0, -3.0, -4.0, -4.0, -4.0, -4.0, -4.0, -4.0, -4.0, -5.0, -6.0, -6.0, -6.0, -7.0, -7.0, -7.0, -7.0, -7.0, -7.0, -7.0, -7.0, -8.0, -8.0, -8.0, -8.0, -8.0, -8.0, -8.0, -8.0, -8.0, -8.0, -8.0, -8.0, -8.0, -8.0, -8.0, -8.0, -8.0, -8.0, -8.0, -8.0, -11.0, -17.0, -25.0, -44.0, -76.0, -128.0, -223.0, -299.0, -386.0, -477.0, -574.0, -664.0, -737.0, -793.0, -823.0, -842.0, -860.0, -862.0, -867.0, -867.0, -867.0, -867.0, -867.0, -867.0]	[-490.0, -490.0, -490.0, -490.0, -490.0, -488.0, -488.0, -488.0, -487.0, -487.0, -487.0, -487.0, -487.0, -487.0, -487.0, -487.0, -485.0, -485.0, -485.0, -485.0, -485.0, -485.0, -485.0, -485.0, -485.0, -485.0, -485.0, -484.0, -484.0, -484.0, -484.0, -484.0, -484.0, -484.0, -484.0, -484.0, -484.0, -484.0, -484.0, -484.0, -484.0, -484.0, -484.0, -484.0, -484.0, -484.0, -484.0, -484.0, -482.0, -471.0, -447.0, -408.0, -341.0, -225.0, -139.0, -53.0, 39.0, 140.0, 233.0, 300.0, 348.0, 375.0, 391.0, 417.0, 422.0, 432.0, 436.0, 437.0, 437.0, 437.0, 437.0]	[0.013604891180875711, 0.01920616830466315, 0.024407744320342317, 0.04083986389741767, 0.05812975371372886, 0.0743065560964169, 0.0914319233270362, 0.10764354169077706, 0.12468903696571942, 0.14136828176560812, 0.15800042258342728, 0.17444790215813555, 0.19137939215579536, 0.20804088762088213, 0.22463514046103228, 0.24126591594540514, 0.2580335660313722, 0.2744250669638859, 0.291340172974742, 0.3079927937797038, 0.32460923327016644, 0.3412543447484495, 0.35799298151687253, 0.3743779971264303, 0.3913552257727133, 0.4075955161242746, 0.4247321473521879, 0.44132776551123243, 0.4579288450186141, 0.4742838233069051, 0.4914009985513985, 0.5076716675539501, 0.524768362796749, 0.5410154798155418, 0.5581309483823134, 0.5743760173936607, 0.5914607659797184, 0.6078290562727489, 0.6249107328621903, 0.6411977858515456, 0.6580630572134396, 0.6743828781909542, 0.6914174507983262, 0.7078809730446665, 0.7248162176983897, 0.7410844973783242, 0.758207816601498, 0.7745232002489502, 0.7914628822472878, 0.8077926018886501, 0.8247568598744692, 0.8409026009321678, 0.858065173481009, 0.8745099223888246, 0.8914110337354941, 0.9078793346416205, 0.9247299286798807, 0.9410582829877967, 0.958025612970232, 0.9745277058536885, 0.9914103852061089, 1.0078285101335496, 1.0248156374436803, 1.041218402373488, 1.058083673735382, 1.0742877827724442, 1.091429534004419, 1.1078005549497902, 1.1246992769592907, 1.1411348098772578, 1.1580970198701834]
1	animate/a26.jpg	inanimate	animate	right	1.436	[0.0, 0.0, 0.0, 0.0, 0.0, 0.0, 0.0, 0.0, 0.0, 0.0, 0.0, 0.0, 0.0, 0.0, 0.0, 0.0, 0.0, 0.0, 0.0, 0.0, 0.0, 0.0, 0.0, 0.0, 0.0, 0.0, 0.0, 0.0, 0.0, 0.0, 0.0, 0.0, 0.0, 0.0, 0.0, 0.0, 0.0, 0.0, 0.0, 0.0, 0.0, 0.0, 0.0, 0.0, 0.0, 0.0, 20.0, 36.0, 43.0, 43.0, 26.0, -14.0, -102.0, -216.0, -358.0, -509.0, -654.0, -774.0, -838.0, -856.0, -856.0, -851.0, -825.0, -786.0, -723.0, -631.0, -515.0, -331.0, -83.0, 177.0, 406.0, 563.0, 660.0, 755.0, 792.0, 808.0, 812.0, 812.0, 812.0, 812.0, 812.0, 812.0, 812.0, 814.0, 814.0, 814.0, 814.0]	[-490.0, -490.0, -490.0, -490.0, -490.0, -490.0, -490.0, -490.0, -490.0, -490.0, -490.0, -490.0, -490.0, -490.0, -490.0, -490.0, -490.0, -490.0, -490.0, -490.0, -490.0, -490.0, -490.0, -490.0, -490.0, -490.0, -490.0, -490.0, -490.0, -490.0, -490.0, -490.0, -490.0, -490.0, -490.0, -490.0, -490.0, -490.0, -490.0, -490.0, -490.0, -490.0, -490.0, -490.0, -490.0, -490.0, -470.0, -453.0, -432.0, -415.0, -389.0, -367.0, -333.0, -277.0, -198.0, -89.0, 36.0, 158.0, 233.0, 261.0, 275.0, 285.0, 293.0, 300.0, 310.0, 321.0, 337.0, 364.0, 396.0, 417.0, 417.0, 417.0, 417.0, 417.0, 417.0, 417.0, 417.0, 417.0, 417.0, 417.0, 417.0, 417.0, 417.0, 417.0, 417.0, 417.0, 417.0]	[0.006423924176488072, 0.014167066881782375, 0.018944024428492412, 0.027790014573838562, 0.044284939460339956, 0.0613010800734628, 0.07748812244972214, 0.09486163889232557, 0.11162314498506021, 0.12807130721921567, 0.14434368289948907, 0.16148338612401858, 0.17813600692898035, 0.1945490118523594, 0.2108548381802393, 0.22822562394139823, 0.24436487967614084, 0.26150936157500837, 0.2777035719482228, 0.2948347418423509, 0.31103168288245797, 0.32811438347562216, 0.34437993247411214, 0.3614506863959832, 0.3777206727390876, 0.39473271736642346, 0.41103751967602875, 0.4280963269411586, 0.444363923947094, 0.4614111258852063, 0.4777159282093635, 0.4948235461197328, 0.5112996976822615, 0.5282704409910366, 0.5445428166567581, 0.561562029281049, 0.5778958449081983, 0.5948857028852217, 0.611293587819091, 0.6281882138282526, 0.6443380509008421, 0.6614466928003822, 0.6778695963876089, 0.6947939184028655, 0.7112157979863696, 0.7280851653486025, 0.7443036103795748, 0.7614631109317997, 0.7779242438264191, 0.7948509551642928, 0.8110615495388629, 0.8281674607715104, 0.84462347367662, 0.8614614383986918, 0.87763653411821, 0.8947345946944552, 0.9111237063043518, 0.9282371268782299, 0.9445682118384866, 0.961462155188201, 0.9778676507994533, 0.9949124634003965, 1.011303281673463, 1.0281791343732039, 1.0446334406151436, 1.0614826693199575, 1.077855055598775, 1.0947981509234523, 1.1111353798914934, 1.1281255791982403, 1.1445471174520208, 1.1614837274537422, 1.1779373510216828, 1.1948053530504694, 1.2111692060134374, 1.2281372186553199, 1.2445857222337509, 1.261534620221937, 1.277791294574854, 1.2948053871950833, 1.3112426267762203, 1.3281696794438176, 1.344575175040518, 1.361585513004684, 1.3778988486446906, 1.394792791994405, 1.411248463569791]
2	animate/a44.jpg	animate	inanimate	left	1.181	[0.0, 0.0, 0.0, 0.0, 0.0, 0.0, 0.0, 0.0, 0.0, 0.0, 0.0, 0.0, 0.0, 0.0, 0.0, 0.0, 0.0, 0.0, 0.0, 0.0, 0.0, 0.0, 0.0, 0.0, 0.0, 0.0, 0.0, 0.0, 0.0, 0.0, 0.0, 0.0, 0.0, 0.0, 0.0, 0.0, 0.0, 0.0, 0.0, 0.0, 0.0, 0.0, 0.0, -3.0, -22.0, -77.0, -128.0, -158.0, -166.0, -151.0, -92.0, -8.0, 95.0, 199.0, 283.0, 327.0, 342.0, 342.0, 252.0, 63.0, -201.0, -460.0, -652.0, -788.0, -869.0, -897.0, -909.0, -910.0, -910.0, -910.0, -910.0]	[-490.0, -490.0, -490.0, -490.0, -490.0, -490.0, -490.0, -491.0, -491.0, -491.0, -491.0, -491.0, -491.0, -491.0, -491.0, -491.0, -491.0, -491.0, -491.0, -491.0, -491.0, -491.0, -491.0, -491.0, -491.0, -491.0, -491.0, -491.0, -491.0, -491.0, -491.0, -491.0, -491.0, -491.0, -491.0, -491.0, -491.0, -491.0, -491.0, -491.0, -491.0, -491.0, -491.0, -479.0, -441.0, -321.0, -212.0, -122.0, -34.0, 66.0, 151.0, 214.0, 260.0, 298.0, 322.0, 329.0, 335.0, 335.0, 349.0, 351.0, 351.0, 379.0, 411.0, 442.0, 462.0, 474.0, 481.0, 482.0, 482.0, 482.0, 482.0]	[0.009409223988768645, 0.014819013216765597, 0.01991102127067279, 0.03414768599031959, 0.05040265366551466, 0.06753314088564366, 0.08414753238321282, 0.1008107345260214, 0.11722920078318566, 0.13414396544976626, 0.15079112493549474, 0.16740688175195828, 0.18367072410183027, 0.200886885941145, 0.21773099465644918, 0.23391325837292243, 0.2503498152946122, 0.26760181711870246, 0.28371035287273116, 0.3007080615061568, 0.3174197329499293, 0.33417953236494213, 0.3503802280756645, 0.3675301712937653, 0.3837844563095132, 0.40087398355535697, 0.41712485523021314, 0.4341638651821995, 0.4504376061813673, 0.4675530747481389, 0.48380223975982517, 0.5008944976725616, 0.5171320573572302, 0.5340543313650414, 0.5505065896140877, 0.5676019195234403, 0.5839504124887753, 0.6008429905050434, 0.6170628008694621, 0.6340649468329502, 0.6508356689009815, 0.6675705509987893, 0.6839661479461938, 0.700854629962123, 0.7174966694437899, 0.7342346235382138, 0.7506083751504775, 0.7675565904792165, 0.7839962193975225, 0.8008990374073619, 0.8172485543764196, 0.8342227110115346, 0.8504473000357393, 0.8674494459992275, 0.8837269416690106, 0.9008195409114705, 0.9172451751655899, 0.9342476624733536, 0.9506203900818946, 0.9675559760798933, 0.9839870716677979, 1.0009325563296443, 1.017224046649062, 1.03421356328181, 1.05071429083182, 1.0674884262407431, 1.0836778579541715, 1.1007359825598542, 1.1172783527581487, 1.1341815120977117, 1.1506139730190625]
3	animate/a1.jpg	animate	inanimate	left	1.522	[0.0, 0.0, 0.0, 0.0, 0.0, 0.0, 0.0, 0.0, 0.0, 0.0, 0.0, 0.0, 0.0, 0.0, 0.0, 0.0, 0.0, 0.0, 1.0, 1.0, 1.0, 1.0, 1.0, 1.0, 1.0, 1.0, 1.0, 1.0, 1.0, 1.0, 1.0, 1.0, 1.0, 1.0, 1.0, 1.0, 1.0, 1.0, 1.0, 1.0, 6.0, 13.0, 23.0, 50.0, 77.0, 95.0, 99.0, 91.0, 57.0, -36.0, -164.0, -316.0, -487.0, -667.0, -888.0, -960.0, -960.0, -960.0, -960.0, -960.0, -960.0, -960.0, -960.0, -960.0, -960.0, -960.0, -960.0, -952.0, -937.0, -918.0, -894.0, -861.0, -816.0, -756.0, -685.0, -595.0, -529.0, -478.0, -430.0, -419.0, -417.0, -419.0, -439.0, -493.0, -569.0, -670.0, -764.0, -812.0, -827.0, -827.0, -827.0, -827.0]	[-490.0, -490.0, -490.0, -490.0, -490.0, -490.0, -490.0, -490.0, -490.0, -490.0, -490.0, -490.0, -490.0, -490.0, -490.0, -490.0, -490.0, -490.0, -490.0, -490.0, -490.0, -490.0, -490.0, -490.0, -490.0, -490.0, -490.0, -490.0, -490.0, -490.0, -490.0, -490.0, -490.0, -490.0, -490.0, -490.0, -490.0, -490.0, -490.0, -490.0, -486.0, -478.0, -461.0, -397.0, -323.0, -282.0, -266.0, -251.0, -231.0, -200.0, -152.0, -77.0, 22.0, 134.0, 277.0, 349.0, 401.0, 423.0, 430.0, 434.0, 434.0, 434.0, 434.0, 434.0, 434.0, 434.0, 434.0, 434.0, 429.0, 424.0, 412.0, 392.0, 361.0, 316.0, 266.0, 202.0, 152.0, 108.0, 40.0, 14.0, 9.0, 9.0, 38.0, 122.0, 261.0, 402.0, 475.0, 495.0, 502.0, 502.0, 502.0, 502.0]	[0.013008923473535106, 0.020885186109808274, 0.026835647062398493, 0.040278370841406286, 0.0573996420862386, 0.07361364978714846, 0.09055367310065776, 0.10736364849435631, 0.12406712795200292, 0.14062281014048494, 0.15708428437937982, 0.17418644095596392, 0.19042331796663348, 0.2075739438587334, 0.22391697549028322, 0.2407883908599615, 0.25721709711069707, 0.274146880445187, 0.290524386728066, 0.30749820203345735, 0.3238992603000952, 0.34090618492336944, 0.3573342085146578, 0.37413394391478505, 0.3905179355206201, 0.4074320175277535, 0.42368084120971616, 0.4407191684877034, 0.457170402733027, 0.47414626604586374, 0.4905224069952965, 0.5075228462810628, 0.5238706565869506, 0.5408376452251105, 0.556992260957486, 0.5739715375966625, 0.5905197104584659, 0.6074634884425905, 0.6238778587139677, 0.6408496260264656, 0.6573093935876386, 0.6741715929674683, 0.6905098459246801, 0.7075037999020424, 0.7235973169881618, 0.7407711535342969, 0.7569332785933511, 0.7742023470782442, 0.7905436720466241, 0.8074557060463121, 0.8236314844398294, 0.840704969028593, 0.8571917019289685, 0.8741020292654866, 0.8906205061357468, 0.9074390148598468, 0.9236045532452408, 0.9408196911099367, 0.9570203868061071, 0.9740597380878171, 0.9902853511157446, 1.007367027705186, 1.0238971099024639, 1.0408955011953367, 1.0572419461677782, 1.0741055108665023, 1.0905557211081032, 1.1074640004517278, 1.1239073840260971, 1.1408402393572032, 1.1569607217679732, 1.1742171609366778, 1.1905281072540674, 1.2074821252463153, 1.2239009328332031, 1.2407935108494712, 1.2572406490944559, 1.2740816858131438, 1.2905516933678882, 1.3074155994108878, 1.323896188303479, 1.3407618009950966, 1.3569860486895777, 1.3741093679273035, 1.3905708421661984, 1.407452497514896, 1.423947763745673, 1.4407949444430415, 1.4572454960289178, 1.4741449007124174, 1.4904732550203335, 1.5074842756439466]
4	inanimate/n44.jpg	animate	inanimate	right	0.858	[0.0, 0.0, 0.0, 0.0, 0.0, 0.0, 0.0, 0.0, 0.0, 0.0, 0.0, 0.0, 0.0, 0.0, 0.0, 0.0, 0.0, 0.0, 0.0, 0.0, 0.0, 0.0, 0.0, 0.0, 0.0, 0.0, 0.0, 0.0, 0.0, 0.0, 0.0, 0.0, 0.0, 0.0, 0.0, 16.0, 60.0, 85.0, 107.0, 147.0, 187.0, 224.0, 275.0, 357.0, 481.0, 626.0, 759.0, 844.0, 886.0, 910.0, 915.0, 915.0]	[-490.0, -490.0, -490.0, -490.0, -490.0, -490.0, -490.0, -490.0, -490.0, -490.0, -490.0, -490.0, -490.0, -490.0, -490.0, -490.0, -490.0, -490.0, -490.0, -490.0, -490.0, -490.0, -490.0, -490.0, -490.0, -490.0, -490.0, -490.0, -490.0, -490.0, -490.0, -490.0, -490.0, -490.0, -490.0, -472.0, -434.0, -393.0, -344.0, -214.0, -115.0, -24.0, 69.0, 161.0, 251.0, 335.0, 399.0, 447.0, 471.0, 484.0, 488.0, 488.0]	[0.014097093589953147, 0.019019117738935165, 0.02478116277779918, 0.041752930090297014, 0.058788526701391675, 0.07482299316325225, 0.09196269638778176, 0.10824770138424356, 0.12536214594729245, 0.14172975356632378, 0.15869503555586562, 0.17481483529263642, 0.19203884781745728, 0.20847608739859425, 0.22541133205231745, 0.24187212363176513, 0.25876538432203233, 0.2748530987446429, 0.2919538899877807, 0.308403758899658, 0.3253714302118169, 0.34175337382475846, 0.3600058231531875, 0.3751060607464751, 0.39208021739614196, 0.40833074774127454, 0.425389896336128, 0.44178276261663996, 0.4587688659084961, 0.4749002709868364, 0.49194440092833247, 0.5084273791580927, 0.5253435091581196, 0.5417565140960505, 0.5586951720906654, 0.5750815530336695, 0.5921069096511928, 0.6084455039526802, 0.6254555005725706, 0.6417678122234065, 0.6587153448781464, 0.675103773814044, 0.6920161491580075, 0.7081147862481885, 0.7252998867770657, 0.7417753556801472, 0.7587488296558149, 0.7751048319478286, 0.7920247166184708, 0.8084643455367768, 0.8254122195212403, 0.8417709524801467]
5	inanimate/n4.jpg	inanimate	animate	left	1.001	[0.0, 0.0, 0.0, 0.0, 0.0, 0.0, 0.0, 0.0, 0.0, 0.0, 0.0, 0.0, 0.0, 0.0, 0.0, 0.0, 0.0, 0.0, 0.0, 0.0, 0.0, 0.0, 0.0, 0.0, 0.0, 0.0, 0.0, 0.0, 0.0, 0.0, 0.0, 0.0, 0.0, 0.0, 0.0, 0.0, 0.0, 14.0, 62.0, 148.0, 259.0, 383.0, 488.0, 529.0, 531.0, 514.0, 426.0, 253.0, -12.0, -482.0, -729.0, -900.0, -960.0, -960.0, -960.0, -958.0, -943.0, -927.0, -923.0, -923.0]	[-490.0, -490.0, -490.0, -490.0, -490.0, -490.0, -490.0, -490.0, -490.0, -490.0, -490.0, -490.0, -490.0, -490.0, -490.0, -490.0, -490.0, -490.0, -490.0, -490.0, -490.0, -490.0, -490.0, -490.0, -490.0, -490.0, -490.0, -490.0, -490.0, -490.0, -490.0, -490.0, -490.0, -490.0, -490.0, -490.0, -490.0, -477.0, -433.0, -353.0, -246.0, -139.0, -49.0, -14.0, -9.0, -4.0, 1.0, 1.0, 12.0, 77.0, 133.0, 199.0, 276.0, 331.0, 361.0, 379.0, 392.0, 396.0, 396.0, 396.0]	[0.0016507212858414277, 0.007496392965549603, 0.018279448777320795, 0.03495152558025438, 0.05202978882880416, 0.06797585000458639, 0.08513910521287471, 0.10145005153026432, 0.11862286407267675, 0.1348669090803014, 0.1519550710072508, 0.16853328117576893, 0.18523368863679934, 0.20143609099613968, 0.2185785248875618, 0.23478297525434755, 0.25191209715558216, 0.2683169100928353, 0.2851634081307566, 0.30143953846709337, 0.3185819723585155, 0.3347423907543998, 0.3518182646657806, 0.3682981708989246, 0.3851958689192543, 0.40147882590827066, 0.41854445984063204, 0.43485301682085264, 0.4519189920829376, 0.4681275384500623, 0.4853075189894298, 0.5015348386805272, 0.5185629259649431, 0.5347868323297007, 0.5518995702295797, 0.5681869645632105, 0.5853256437840173, 0.6015167821606155, 0.6186841333692428, 0.6348988237295998, 0.6520023456396302, 0.668191436023335, 0.685248536625295, 0.7015062349673826, 0.7185909835534403, 0.7348538018850377, 0.7519665397994686, 0.7681638221692992, 0.7852192161080893, 0.8015332344220951, 0.8186882976297056, 0.8349767159670591, 0.8519256139552454, 0.8680556536855875, 0.8851813622604823, 0.9017128097912064, 0.9186255264648935, 0.9349549047765322, 0.9519137014285661, 0.9684311542951036]
6	animate/a61.jpg	inanimate	animate	right	0.947	[0.0, 0.0, 0.0, 0.0, 0.0, 0.0, 0.0, 0.0, 0.0, 0.0, 0.0, 0.0, 0.0, 0.0, 0.0, 0.0, 0.0, 0.0, 0.0, 0.0, 0.0, 0.0, 0.0, 0.0, 0.0, 0.0, 0.0, 0.0, 0.0, 0.0, 0.0, 0.0, 0.0, 0.0, 0.0, 0.0, 0.0, 0.0, 0.0, 0.0, 2.0, 17.0, 40.0, 57.0, 57.0, 57.0, 66.0, 122.0, 209.0, 319.0, 426.0, 549.0, 669.0, 766.0, 824.0, 839.0, 839.0]	[-490.0, -490.0, -490.0, -490.0, -490.0, -490.0, -490.0, -490.0, -490.0, -490.0, -490.0, -490.0, -490.0, -490.0, -490.0, -490.0, -490.0, -490.0, -490.0, -490.0, -490.0, -490.0, -490.0, -490.0, -490.0, -490.0, -490.0, -490.0, -490.0, -490.0, -490.0, -490.0, -490.0, -490.0, -490.0, -490.0, -490.0, -490.0, -490.0, -490.0, -469.0, -422.0, -363.0, -325.0, -312.0, -295.0, -241.0, -123.0, 15.0, 146.0, 263.0, 330.0, 369.0, 397.0, 415.0, 419.0, 419.0]	[0.002959495017421432, 0.008169263019226491, 0.02049309670110233, 0.03768536524148658, 0.05392394892987795, 0.0713609533268027, 0.08750567039533053, 0.10451805635238998, 0.12083173333667219, 0.13793798591359518, 0.15417042559420224, 0.17126882751472294, 0.1874872725456953, 0.20450887449260335, 0.22083040213328786, 0.23790183872915804, 0.2541667050682008, 0.2711927443451714, 0.2874927680095425, 0.30452324461657554, 0.3208874389092671, 0.3380080274801003, 0.3541718592023244, 0.37120813847286627, 0.38751328212674707, 0.40454546541150194, 0.42087859837920405, 0.43798792295274325, 0.4541821333259577, 0.4712709779123543, 0.48750102827034425, 0.5044956648926018, 0.5208485951879993, 0.5380101437331177, 0.5541685141361086, 0.5712757907022024, 0.5873764757998288, 0.6045410963415634, 0.6208308799978113, 0.6378927592595574, 0.6541658175992779, 0.6712167742080055, 0.6874871018662816, 0.7045329384854995, 0.7207486528495792, 0.7378419347514864, 0.7542054463847307, 0.7712864403001731, 0.7876192319381516, 0.8046258152317023, 0.8207534656394273, 0.8379658728226786, 0.8544471443892689, 0.8713591784035088, 0.8876342847361229, 0.9046627133502625, 0.9209897023247322]
7	inanimate/n3.jpg	animate	inanimate	right	1.145	[0.0, 0.0, 0.0, 0.0, 0.0, 0.0, 0.0, 0.0, 0.0, 0.0, 0.0, 0.0, 0.0, 0.0, 0.0, 0.0, 0.0, 0.0, 0.0, 0.0, 0.0, 0.0, 0.0, 0.0, 0.0, 0.0, 0.0, 0.0, 1.0, 1.0, 1.0, 2.0, 2.0, 2.0, 4.0, 4.0, 4.0, 4.0, 4.0, 4.0, 4.0, 4.0, 4.0, 4.0, 4.0, 4.0, 4.0, 1.0, -8.0, -33.0, -79.0, -156.0, -262.0, -371.0, -468.0, -528.0, -538.0, -452.0, -299.0, -87.0, 158.0, 399.0, 577.0, 677.0, 708.0, 713.0, 713.0, 713.0, 713.0]	[-490.0, -489.0, -489.0, -487.0, -487.0, -487.0, -487.0, -487.0, -486.0, -486.0, -486.0, -486.0, -486.0, -486.0, -486.0, -486.0, -486.0, -486.0, -486.0, -486.0, -486.0, -484.0, -483.0, -483.0, -483.0, -481.0, -481.0, -480.0, -480.0, -478.0, -477.0, -475.0, -472.0, -468.0, -464.0, -463.0, -463.0, -462.0, -462.0, -462.0, -462.0, -462.0, -462.0, -461.0, -459.0, -459.0, -456.0, -453.0, -442.0, -424.0, -382.0, -306.0, -182.0, -58.0, 33.0, 98.0, 140.0, 207.0, 264.0, 323.0, 386.0, 425.0, 450.0, 468.0, 473.0, 473.0, 473.0, 473.0, 473.0]	[0.015018010439234786, 0.022317078706691973, 0.02778728390694596, 0.04504167506820522, 0.061851991806179285, 0.07850768460775726, 0.09474763362959493, 0.11187846219399944, 0.12877001620654482, 0.14511134117492475, 0.16142058081459254, 0.17853161206585355, 0.19484221703896765, 0.21189931764092762, 0.22820036529446952, 0.24512502862489782, 0.2615015109186061, 0.2784633795672562, 0.2948374725092435, 0.31197034906654153, 0.3281655834434787, 0.3452902680146508, 0.3614117744291434, 0.3784634136973182, 0.3948436506470898, 0.4118966552487109, 0.4281867802346824, 0.44524865949642844, 0.4615077231719624, 0.4786228504090104, 0.4948416367697064, 0.5118635800608899, 0.5281642863847082, 0.5453176429291489, 0.5614357360173017, 0.5785283352597617, 0.5947819376015104, 0.611961918140878, 0.6280868378817104, 0.645124823829974, 0.6614893594523892, 0.6784426947706379, 0.6949024623463629, 0.7118585283315042, 0.728076632032753, 0.7451054019766161, 0.7616791748296237, 0.7786031554860529, 0.7948553925089072, 0.8118131651572185, 0.8282964847167023, 0.8452672280254774, 0.8616512196313124, 0.8784844056790462, 0.8950643225252861, 0.9119295938871801, 0.9283251908345846, 0.9452880834869575, 0.96166763776273, 0.9787097196967807, 0.994872527429834, 1.0118599960696883, 1.028384616933181, 1.0452625176258152, 1.0616301252448466, 1.07852645793173, 1.0949606255162507, 1.111927955498686, 1.1283003417775035]
8	inanimate/n59.jpg	inanimate	animate	left	1.331	[0.0, 0.0, 0.0, 0.0, 0.0, 0.0, 0.0, 0.0, 0.0, -1.0, -1.0, -1.0, -3.0, -4.0, -6.0, -6.0, -6.0, -6.0, -7.0, -8.0, -8.0, -8.0, -8.0, -8.0, -9.0, -9.0, -9.0, -9.0, -9.0, -9.0, -10.0, -12.0, -14.0, -15.0, -15.0, -15.0, -15.0, -15.0, -15.0, -15.0, -15.0, -16.0, -19.0, -19.0, -19.0, -19.0, -19.0, -19.0, -20.0, -20.0, -20.0, -21.0, -22.0, -29.0, -33.0, -39.0, -39.0, -39.0, -41.0, -49.0, -71.0, -117.0, -183.0, -258.0, -339.0, -440.0, -498.0, -565.0, -629.0, -679.0, -701.0, -711.0, -712.0, -721.0, -736.0, -740.0, -741.0, -741.0, -741.0, -741.0]	[-490.0, -490.0, -490.0, -490.0, -490.0, -490.0, -490.0, -490.0, -488.0, -488.0, -488.0, -486.0, -484.0, -484.0, -484.0, -484.0, -484.0, -484.0, -483.0, -482.0, -482.0, -482.0, -482.0, -482.0, -481.0, -481.0, -481.0, -481.0, -481.0, -481.0, -480.0, -479.0, -479.0, -479.0, -479.0, -479.0, -479.0, -479.0, -479.0, -479.0, -479.0, -478.0, -477.0, -477.0, -477.0, -477.0, -477.0, -477.0, -477.0, -477.0, -477.0, -475.0, -473.0, -467.0, -464.0, -462.0, -462.0, -462.0, -461.0, -455.0, -438.0, -399.0, -333.0, -267.0, -198.0, -111.0, -43.0, 44.0, 129.0, 179.0, 198.0, 220.0, 264.0, 350.0, 407.0, 427.0, 432.0, 432.0, 432.0, 432.0]	[0.01595599396387115, 0.021653868374414742, 0.030466407872154377, 0.04770373237261083, 0.06422801192093175, 0.08046693693904672, 0.09757387217541691, 0.11372746390406974, 0.13090471377654467, 0.14717094544903375, 0.16427310202561785, 0.1804881337302504, 0.1975762956426479, 0.21383467664418276, 0.23092215589713305, 0.24741400878701825, 0.26435232545190956, 0.2805786211392842, 0.29752786047174595, 0.3139026360877324, 0.3308928353799274, 0.3471676003828179, 0.3643206155975349, 0.38066876723314635, 0.3976948065101169, 0.4139709368464537, 0.43098639480012935, 0.4475929356267443, 0.4643042657407932, 0.48071112667093985, 0.4975531873933505, 0.5138928056840086, 0.5310079329210566, 0.5473697378765792, 0.564241494575981, 0.5806070542021189, 0.5976870241138386, 0.6140160610957537, 0.6308840631245403, 0.6473946893383982, 0.6643210593319964, 0.680614256329136, 0.6976512182736769, 0.7139491939306026, 0.7308479159401031, 0.7473838008008897, 0.764319728128612, 0.7806866530881962, 0.797698697715532, 0.8137519374868134, 0.8309220193623332, 0.8471268110733945, 0.8641941516689258, 0.8806225165899377, 0.8977407158236019, 0.9139902221650118, 0.9308691468613688, 0.9471473251905991, 0.9642027191293892, 0.9806443960405886, 0.9976397153368453, 1.013947248327895, 1.0309186742961174, 1.0470521273819031, 1.0641177612997126, 1.0806007395294728, 1.0976458934746915, 1.1139919971028576, 1.1310275937139522, 1.1471415908017661, 1.1642594487057067, 1.1806588003091747, 1.1975820983061567, 1.2140306018845877, 1.230997249193024, 1.2473863608029205, 1.2643280907941516, 1.2807274423976196, 1.297634356407798, 1.3139838733768556]
9	inanimate/n72.jpg	inanimate	animate	left	1.72	[0.0, 0.0, 0.0, 0.0, 0.0, 0.0, 0.0, 0.0, 0.0, 0.0, 0.0, 0.0, 0.0, 0.0, 0.0, 0.0, 0.0, 0.0, 0.0, 0.0, 0.0, 0.0, -1.0, -2.0, -2.0, -3.0, -3.0, -5.0, -5.0, -5.0, -5.0, -5.0, -5.0, -5.0, -5.0, -5.0, -5.0, -5.0, -5.0, -5.0, -6.0, -6.0, -6.0, -6.0, -6.0, -6.0, -6.0, -6.0, -6.0, -6.0, -6.0, -6.0, -6.0, -6.0, -6.0, -6.0, -6.0, -6.0, -6.0, -6.0, -6.0, -4.0, 18.0, 43.0, 54.0, 59.0, 60.0, 60.0, 60.0, 49.0, -80.0, -279.0, -529.0, -762.0, -960.0, -960.0, -960.0, -960.0, -960.0, -960.0, -960.0, -960.0, -960.0, -960.0, -960.0, -960.0, -955.0, -927.0, -892.0, -844.0, -787.0, -726.0, -671.0, -621.0, -593.0, -591.0, -592.0, -616.0, -677.0, -748.0, -792.0, -800.0, -805.0, -806.0]	[-490.0, -490.0, -490.0, -490.0, -490.0, -490.0, -490.0, -490.0, -490.0, -490.0, -490.0, -490.0, -490.0, -490.0, -490.0, -490.0, -490.0, -490.0, -490.0, -490.0, -490.0, -490.0, -489.0, -489.0, -489.0, -489.0, -489.0, -489.0, -489.0, -489.0, -489.0, -489.0, -489.0, -489.0, -489.0, -489.0, -489.0, -489.0, -489.0, -489.0, -489.0, -489.0, -489.0, -489.0, -489.0, -489.0, -489.0, -489.0, -489.0, -489.0, -489.0, -489.0, -489.0, -489.0, -489.0, -489.0, -489.0, -489.0, -489.0, -489.0, -487.0, -467.0, -416.0, -344.0, -301.0, -289.0, -283.0, -281.0, -276.0, -258.0, -130.0, 2.0, 164.0, 296.0, 390.0, 446.0, 477.0, 486.0, 486.0, 486.0, 486.0, 486.0, 486.0, 486.0, 486.0, 486.0, 486.0, 473.0, 459.0, 431.0, 393.0, 343.0, 288.0, 229.0, 190.0, 189.0, 188.0, 208.0, 269.0, 352.0, 391.0, 402.0, 408.0, 410.0]	[0.00989698906778358, 0.014865093195112422, 0.02249354794912506, 0.03499316821398679, 0.05119830125477165, 0.06816426590376068, 0.08462266814603936, 0.1018248353357194, 0.11840543484140653, 0.13497169836773537, 0.15140211128164083, 0.16854659316595644, 0.18506745937338565, 0.2016712695476599, 0.21801225317176431, 0.23512738040881231, 0.2512338681699475, 0.26842101670627017, 0.28466915771423373, 0.3017658529570326, 0.3179952206555754, 0.335063926584553, 0.35131718759657815, 0.3685848907480249, 0.3845968292152975, 0.40163106049294583, 0.41798194279544987, 0.4351038966997294, 0.45133531237661373, 0.46845658362144604, 0.4846968739730073, 0.501738955907058, 0.5181932621489977, 0.5351769761182368, 0.5515493624116061, 0.5684620790852932, 0.5848412920313422, 0.6018178380036261, 0.6181547256419435, 0.6351722315885127, 0.6514927352400264, 0.6685006838670233, 0.6845645049761515, 0.7016594935557805, 0.7179035385634052, 0.7350592844450148, 0.7514804813690716, 0.768508227323764, 0.7848553549556527, 0.8017905996239278, 0.8181875618902268, 0.835138849215582, 0.8514467235218035, 0.8684922187967459, 0.884850269096205, 0.9018281804019352, 0.9182319693354657, 0.9350644727092003, 0.9514754296396859, 0.9684628982795402, 0.9845789433602476, 1.001725131922285, 1.018144622183172, 1.0351242401520722, 1.051489799763658, 1.0685127670585644, 1.0849588812998263, 1.1018166433350416, 1.1181941496179206, 1.135166258260142, 1.1512997113313759, 1.1685186038521351, 1.184857539483346, 1.2018095094681485, 1.2180627704801736, 1.2350666231068317, 1.2514553933870047, 1.2684165793762077, 1.2848428962897742, 1.3017754102911567, 1.3179272953566397, 1.3349652813049033, 1.3514902434981195, 1.3684466508275364, 1.384842247760389, 1.4018303990596905, 1.4180389454268152, 1.4351004833588377, 1.4515046136366436, 1.468483207601821, 1.4848323832266033, 1.5017666038911557, 1.5181693688355153, 1.5350892535061575, 1.551570525058196, 1.5684794870758196, 1.5848160333698615, 1.6017557153681992, 1.6178932644397719, 1.6350974796368973, 1.6514456312579568, 1.668472011879203, 1.6848157261702, 1.7017376588482875]
10	inanimate/n5.jpg	animate	inanimate	right	1.331	[0.0, 0.0, 0.0, 0.0, 0.0, 0.0, 0.0, 0.0, 0.0, 0.0, 0.0, 0.0, 0.0, 0.0, 0.0, 0.0, 0.0, 0.0, 0.0, 0.0, 0.0, 0.0, 0.0, 0.0, 0.0, 0.0, 0.0, 0.0, 0.0, 0.0, 0.0, 0.0, 0.0, 0.0, 0.0, 0.0, -1.0, -1.0, -1.0, -1.0, -9.0, -31.0, -65.0, -82.0, -82.0, -83.0, -83.0, -86.0, -87.0, -84.0, -35.0, 64.0, 204.0, 466.0, 557.0, 770.0, 837.0, 857.0, 860.0, 860.0, 860.0, 860.0, 860.0, 860.0, 860.0, 860.0, 860.0, 860.0, 860.0, 860.0, 860.0, 860.0, 855.0, 844.0, 825.0, 797.0, 775.0, 767.0, 767.0, 767.0]	[-490.0, -490.0, -490.0, -490.0, -490.0, -490.0, -490.0, -490.0, -490.0, -490.0, -490.0, -490.0, -490.0, -490.0, -490.0, -490.0, -490.0, -490.0, -490.0, -490.0, -490.0, -490.0, -490.0, -490.0, -490.0, -490.0, -490.0, -490.0, -490.0, -490.0, -490.0, -490.0, -490.0, -490.0, -490.0, -490.0, -490.0, -490.0, -490.0, -485.0, -463.0, -433.0, -393.0, -367.0, -365.0, -362.0, -362.0, -361.0, -361.0, -346.0, -282.0, -179.0, -59.0, 123.0, 171.0, 264.0, 290.0, 300.0, 303.0, 303.0, 303.0, 304.0, 304.0, 304.0, 304.0, 304.0, 304.0, 304.0, 304.0, 304.0, 304.0, 305.0, 314.0, 333.0, 360.0, 399.0, 432.0, 456.0, 460.0, 460.0]	[0.010369052819442004, 0.01595019130036235, 0.021694487033528276, 0.03547001063998323, 0.05261346853512805, 0.06890973751433194, 0.08613921135838609, 0.10232215774885844, 0.11939905566396192, 0.1356519753462635, 0.15282512921839952, 0.16898315827711485, 0.18603343222639523, 0.20241401050589047, 0.21943629511224572, 0.23583598805998918, 0.2527903473674087, 0.2691347443324048, 0.28616453827999067, 0.3024843592575053, 0.3193806919443887, 0.3358780061680591, 0.3528183708258439, 0.3691320478101261, 0.3861034737783484, 0.4025253533764044, 0.4194588913669577, 0.4358203549927566, 0.4528354716167087, 0.4691604125982849, 0.48616358255094383, 0.5024789661983959, 0.5194114801997785, 0.5355599519243697, 0.552710236486746, 0.5689276575139957, 0.5860301554203033, 0.6022124191367766, 0.6194350663135992, 0.6356163060263498, 0.6527665905887261, 0.6688635210157372, 0.6861049415165326, 0.7021179039875278, 0.7193501084984746, 0.7354821962362621, 0.7527301020745654, 0.7688120138336672, 0.7860687943320954, 0.8021896180871408, 0.8193897372693755, 0.8355013450200204, 0.8527898695028853, 0.8688526666228427, 0.886015921831131, 0.90219033487665, 0.9193791900761425, 0.9355286858044565, 0.9526823836931726, 0.9691226952709258, 0.986105385250994, 1.0024767475406406, 1.0194348615186755, 1.0357905224809656, 1.0527298631350277, 1.0691203400783706, 1.086190070011071, 1.102428995029186, 1.1193403463694267, 1.1360182258213172, 1.1527903132373467, 1.1689391263062134, 1.186097261524992, 1.2022071625979152, 1.2193864604778355, 1.23583530538599, 1.2527732807211578, 1.2690879816946108, 1.2861283569654915, 1.3022727327042958]
11	animate/a24.jpg	inanimate	animate	right	1.282	[0.0, 0.0, 0.0, 0.0, 0.0, 0.0, 0.0, 0.0, 0.0, 0.0, 0.0, 0.0, 0.0, 0.0, 0.0, 0.0, 0.0, 0.0, 0.0, 0.0, 0.0, 0.0, 0.0, 0.0, 0.0, 0.0, 0.0, 0.0, 0.0, 0.0, 0.0, 0.0, 0.0, 0.0, 0.0, 0.0, 0.0, 0.0, 0.0, 0.0, 0.0, -2.0, -24.0, -48.0, -65.0, -77.0, -98.0, -171.0, -243.0, -317.0, -392.0, -466.0, -534.0, -580.0, -587.0, -544.0, -443.0, -295.0, -94.0, 151.0, 472.0, 614.0, 700.0, 728.0, 735.0, 736.0, 737.0, 738.0, 738.0, 738.0, 738.0, 738.0, 738.0, 738.0, 738.0, 738.0, 738.0, 738.0]	[-490.0, -490.0, -490.0, -490.0, -490.0, -490.0, -490.0, -490.0, -490.0, -490.0, -490.0, -490.0, -490.0, -490.0, -490.0, -490.0, -490.0, -490.0, -490.0, -490.0, -490.0, -490.0, -490.0, -490.0, -490.0, -490.0, -490.0, -490.0, -490.0, -490.0, -490.0, -490.0, -490.0, -490.0, -490.0, -490.0, -490.0, -490.0, -490.0, -490.0, -490.0, -488.0, -483.0, -476.0, -469.0, -459.0, -433.0, -334.0, -234.0, -133.0, -25.0, 96.0, 224.0, 349.0, 425.0, 460.0, 490.0, 511.0, 522.0, 522.0, 522.0, 533.0, 540.0, 540.0, 540.0, 540.0, 540.0, 540.0, 540.0, 540.0, 540.0, 540.0, 540.0, 540.0, 540.0, 540.0, 540.0, 540.0]	[0.00795490579912439, 0.013692033520783298, 0.01899976414279081, 0.030872014060150832, 0.04792706666921731, 0.0642407436389476, 0.08159241476096213, 0.09825152090343181, 0.11456656320660841, 0.13093758416653145, 0.14802267408231273, 0.16431826040206943, 0.18141563831886742, 0.19802764047926757, 0.21462940264609642, 0.23093249829253182, 0.24805991353059653, 0.2647101449983893, 0.28131258983921725, 0.30028559346101247, 0.3147977140324656, 0.33099875105835963, 0.3478769930952694, 0.3643285686703166, 0.3814921652083285, 0.3975539383245632, 0.41474108686088584, 0.4309769398678327, 0.4480169738235418, 0.46430846414295956, 0.48136249274830334, 0.4975389538012678, 0.5147694516344927, 0.5309995019924827, 0.5480661599285668, 0.5643439969280735, 0.5814475188381039, 0.5976376332109794, 0.6147165791335283, 0.6310073867934989, 0.6480993033765117, 0.6642252471210668, 0.681354710352025, 0.6977823925990378, 0.7148227678844705, 0.7312378208007431, 0.748138590817689, 0.7644741131225601, 0.7814612404326908, 0.7977875467331614, 0.8148596659884788, 0.8310917643539142, 0.848134528961964, 0.8644830219127471, 0.8813998345867731, 0.8975479649961926, 0.9147166815382661, 0.9311365131288767, 0.9481352457514731, 0.9644444854056928, 0.9814718900161097, 0.9978108256618725, 1.0147959049645578, 1.0311809205741156, 1.0481424478930421, 1.0644940128404414, 1.081516638805624, 1.0978439691098174, 1.114807885751361, 1.131178224037285, 1.148155452683568, 1.1644937056407798, 1.1814944862708217, 1.1977917792683002, 1.2147253172588535, 1.2312014688213822, 1.2481100895092823, 1.26451456110226]
12	inanimate/n22.jpg	animate	inanimate	right	1.05	[0.0, 0.0, 0.0, 1.0, 1.0, 1.0, 1.0, 1.0, 1.0, 1.0, 1.0, 1.0, 1.0, 1.0, 1.0, 1.0, 1.0, 1.0, 1.0, 1.0, 1.0, 1.0, 1.0, 1.0, 1.0, 1.0, 1.0, 1.0, 1.0, 1.0, 1.0, 1.0, 1.0, 1.0, 1.0, 1.0, 1.0, 1.0, 1.0, 1.0, 3.0, 8.0, 11.0, 14.0, 16.0, 16.0, 16.0, 16.0, 16.0, 31.0, 66.0, 127.0, 217.0, 335.0, 463.0, 602.0, 771.0, 854.0, 906.0, 931.0, 936.0, 936.0, 936.0]	[-490.0, -490.0, -490.0, -488.0, -488.0, -488.0, -488.0, -488.0, -488.0, -488.0, -488.0, -488.0, -488.0, -488.0, -488.0, -488.0, -488.0, -488.0, -488.0, -488.0, -488.0, -488.0, -488.0, -488.0, -488.0, -488.0, -488.0, -488.0, -488.0, -488.0, -488.0, -488.0, -488.0, -488.0, -488.0, -488.0, -488.0, -488.0, -488.0, -488.0, -486.0, -483.0, -480.0, -478.0, -475.0, -475.0, -461.0, -438.0, -391.0, -312.0, -206.0, -81.0, 39.0, 139.0, 239.0, 347.0, 456.0, 487.0, 502.0, 507.0, 508.0, 508.0, 508.0]	[0.015735492735984735, 0.021047319343779236, 0.029408957736450247, 0.046450015681330115, 0.06309956448967569, 0.0820906587614445, 0.09645293407083955, 0.11276729372912087, 0.12989812227897346, 0.146471895131981, 0.16313782792713027, 0.17944228892156389, 0.19646730419481173, 0.21341859152016696, 0.22975752715137787, 0.24608622278901748, 0.263250843345304, 0.2793409471050836, 0.2963748370530084, 0.3131421457946999, 0.32974663862842135, 0.3488029275322333, 0.3633041254506679, 0.37981884766486473, 0.3964199271576945, 0.41386751289246604, 0.4299047100212192, 0.4459893524472136, 0.4630686396994861, 0.4793686633493053, 0.4963172200077679, 0.5133517926296918, 0.5296234856214141, 0.5460252265620511, 0.5632427537493641, 0.5798342759226216, 0.5962998461473035, 0.6127251390716992, 0.6298761062935228, 0.6464365671563428, 0.6629704040242359, 0.6799305659951642, 0.6965528081636876, 0.713388724863762, 0.7295699645910645, 0.7459904788411222, 0.7632022033649264, 0.7798135228658793, 0.7965770769515075, 0.812773676647339, 0.8298792465648148, 0.846450971410377, 0.8631271441990975, 0.8795039678225294, 0.8965552657609805, 0.9131659025879344, 0.9296577554778196, 0.9470162532525137, 0.9630271677160636, 0.9797801404783968, 0.9964952252485091, 1.0128150462260237, 1.0296649576048367]
13	animate/a36.jpg	inanimate	animate	right	1.347	[0.0, 0.0, 0.0, 0.0, 0.0, 0.0, 0.0, 0.0, 0.0, 0.0, 0.0, 0.0, 0.0, 0.0, 0.0, 0.0, 0.0, 0.0, 0.0, 0.0, 0.0, 0.0, 0.0, 0.0, 0.0, 0.0, 0.0, 0.0, 0.0, 0.0, 0.0, 0.0, 0.0, 0.0, 0.0, 0.0, 0.0, 0.0, 0.0, 0.0, 0.0, 0.0, 0.0, 0.0, -17.0, -47.0, -84.0, -141.0, -206.0, -299.0, -399.0, -514.0, -642.0, -760.0, -846.0, -889.0, -904.0, -904.0, -903.0, -902.0, -902.0, -902.0, -902.0, -902.0, -902.0, -901.0, -892.0, -796.0, -629.0, -375.0, -95.0, 217.0, 503.0, 692.0, 798.0, 830.0, 834.0, 834.0, 834.0, 834.0, 834.0]	[-490.0, -490.0, -490.0, -490.0, -490.0, -490.0, -490.0, -490.0, -490.0, -490.0, -490.0, -490.0, -490.0, -490.0, -490.0, -490.0, -490.0, -490.0, -490.0, -490.0, -490.0, -490.0, -490.0, -490.0, -490.0, -490.0, -490.0, -490.0, -490.0, -490.0, -490.0, -490.0, -490.0, -490.0, -490.0, -490.0, -490.0, -490.0, -490.0, -490.0, -490.0, -490.0, -490.0, -490.0, -483.0, -469.0, -446.0, -396.0, -321.0, -216.0, -85.0, 54.0, 185.0, 288.0, 360.0, 396.0, 420.0, 429.0, 435.0, 437.0, 437.0, 437.0, 437.0, 437.0, 437.0, 437.0, 437.0, 435.0, 436.0, 439.0, 439.0, 439.0, 439.0, 435.0, 424.0, 419.0, 419.0, 419.0, 419.0, 419.0, 419.0]	[0.015365828920039348, 0.02099543670192361, 0.029169683184591122, 0.04652101296233013, 0.06278622064564843, 0.07914700159744825, 0.09631401147635188, 0.1128860776516376, 0.12992747692624107, 0.1458626154344529, 0.1628005907696206, 0.17926308899768628, 0.19636661090771668, 0.21313221300079022, 0.22943633265094832, 0.24582476158684585, 0.26313240072340705, 0.2793214911071118, 0.2962441064446466, 0.3125099967874121, 0.329711481303093, 0.3459773716458585, 0.36299180559581146, 0.379175434645731, 0.3963134312070906, 0.4128028947598068, 0.42983405404083896, 0.44609653105726466, 0.4630604476988083, 0.479447852645535, 0.49639538530027494, 0.5128606142097851, 0.5298487655090867, 0.5461194345116382, 0.5630826684937347, 0.5795103507407475, 0.5964350140857277, 0.6127876030368498, 0.629794527660124, 0.6460600766731659, 0.6631031826109393, 0.6795298408687813, 0.6964312935451744, 0.7128477118094452, 0.7297283431689721, 0.7458918335614726, 0.7630803474166896, 0.7794035817350959, 0.7964815036539221, 0.8127893779746955, 0.8297229159652488, 0.8460860862542177, 0.8630609255633317, 0.8794415038428269, 0.8963975698279683, 0.9127788307814626, 0.9297697127476567, 0.9459707497881027, 0.9629940583981806, 0.9794613353005843, 0.9964583612745628, 1.0128106088959612, 1.0297789628675673, 1.0461646611511242, 1.0630852284812136, 1.0795497747312766, 1.0975557815108914, 1.112818835026701, 1.1297284797037719, 1.1461288552964106, 1.1630739986285334, 1.1795201128697954, 1.1964167868864024, 1.2126284052501433, 1.229629185880185, 1.2459421802050201, 1.2629299901600461, 1.2792832617997192, 1.296312373073306, 1.3126171753974631, 1.3297896465956]
14	animate/a66.jpg	animate	inanimate	left	1.265	[0.0, 0.0, 0.0, 0.0, 0.0, 0.0, 0.0, 0.0, 0.0, 0.0, 0.0, 0.0, 0.0, 0.0, 0.0, 0.0, 0.0, 0.0, 0.0, 0.0, 0.0, 0.0, 0.0, 0.0, 0.0, 0.0, 0.0, 0.0, 0.0, 0.0, 0.0, 0.0, 0.0, 0.0, 0.0, 0.0, 0.0, 0.0, 0.0, 0.0, 0.0, 0.0, 0.0, 0.0, 0.0, 0.0, 0.0, 0.0, 0.0, 0.0, 0.0, 0.0, 0.0, 0.0, 0.0, 0.0, 0.0, 0.0, -3.0, -13.0, -26.0, -44.0, -64.0, -113.0, -186.0, -281.0, -386.0, -502.0, -627.0, -781.0, -828.0, -841.0, -843.0, -843.0, -843.0, -843.0]	[-490.0, -490.0, -490.0, -490.0, -490.0, -490.0, -490.0, -490.0, -490.0, -490.0, -490.0, -490.0, -490.0, -490.0, -490.0, -490.0, -490.0, -490.0, -490.0, -490.0, -490.0, -490.0, -490.0, -490.0, -490.0, -490.0, -490.0, -489.0, -489.0, -489.0, -489.0, -489.0, -489.0, -489.0, -489.0, -489.0, -489.0, -489.0, -489.0, -489.0, -489.0, -489.0, -489.0, -489.0, -489.0, -489.0, -489.0, -488.0, -488.0, -488.0, -488.0, -488.0, -488.0, -488.0, -488.0, -488.0, -488.0, -487.0, -485.0, -482.0, -475.0, -468.0, -456.0, -405.0, -297.0, -149.0, 3.0, 180.0, 356.0, 523.0, 540.0, 540.0, 540.0, 540.0, 540.0, 540.0]	[0.0022126580734038725, 0.007207044851384126, 0.018955732171889395, 0.03606539807515219, 0.05250332033028826, 0.0696891035331646, 0.08573824730410706, 0.10279056924628094, 0.11977018721518107, 0.13605177888530307, 0.15248697047354653, 0.1697406789753586, 0.18590416935330722, 0.2029698032856686, 0.21938041888643056, 0.23643376481777523, 0.25256585255556274, 0.26969360912335105, 0.2860407367552398, 0.3030230853910325, 0.3193514396989485, 0.3363819163205335, 0.3527345052716555, 0.36968852326390333, 0.38604657354881056, 0.4030480368528515, 0.4193726364901522, 0.4364307610958349, 0.4527150834182976, 0.4696762694075005, 0.4859896050475072, 0.5030030150082894, 0.5193992946151411, 0.536429088562727, 0.5527038535510655, 0.5697152155189542, 0.5862558790395269, 0.6030470811092528, 0.6193911367445253, 0.6363277467462467, 0.6527230023493757, 0.669603292379179, 0.685886590697919, 0.7028883953316836, 0.719438957516104, 0.736425060822512, 0.752706652492634, 0.7696490651433123, 0.7861518407007679, 0.8030188187258318, 0.8194256796559785, 0.8364285082934657, 0.8527394546108553, 0.8696620699483901, 0.8861245681764558, 0.9030318235163577, 0.9194048924691742, 0.9363223878171993, 0.9528203847003169, 0.9697071600530762, 0.9859382344147889, 1.0030673563014716, 1.019410729277297, 1.036302624619566, 1.052697880222695, 1.0695419889379991, 1.0860570524819195, 1.1029902491427492, 1.119364000755013, 1.136325186744216, 1.1526675357163185, 1.1697382896381896, 1.1858338547317544, 1.2029537606285885, 1.219378370893537, 1.2363340955344029]
15	inanimate/n39.jpg	animate	inanimate	right	1.116	[0.0, 0.0, 0.0, 0.0, 0.0, 0.0, 0.0, 0.0, 0.0, 0.0, 0.0, 0.0, 0.0, 0.0, 0.0, 0.0, 0.0, 0.0, 0.0, 0.0, 0.0, 0.0, 0.0, -1.0, -3.0, -3.0, -4.0, -4.0, -4.0, -4.0, -4.0, -4.0, -4.0, -4.0, -4.0, -4.0, -4.0, -4.0, -4.0, -4.0, -4.0, -4.0, -4.0, -4.0, -4.0, -4.0, -4.0, -4.0, -4.0, -4.0, -4.0, -4.0, -4.0, -4.0, 7.0, 36.0, 94.0, 164.0, 254.0, 368.0, 481.0, 583.0, 679.0, 739.0, 760.0, 763.0, 763.0, 763.0]	[-490.0, -490.0, -490.0, -490.0, -490.0, -490.0, -490.0, -490.0, -490.0, -490.0, -490.0, -490.0, -490.0, -490.0, -490.0, -490.0, -490.0, -490.0, -490.0, -490.0, -490.0, -490.0, -490.0, -490.0, -491.0, -491.0, -492.0, -492.0, -492.0, -492.0, -492.0, -492.0, -492.0, -492.0, -492.0, -492.0, -492.0, -492.0, -492.0, -492.0, -492.0, -492.0, -492.0, -492.0, -492.0, -492.0, -492.0, -492.0, -492.0, -492.0, -492.0, -492.0, -492.0, -490.0, -450.0, -392.0, -291.0, -171.0, -20.0, 155.0, 301.0, 405.0, 465.0, 495.0, 503.0, 504.0, 504.0, 504.0]	[0.008177011288353242, 0.01638266041118186, 0.022553281247382984, 0.03126546878775116, 0.048240649441140704, 0.06512981411651708, 0.08116223258548416, 0.09832855979038868, 0.11491700996703003, 0.13146415882511064, 0.14923840039409697, 0.1649653256754391, 0.18179168505594134, 0.19806815672200173, 0.21446580166229978, 0.23173179815057665, 0.24824208303471096, 0.2648499891947722, 0.28371717953996267, 0.2983897266967688, 0.3149447262112517, 0.3314512564247707, 0.3483585117792245, 0.3651087538601132, 0.3818091613211436, 0.3980501343321521, 0.41450512324809097, 0.43163390380505007, 0.44827867395360954, 0.46483640413498506, 0.48374387179501355, 0.4982856883434579, 0.514930799821741, 0.531450983369723, 0.548432308001793, 0.5650385074986843, 0.5812900618475396, 0.5983983624173561, 0.6144427275430644, 0.6313984521984821, 0.6483377928525442, 0.6644709045940544, 0.6811870133678894, 0.6980509193963371, 0.7146909108851105, 0.731616256874986, 0.747920376539696, 0.7650556424196111, 0.7815891379577806, 0.7981287774891825, 0.8145977610547561, 0.8314196831197478, 0.8478931040153839, 0.8648317620099988, 0.8812126816192176, 0.8981984435959021, 0.9144766219251323, 0.931523482533521, 0.9478668554947944, 0.9649045000987826, 0.9812273930729134, 0.9982001843891339, 1.014447984067374, 1.0316433246043744, 1.0478614282910712, 1.0649383262207266, 1.0811362912645563, 1.0982155785168288]
16	animate/a78.jpg	inanimate	animate	right	1.146	[0.0, 0.0, 0.0, 0.0, 1.0, 1.0, 1.0, 1.0, 1.0, 1.0, 1.0, 1.0, 1.0, 1.0, 1.0, 1.0, 1.0, 1.0, 1.0, 1.0, 1.0, 1.0, 1.0, 1.0, 1.0, 1.0, 1.0, 1.0, 1.0, 1.0, 1.0, 1.0, 1.0, 1.0, 1.0, 1.0, 1.0, 1.0, 1.0, 1.0, 1.0, 1.0, 1.0, 1.0, 1.0, 1.0, 1.0, 1.0, 1.0, 3.0, 4.0, 4.0, 5.0, 7.0, 14.0, 44.0, 93.0, 192.0, 338.0, 489.0, 636.0, 761.0, 862.0, 926.0, 959.0, 959.0, 959.0, 959.0]	[-490.0, -490.0, -490.0, -490.0, -490.0, -490.0, -490.0, -490.0, -490.0, -490.0, -490.0, -490.0, -490.0, -490.0, -490.0, -490.0, -490.0, -490.0, -490.0, -490.0, -490.0, -490.0, -490.0, -490.0, -490.0, -490.0, -490.0, -490.0, -490.0, -490.0, -490.0, -490.0, -490.0, -490.0, -490.0, -490.0, -490.0, -490.0, -490.0, -490.0, -490.0, -490.0, -490.0, -490.0, -490.0, -490.0, -490.0, -490.0, -490.0, -489.0, -487.0, -486.0, -486.0, -484.0, -482.0, -472.0, -452.0, -389.0, -252.0, -82.0, 87.0, 232.0, 333.0, 399.0, 437.0, 449.0, 449.0, 450.0]	[0.008613576370407827, 0.015477786189876497, 0.03087293564749416, 0.047973385560908355, 0.06415633193682879, 0.08135337913699914, 0.09753018151968718, 0.11475863136001863, 0.13086716711404733, 0.14794986770721152, 0.16418094205437228, 0.18141109857242554, 0.19752748498285655, 0.2147310175059829, 0.2308566199208144, 0.24800997647980694, 0.2642151095060399, 0.2813394527474884, 0.29752410578657873, 0.31470886498573236, 0.3308825953718042, 0.3480052319355309, 0.3642407436273061, 0.3814531508105574, 0.39754769191495143, 0.41471674978674855, 0.4308778508420801, 0.4480308660567971, 0.4643865270190872, 0.48139788897242397, 0.4977200992871076, 0.514585029319278, 0.5311379808408674, 0.5478759349352913, 0.5643735904886853, 0.581239885854302, 0.5977402720745886, 0.6147202313877642, 0.6338246482628165, 0.6478783584025223, 0.6670442152535543, 0.6812662026495673, 0.7002013182791416, 0.7145700789260445, 0.7336028158460977, 0.7478746378765209, 0.7657809753727634, 0.7812655541056301, 0.7979270495852688, 0.8146933343377896, 0.8312080565374345, 0.8479466933058575, 0.8642624182830332, 0.8812068789411569, 0.8977468598022824, 0.9147636830894044, 0.9310828214074718, 0.9480825780337909, 0.9643672417005291, 0.981274497040431, 0.9977369952830486, 1.0145428746764082, 1.03108422087098, 1.0479802122281399, 1.0644683104474097, 1.0812424458563328, 1.0975073121953756, 1.1144780555041507]
17	inanimate/n78.jpg	animate	inanimate	right	1.277	[0.0, 0.0, 0.0, 0.0, 0.0, 0.0, 1.0, 2.0, 3.0, 3.0, 4.0, 4.0, 4.0, 4.0, 4.0, 4.0, 4.0, 4.0, 4.0, 4.0, 4.0, 4.0, 4.0, 4.0, 4.0, 4.0, 4.0, 4.0, 4.0, 4.0, 4.0, 4.0, 4.0, 4.0, 4.0, 4.0, 4.0, 4.0, 4.0, 4.0, 4.0, 4.0, 4.0, 4.0, 4.0, 4.0, 4.0, 4.0, 1.0, -8.0, -24.0, -51.0, -104.0, -189.0, -288.0, -409.0, -439.0, -439.0, -415.0, -378.0, -351.0, -338.0, -337.0, -337.0, -314.0, -251.0, -125.0, 123.0, 313.0, 469.0, 572.0, 624.0, 658.0, 681.0, 689.0, 689.0, 689.0]	[-490.0, -490.0, -490.0, -490.0, -490.0, -490.0, -490.0, -490.0, -490.0, -490.0, -489.0, -489.0, -489.0, -489.0, -489.0, -489.0, -489.0, -489.0, -489.0, -489.0, -489.0, -489.0, -489.0, -489.0, -489.0, -489.0, -489.0, -489.0, -489.0, -489.0, -488.0, -488.0, -488.0, -488.0, -488.0, -488.0, -488.0, -488.0, -488.0, -488.0, -488.0, -488.0, -488.0, -488.0, -488.0, -488.0, -488.0, -488.0, -488.0, -483.0, -474.0, -457.0, -401.0, -299.0, -201.0, -79.0, -38.0, -23.0, -9.0, 14.0, 41.0, 85.0, 142.0, 194.0, 258.0, 328.0, 383.0, 426.0, 431.0, 431.0, 431.0, 431.0, 431.0, 431.0, 431.0, 431.0, 431.0]	[0.011891398709849454, 0.01742167853808496, 0.02201977751974482, 0.03915504341421183, 0.055397040428943, 0.07252309033356141, 0.08871730070677586, 0.10599456119234674, 0.12231813682592474, 0.13908032557810657, 0.15777002267714124, 0.1725586231041234, 0.19166611199034378, 0.2057641954452265, 0.225112665531924, 0.23906875439570285, 0.25822914991294965, 0.2723746786650736, 0.2917357780970633, 0.3057727629056899, 0.3225182263267925, 0.339078345845337, 0.3553353615279775, 0.3722095075499965, 0.39166344959812704, 0.40550075451028533, 0.42488199258514214, 0.43893775071774144, 0.45582691540766973, 0.4723382242809748, 0.48910416770377196, 0.5057427938445471, 0.5227848757931497, 0.5389077475410886, 0.5558665441931225, 0.5721266318578273, 0.5892236684449017, 0.6056721720233327, 0.6225446113821818, 0.6387265337689314, 0.6558819383208174, 0.6722887992509641, 0.6892687585495878, 0.7056971234705998, 0.7225166561984224, 0.7389347811258631, 0.7559406817454146, 0.772288833381026, 0.7891503500868566, 0.8056722402834566, 0.8223965410579694, 0.8386822287138784, 0.855850945255952, 0.8721257102588424, 0.8891015735716792, 0.9056954850821057, 0.9224713271541987, 0.9391092706355266, 0.9561206325888634, 0.9723708216042724, 0.9891200396959903, 1.0055862925946712, 1.0225392865831964, 1.038905870198505, 1.055858181527583, 1.072304295768845, 1.08914772181015, 1.1056395747000352, 1.1225208887335612, 1.1390093282825546, 1.156045266223373, 1.1723650872008875, 1.1892054412455764, 1.2054119396198075, 1.2225499361811671, 1.238721959904069, 1.255828212480992]
18	animate/a23.jpg	animate	inanimate	left	1.194	[0.0, 0.0, 0.0, 0.0, 0.0, 0.0, 0.0, 0.0, 0.0, 0.0, 0.0, 0.0, 0.0, 0.0, 0.0, 0.0, 0.0, -2.0, -4.0, -5.0, -5.0, -5.0, -5.0, -5.0, -5.0, -5.0, -5.0, -5.0, -5.0, -7.0, -7.0, -7.0, -7.0, -7.0, 1.0, 18.0, 116.0, 202.0, 275.0, 345.0, 406.0, 473.0, 528.0, 577.0, 595.0, 595.0, 576.0, 527.0, 453.0, 450.0, 470.0, 510.0, 551.0, 585.0, 609.0, 629.0, 631.0, 632.0, 575.0, 427.0, 195.0, -180.0, -417.0, -605.0, -739.0, -799.0, -815.0, -815.0, -815.0, -815.0, -815.0, -815.0]	[-490.0, -490.0, -490.0, -490.0, -490.0, -490.0, -490.0, -490.0, -490.0, -490.0, -490.0, -490.0, -490.0, -490.0, -490.0, -490.0, -489.0, -489.0, -489.0, -489.0, -489.0, -489.0, -489.0, -489.0, -489.0, -489.0, -489.0, -489.0, -489.0, -489.0, -489.0, -489.0, -489.0, -489.0, -484.0, -472.0, -401.0, -327.0, -236.0, -131.0, -29.0, 66.0, 131.0, 185.0, 210.0, 219.0, 230.0, 243.0, 272.0, 296.0, 325.0, 357.0, 382.0, 402.0, 409.0, 413.0, 413.0, 413.0, 413.0, 413.0, 413.0, 413.0, 413.0, 420.0, 436.0, 444.0, 450.0, 450.0, 450.0, 450.0, 450.0, 450.0]	[0.012489073065808043, 0.0176961104007205, 0.02252870525990147, 0.039543821883853525, 0.056729263757006265, 0.07266508492466528, 0.0898157108167652, 0.1060976438166108, 0.12306463245477062, 0.13959061866626143, 0.15654054064361844, 0.17297061224235222, 0.18977546763198916, 0.20627278185565956, 0.223102213232778, 0.2393667382420972, 0.25664297472394537, 0.27269416651688516, 0.28978335243300535, 0.3059840481291758, 0.3231428660219535, 0.33930669774417765, 0.3565631368983304, 0.3726515339949401, 0.38981001054344233, 0.40598066893289797, 0.42310706016724, 0.43933745185495354, 0.45663928832800593, 0.472865242685657, 0.489755431379308, 0.5060793483571615, 0.5232050569175044, 0.5394962059071986, 0.5563867359305732, 0.5755488381109899, 0.5896837855398189, 0.6089158610266168, 0.6231480884162011, 0.6425279611576116, 0.6564676660200348, 0.6738050011481391, 0.6897551583097083, 0.7068562908825697, 0.7230702985834796, 0.7403356124123093, 0.7564765748102218, 0.7732421769032953, 0.7897104777948698, 0.8065286451892462, 0.8230720393912634, 0.8393730870448053, 0.8564458889595699, 0.8730049844889436, 0.8897388425830286, 0.9062214794830652, 0.923094942845637, 0.9395318410970503, 0.956393357788329, 0.9728773600218119, 0.9895818634686293, 1.0062600842647953, 1.0229649290413363, 1.0395544032071484, 1.0565422131767264, 1.072986962099094, 1.0896180789131904, 1.1061976544297067, 1.122836963244481, 1.1399234184937086, 1.1563039967732038, 1.1731931614631321]
19	inanimate/n39.jpg	inanimate	animate	left	1.173	[0.0, 0.0, 0.0, 0.0, 0.0, 0.0, 0.0, 0.0, 0.0, 0.0, 0.0, 0.0, 0.0, 0.0, 0.0, 0.0, 0.0, 0.0, 0.0, 0.0, 0.0, 0.0, 0.0, 0.0, 0.0, 0.0, 0.0, 0.0, 0.0, 0.0, 0.0, 0.0, 0.0, 0.0, 0.0, 0.0, 0.0, 0.0, 0.0, 0.0, 0.0, 0.0, -1.0, -1.0, 1.0, 7.0, 17.0, 20.0, 28.0, 35.0, 39.0, 39.0, 39.0, 39.0, 38.0, 26.0, -33.0, -68.0, -224.0, -346.0, -473.0, -599.0, -724.0, -835.0, -909.0, -928.0, -930.0, -925.0, -921.0, -921.0]	[-490.0, -490.0, -490.0, -490.0, -490.0, -490.0, -490.0, -490.0, -490.0, -490.0, -490.0, -490.0, -490.0, -490.0, -490.0, -490.0, -490.0, -490.0, -490.0, -490.0, -490.0, -490.0, -490.0, -490.0, -490.0, -490.0, -490.0, -490.0, -490.0, -490.0, -490.0, -490.0, -490.0, -490.0, -490.0, -490.0, -490.0, -490.0, -490.0, -490.0, -490.0, -490.0, -490.0, -479.0, -465.0, -449.0, -436.0, -429.0, -419.0, -408.0, -400.0, -398.0, -398.0, -397.0, -396.0, -394.0, -364.0, -340.0, -226.0, -129.0, -20.0, 94.0, 214.0, 321.0, 386.0, 416.0, 431.0, 441.0, 443.0, 443.0]	[0.006187380291521549, 0.012046022631693631, 0.027638462648610584, 0.043745291739469394, 0.06113758149149362, 0.07710036798380315, 0.09422266321780626, 0.11098143864364829, 0.12982780765742064, 0.14394432310655247, 0.16099596237472724, 0.17726902069989592, 0.19424966267251875, 0.21059371830779128, 0.2275477363000391, 0.243826255958993, 0.260990535171004, 0.277468052066979, 0.29429475279175676, 0.31076612569449935, 0.32772116767591797, 0.3441215432831086, 0.360992958638235, 0.37722573966311757, 0.39436783221026417, 0.410512549278792, 0.42771335114957765, 0.44386489487078506, 0.4610687687381869, 0.4771523871604586, 0.49455082092026714, 0.5104822047724156, 0.5276843719620956, 0.5438772170018638, 0.5610749468614813, 0.5772182985965628, 0.5943153351836372, 0.6105221748730401, 0.62756152615475, 0.6438533578184433, 0.6611070663057035, 0.6771879540756345, 0.6943023986532353, 0.7105140170169761, 0.7277127708803164, 0.7440404425142333, 0.7608504179079318, 0.7772115402040072, 0.7944922140159179, 0.8108154483343242, 0.8277578609850025, 0.8440619806351606, 0.8610552519385237, 0.8795063571596984, 0.894334893571795, 0.9134075664624106, 0.9275326152419439, 0.9443528306292137, 0.9609730247757398, 0.9773908083734568, 0.9941065758175682, 1.0136851044662762, 1.0271476255729795, 1.0468125115003204, 1.0605672137899091, 1.0778007836343022, 1.0941345992760034, 1.1135148133471375, 1.1274190195545088, 1.1469098255765857]
20	inanimate/n53.jpg	animate	inanimate	right	1.653	[0.0, 0.0, 0.0, 0.0, 0.0, 0.0, 0.0, 0.0, 0.0, 0.0, 0.0, 0.0, 0.0, 0.0, 0.0, 0.0, 0.0, 0.0, 0.0, 0.0, 0.0, 0.0, 0.0, 0.0, 0.0, 0.0, 0.0, 0.0, 0.0, 0.0, 0.0, 0.0, 0.0, 0.0, 0.0, 0.0, 0.0, 0.0, 0.0, 0.0, 0.0, 0.0, 1.0, 2.0, 3.0, 3.0, 3.0, 2.0, -7.0, -23.0, -40.0, -69.0, -113.0, -173.0, -283.0, -355.0, -434.0, -503.0, -551.0, -585.0, -628.0, -668.0, -703.0, -728.0, -733.0, -744.0, -749.0, -755.0, -756.0, -756.0, -756.0, -756.0, -756.0, -756.0, -756.0, -756.0, -756.0, -756.0, -756.0, -756.0, -756.0, -756.0, -756.0, -756.0, -756.0, -756.0, -756.0, -726.0, -581.0, -166.0, 149.0, 421.0, 634.0, 761.0, 794.0, 795.0, 795.0, 795.0, 795.0, 795.0]	[-490.0, -490.0, -490.0, -490.0, -490.0, -490.0, -490.0, -490.0, -490.0, -490.0, -490.0, -490.0, -490.0, -490.0, -490.0, -490.0, -490.0, -490.0, -490.0, -490.0, -490.0, -490.0, -490.0, -490.0, -490.0, -490.0, -490.0, -490.0, -490.0, -490.0, -490.0, -490.0, -490.0, -490.0, -490.0, -490.0, -490.0, -490.0, -490.0, -490.0, -490.0, -490.0, -489.0, -487.0, -485.0, -481.0, -473.0, -466.0, -460.0, -452.0, -443.0, -419.0, -371.0, -303.0, -183.0, -80.0, 24.0, 117.0, 178.0, 225.0, 285.0, 342.0, 394.0, 428.0, 437.0, 456.0, 461.0, 467.0, 467.0, 467.0, 467.0, 467.0, 467.0, 467.0, 467.0, 467.0, 467.0, 467.0, 467.0, 467.0, 467.0, 467.0, 467.0, 467.0, 467.0, 467.0, 467.0, 464.0, 464.0, 464.0, 464.0, 464.0, 464.0, 464.0, 464.0, 464.0, 464.0, 464.0, 464.0, 464.0]	[0.0087579602986807, 0.013617520482512191, 0.01921333628706634, 0.030685543752042577, 0.04705451670452021, 0.0668258985679131, 0.08036521964822896, 0.09767149345134385, 0.11431728758907411, 0.13101223371631932, 0.14763959585980047, 0.16396214750420768, 0.18066869895847049, 0.1978155701799551, 0.2139466339140199, 0.231066539810854, 0.2473061475029681, 0.26436120009748265, 0.28081653034314513, 0.2977009163732873, 0.31407159598893486, 0.33120105921989307, 0.3474218935734825, 0.36437864223262295, 0.3807517111854395, 0.39763643853075337, 0.41406685145921074, 0.4310887947358424, 0.4474485516984714, 0.464343177707633, 0.4808090892765904, 0.4989577733213082, 0.5138668643630808, 0.5310881462064572, 0.5475281164544867, 0.5643203425279353, 0.580723107457743, 0.5976545974554028, 0.6138648504856974, 0.6310704310162691, 0.6472762467165012, 0.6643394913116936, 0.6805681763362372, 0.6976385889283847, 0.7138751246238826, 0.7312015370844165, 0.7471711502439575, 0.7643466934387106, 0.7805364664818626, 0.7976440843922319, 0.8138690147607122, 0.8310810806142399, 0.8472019043547334, 0.8643870048836106, 0.88068361520709, 0.8976041825517314, 0.9139813475048868, 0.9310674614098389, 0.9498046038206667, 0.9642569910938619, 0.9833931519533508, 0.9975588193774456, 1.0164737963496009, 1.0308644023170928, 1.0499145472276723, 1.0642058252560673, 1.0834201514080632, 1.0975312055234099, 1.1150965511915274, 1.1310787936818087, 1.1476638305175584, 1.1643120139924577, 1.1805980429926421, 1.1973366797465133, 1.2169172563881148, 1.2306535266980063, 1.250210551355849, 1.2638317923701834, 1.283272081083851, 1.2974517431575805, 1.3156717658275738, 1.3305003022396704, 1.3485711623216048, 1.3642100236465922, 1.3819453532341868, 1.3974418786383467, 1.4152144135296112, 1.430763504235074, 1.4481489673344186, 1.4640711351821665, 1.4810268598375842, 1.497416654106928, 1.5145792266557692, 1.5308758369792486, 1.5476410977280466, 1.5640506893250858, 1.5809613580058794, 1.5974351202312391, 1.6143229195877211, 1.6308366177981952]
21	inanimate/n24.jpg	inanimate	animate	left	1.781	[0.0, 0.0, 0.0, 0.0, 0.0, 0.0, 0.0, 0.0, 0.0, 0.0, 0.0, 0.0, 0.0, 0.0, 0.0, 0.0, 0.0, 0.0, 0.0, 0.0, 0.0, 0.0, 0.0, 0.0, 0.0, 0.0, 0.0, 0.0, 0.0, 0.0, 0.0, 0.0, 0.0, 0.0, 0.0, 0.0, 0.0, 0.0, 0.0, 0.0, 0.0, 0.0, 0.0, 0.0, 0.0, 0.0, 0.0, 0.0, 0.0, 0.0, 0.0, 0.0, 0.0, 0.0, 0.0, 0.0, 1.0, 2.0, 3.0, 5.0, 6.0, 6.0, 5.0, -3.0, -30.0, -89.0, -182.0, -313.0, -558.0, -724.0, -841.0, -904.0, -947.0, -960.0, -960.0, -960.0, -960.0, -960.0, -960.0, -960.0, -960.0, -958.0, -954.0, -943.0, -921.0, -882.0, -822.0, -726.0, -629.0, -536.0, -434.0, -413.0, -412.0, -412.0, -412.0, -413.0, -414.0, -424.0, -460.0, -534.0, -635.0, -743.0, -836.0, -899.0, -906.0, -906.0, -906.0]	[-490.0, -490.0, -490.0, -490.0, -490.0, -490.0, -490.0, -490.0, -490.0, -490.0, -490.0, -490.0, -490.0, -490.0, -490.0, -490.0, -490.0, -490.0, -490.0, -490.0, -490.0, -490.0, -490.0, -490.0, -490.0, -490.0, -490.0, -490.0, -490.0, -490.0, -490.0, -490.0, -490.0, -490.0, -490.0, -490.0, -490.0, -490.0, -490.0, -490.0, -490.0, -490.0, -490.0, -490.0, -490.0, -490.0, -490.0, -490.0, -490.0, -490.0, -490.0, -490.0, -490.0, -490.0, -490.0, -485.0, -476.0, -467.0, -459.0, -453.0, -449.0, -443.0, -434.0, -416.0, -377.0, -305.0, -197.0, -57.0, 201.0, 333.0, 420.0, 467.0, 504.0, 523.0, 529.0, 529.0, 529.0, 529.0, 529.0, 529.0, 530.0, 530.0, 528.0, 522.0, 513.0, 497.0, 468.0, 416.0, 354.0, 287.0, 205.0, 181.0, 175.0, 172.0, 170.0, 168.0, 168.0, 168.0, 193.0, 246.0, 325.0, 418.0, 469.0, 498.0, 499.0, 499.0, 499.0]	[0.012497947725933045, 0.021368855188484304, 0.02689606302010361, 0.039972877653781325, 0.056896858324762434, 0.07358190578815993, 0.09037003584671766, 0.10657312089460902, 0.123659234814113, 0.14027089563023765, 0.15968729103042278, 0.17325391875056084, 0.19036494998726994, 0.20690458951867186, 0.22589124646037817, 0.23988010329776444, 0.25701229719561525, 0.27369495532184374, 0.2911480023904005, 0.3065694344986696, 0.3237067483860301, 0.3403986225021072, 0.35946856474038213, 0.3732533043512376, 0.3903564849315444, 0.4070807856915053, 0.424598344732658, 0.4399149875534931, 0.4570437681104522, 0.47323319982388057, 0.4904507270111935, 0.5067842013086192, 0.5237614299549023, 0.542700982929091, 0.5569393542973557, 0.5760813178349053, 0.5902678065758664, 0.6074160431307973, 0.6238089093967574, 0.6430416675575543, 0.6569646470888983, 0.6762335865641944, 0.6903388380014803, 0.7093302736175247, 0.723709274243447, 0.7409657134121517, 0.7570312411844498, 0.7740845871303463, 0.7904460507415934, 0.8065805278165499, 0.8234546738531208, 0.8400618973391829, 0.8570271793287247, 0.8731858910468873, 0.890041605089209, 0.909390416520182, 0.9233195400447585, 0.942842090051272, 0.9566705203033052, 0.9738808794936631, 0.9899027166247834, 1.0095819385460345, 1.0235417820658768, 1.04139760225371, 1.056820741025149, 1.0738928602950182, 1.0901519239705522, 1.1071131099452032, 1.1233291656390065, 1.140524506176007, 1.1567135965451598, 1.173995294375345, 1.1900492168206256, 1.207018936125678, 1.2233735730842454, 1.240384935052134, 1.2568324146268424, 1.27368027799821, 1.2902144561958266, 1.3070182875962928, 1.3234524551808136, 1.3402873478917172, 1.357027008663863, 1.3737369734299136, 1.389961903798394, 1.4071005830192007, 1.4232456414174521, 1.440400363309891, 1.4568741255352506, 1.4738069808663568, 1.4901998471468687, 1.5070337158540497, 1.5234832434362033, 1.5402990214934107, 1.5568519730150001, 1.573940476271673, 1.5899766493821517, 1.6069944966729963, 1.6235750961786835, 1.64039155690989, 1.6568499591521686, 1.6736070279002888, 1.69017943541985, 1.7069580081588356, 1.7233839837572305, 1.7404089990304783, 1.7567025373573415]
22	inanimate/n23.jpg	animate	inanimate	right	1.101	[0.0, 0.0, 0.0, 0.0, 0.0, 0.0, 0.0, 0.0, 0.0, 0.0, 0.0, 0.0, 0.0, 0.0, 0.0, 0.0, 0.0, 0.0, 0.0, 0.0, 0.0, 0.0, 0.0, 0.0, 0.0, 0.0, 0.0, 0.0, 0.0, 0.0, 0.0, 0.0, 0.0, 0.0, 0.0, 0.0, 0.0, 0.0, 0.0, 0.0, 0.0, 0.0, 0.0, 0.0, 0.0, 0.0, 0.0, 0.0, 0.0, 0.0, 0.0, 0.0, 0.0, 0.0, 0.0, 15.0, 98.0, 227.0, 383.0, 530.0, 687.0, 746.0, 766.0, 769.0, 769.0, 769.0]	[-490.0, -490.0, -490.0, -490.0, -490.0, -490.0, -490.0, -490.0, -490.0, -490.0, -490.0, -490.0, -490.0, -490.0, -491.0, -491.0, -491.0, -491.0, -491.0, -491.0, -491.0, -491.0, -492.0, -493.0, -493.0, -493.0, -493.0, -493.0, -493.0, -493.0, -493.0, -493.0, -493.0, -493.0, -493.0, -493.0, -493.0, -494.0, -494.0, -494.0, -494.0, -494.0, -494.0, -494.0, -494.0, -495.0, -495.0, -495.0, -495.0, -495.0, -495.0, -495.0, -495.0, -495.0, -495.0, -468.0, -366.0, -210.0, -7.0, 167.0, 302.0, 336.0, 349.0, 351.0, 351.0, 351.0]	[0.015111194385099225, 0.019836951978504658, 0.028684990102192387, 0.0455997547833249, 0.0617134105268633, 0.07862646854482591, 0.09529035334708169, 0.11227611530921422, 0.1285491736489348, 0.1454332183348015, 0.16180116728355642, 0.17873777728527784, 0.19505213692900725, 0.2120880748698255, 0.22851405046822038, 0.24523118323122617, 0.26225449185585603, 0.2785162861982826, 0.2956140054448042, 0.31184166646562517, 0.32874516714946367, 0.34523224136501085, 0.3622466753295157, 0.3785091523313895, 0.3956181355752051, 0.41186286325682886, 0.42894453984627035, 0.44670103208045475, 0.4620924268674571, 0.4783699225372402, 0.4956594710238278, 0.5117014467978152, 0.5288797206740128, 0.5450404803996207, 0.5622904342308175, 0.5784303726395592, 0.5955417452059919, 0.6117219609295717, 0.6289299307827605, 0.6450654318614397, 0.6622324417257914, 0.6783952494588448, 0.6955550913407933, 0.7117452057136688, 0.7288804716081358, 0.7451013059762772, 0.7621341719204793, 0.778432147577405, 0.7954295148665551, 0.8118558317946736, 0.8289265857165447, 0.8454488172574202, 0.8623530006007059, 0.8788380268379115, 0.8956005569198169, 0.9146100831858348, 0.9287740439322079, 0.9461830590153113, 0.9621653015055927, 0.9797248445102014, 0.9954695191117935, 1.012312603823375, 1.0288829633354908, 1.0450682990485802, 1.0618799811200006, 1.0817906269221567]
23	animate/a19.jpg	animate	inanimate	left	1.039	[0.0, 0.0, 0.0, 0.0, 0.0, 0.0, 0.0, 0.0, 0.0, 0.0, 0.0, 0.0, 0.0, 0.0, 0.0, 0.0, 0.0, 0.0, 0.0, 0.0, 0.0, 0.0, 0.0, 0.0, 0.0, 0.0, 0.0, 0.0, 0.0, 0.0, 0.0, 0.0, 0.0, 0.0, 0.0, 0.0, 0.0, 0.0, 0.0, 0.0, 0.0, 0.0, 0.0, 0.0, 0.0, 0.0, 0.0, 0.0, 0.0, 0.0, -4.0, -38.0, -116.0, -250.0, -423.0, -605.0, -777.0, -883.0, -918.0, -921.0, -921.0, -921.0]	[-490.0, -490.0, -490.0, -490.0, -490.0, -490.0, -490.0, -490.0, -490.0, -490.0, -490.0, -490.0, -490.0, -490.0, -490.0, -490.0, -490.0, -490.0, -490.0, -490.0, -490.0, -490.0, -490.0, -490.0, -490.0, -490.0, -490.0, -490.0, -490.0, -490.0, -490.0, -490.0, -490.0, -490.0, -490.0, -490.0, -490.0, -490.0, -490.0, -490.0, -490.0, -490.0, -490.0, -490.0, -490.0, -490.0, -490.0, -490.0, -490.0, -490.0, -483.0, -424.0, -288.0, -91.0, 136.0, 325.0, 470.0, 540.0, 540.0, 540.0, 540.0, 540.0]	[0.005311963148415089, 0.010191320645390078, 0.025914149926393293, 0.0424182908172952, 0.05957676736579742, 0.07578770305553917, 0.09299362491583452, 0.10976639499131124, 0.1259903013560688, 0.14242344493686687, 0.15965564944781363, 0.17620552897278685, 0.19289296577335335, 0.2091056081408169, 0.22616031940560788, 0.24244088707200717, 0.2593757903960068, 0.2763400483818259, 0.29274963997886516, 0.3090919889364159, 0.326252172148088, 0.34242317188181914, 0.3594720804831013, 0.3756976935110288, 0.3928445647325134, 0.4095415588381002, 0.42621875564509537, 0.44245119532570243, 0.4594840612699045, 0.4761776420637034, 0.49282616686832625, 0.5092436091363197, 0.5263785336865112, 0.5428690212429501, 0.5593851087905932, 0.5763998840848217, 0.5930115449009463, 0.6095211471256334, 0.6261590906069614, 0.6454840087099001, 0.6595578575070249, 0.676185219650506, 0.6928873337747063, 0.7092197840684094, 0.7262485540268244, 0.7424147750862176, 0.7594374010368483, 0.7763798136875266, 0.7927535652997904, 0.8090897702786606, 0.8262301561626373, 0.8424107132159406, 0.8592268326028716, 0.8762313679035287, 0.8928201594098937, 0.9092799269710667, 0.9261789903248427, 0.9428326351335272, 0.9593603280081879, 0.9764611192513257, 0.992969014798291, 1.0095008036587387]
24	inanimate/n20.jpg	inanimate	animate	left	1.435	[0.0, 0.0, 0.0, 0.0, 0.0, 0.0, 0.0, 0.0, 0.0, 0.0, 0.0, 0.0, 0.0, 0.0, 0.0, 0.0, 0.0, 0.0, 0.0, 0.0, 0.0, 0.0, 0.0, 0.0, 0.0, 0.0, 0.0, 0.0, 0.0, 0.0, 0.0, 0.0, 0.0, 0.0, 0.0, 0.0, 0.0, 0.0, 0.0, 0.0, 0.0, 0.0, 0.0, 0.0, 0.0, 0.0, 0.0, 0.0, 0.0, 0.0, 0.0, 0.0, 0.0, 0.0, 0.0, 0.0, 0.0, 0.0, 0.0, 0.0, 0.0, 0.0, 0.0, 0.0, 0.0, 0.0, 0.0, 0.0, 0.0, 0.0, 0.0, 0.0, 0.0, 0.0, 0.0, -5.0, -45.0, -122.0, -227.0, -356.0, -496.0, -611.0, -678.0, -697.0, -697.0, -697.0]	[-490.0, -490.0, -490.0, -490.0, -490.0, -490.0, -490.0, -490.0, -490.0, -490.0, -490.0, -490.0, -490.0, -490.0, -490.0, -490.0, -490.0, -490.0, -490.0, -490.0, -490.0, -490.0, -490.0, -490.0, -490.0, -490.0, -490.0, -490.0, -490.0, -490.0, -490.0, -490.0, -490.0, -490.0, -490.0, -490.0, -490.0, -490.0, -490.0, -490.0, -490.0, -490.0, -490.0, -490.0, -490.0, -490.0, -490.0, -490.0, -490.0, -490.0, -490.0, -490.0, -490.0, -490.0, -490.0, -490.0, -490.0, -490.0, -490.0, -490.0, -490.0, -490.0, -490.0, -490.0, -490.0, -490.0, -490.0, -490.0, -490.0, -490.0, -490.0, -490.0, -490.0, -490.0, -490.0, -489.0, -453.0, -374.0, -277.0, -88.0, 122.0, 262.0, 335.0, 360.0, 360.0, 360.0]	[0.006907354341819882, 0.013238401763373986, 0.02919948159251362, 0.0458753130515106, 0.06205450477136765, 0.0792942186089931, 0.09546590100217145, 0.11265270820877049, 0.12923740371479653, 0.1458651072025532, 0.1622173548239516, 0.1792840127600357, 0.19545603646838572, 0.2124984597467119, 0.22933574179478455, 0.2457391893985914, 0.26211635433719493, 0.27929770021000877, 0.2954591426096158, 0.3125049792142818, 0.32879920020059217, 0.34568222089728806, 0.362105807143962, 0.37925472637289204, 0.395453374076169, 0.4123944214079529, 0.42939520202344283, 0.4458740842528641, 0.46217376658751164, 0.4791895658709109, 0.4957100907486165, 0.5126924393844092, 0.5290651669929503, 0.5460222569818143, 0.562366995276534, 0.579286197287729, 0.5957684928434901, 0.6126706281938823, 0.6289477825193899, 0.645963581817341, 0.6621202455426101, 0.6792544874333544, 0.6957064043381251, 0.7126204863452585, 0.7290119872923242, 0.7459526932798326, 0.7624848234845558, 0.7793340521893697, 0.79572179846582, 0.8126505577965872, 0.8288150721928105, 0.8458947007748066, 0.8623797270120122, 0.8793566143140197, 0.8956904299557209, 0.912574133311864, 0.9290758848655969, 0.9460357055068016, 0.9623541611508699, 0.9793911230954109, 0.9955457388277864, 1.0125915754324524, 1.028763940485078, 1.0459244650264736, 1.0623975445923861, 1.0793283519305987, 1.0956765035662102, 1.1126728468516376, 1.129087899782462, 1.14596614180482, 1.1623921174032148, 1.179390167366364, 1.1957188630040037, 1.2126407956675394, 1.2291186539077898, 1.245960373285925, 1.2623682582197944, 1.2793222761974903, 1.2956253718584776, 1.3126671124628047, 1.32906373339938, 1.3460126313875662, 1.3623655616829637, 1.3792881770204986, 1.395674216633779, 1.4125900053040823]
25	animate/a34.jpg	animate	inanimate	left	1.232	[0.0, 0.0, 0.0, 0.0, 0.0, 0.0, 0.0, 0.0, 0.0, 0.0, 0.0, 0.0, 0.0, 0.0, 0.0, 0.0, 0.0, 0.0, 0.0, 0.0, 0.0, 0.0, 0.0, 0.0, 0.0, 0.0, 0.0, 0.0, 0.0, 0.0, 0.0, 0.0, 0.0, 0.0, -2.0, -3.0, -4.0, -4.0, -5.0, -6.0, -6.0, -7.0, -7.0, -7.0, -7.0, -7.0, -7.0, -7.0, -7.0, -7.0, -7.0, -7.0, -7.0, -7.0, -7.0, -7.0, -7.0, -7.0, -8.0, -11.0, -18.0, -28.0, -48.0, -86.0, -161.0, -254.0, -372.0, -507.0, -653.0, -774.0, -833.0, -842.0, -842.0, -842.0]	[-490.0, -490.0, -490.0, -490.0, -490.0, -490.0, -490.0, -490.0, -490.0, -490.0, -490.0, -490.0, -490.0, -490.0, -490.0, -490.0, -490.0, -490.0, -490.0, -490.0, -490.0, -490.0, -490.0, -490.0, -490.0, -490.0, -490.0, -490.0, -490.0, -490.0, -490.0, -490.0, -490.0, -490.0, -489.0, -489.0, -490.0, -490.0, -490.0, -490.0, -490.0, -490.0, -490.0, -490.0, -490.0, -490.0, -490.0, -490.0, -490.0, -490.0, -490.0, -490.0, -490.0, -490.0, -490.0, -490.0, -490.0, -490.0, -490.0, -490.0, -490.0, -490.0, -485.0, -462.0, -405.0, -307.0, -185.0, -6.0, 184.0, 316.0, 371.0, 384.0, 385.0, 385.0]	[0.01076260996342171, 0.016562884324230254, 0.021975745548843406, 0.03631412754475605, 0.05326780419272836, 0.0692346866853768, 0.08624263531237375, 0.10300038673449308, 0.11971035151509568, 0.13598887117404956, 0.152972243813565, 0.16933712076570373, 0.18632766140217427, 0.20263929037901107, 0.21970185231475625, 0.23600255863857456, 0.2530006086017238, 0.2693453468964435, 0.28651338077906985, 0.3026727751712315, 0.3196701424603816, 0.3359455901372712, 0.3530426267097937, 0.3693508423602907, 0.38634718566027004, 0.40268134263169486, 0.41977803787449375, 0.4360115015588235, 0.45302388751588296, 0.4693385885038879, 0.48635233979439363, 0.5026486087735975, 0.5197732933447696, 0.5359736477112165, 0.5531058416090673, 0.5693406706268433, 0.5863305286038667, 0.6029223921068478, 0.6198716314247577, 0.6361364977638004, 0.6531598063884303, 0.6693195421103155, 0.6862981360900449, 0.7028217329643667, 0.719784284272464, 0.7361177585698897, 0.7531301445269492, 0.7692031816404779, 0.7864073968230514, 0.8026941084826831, 0.8197836357430788, 0.8361413446982624, 0.8530663493584143, 0.8695913115661824, 0.8864408816152718, 0.9028204358910443, 0.9198406725045061, 0.9361806321394397, 0.9531145114742685, 0.9692418205522699, 0.9864159984281287, 1.0028010140376864, 1.0198509466426913, 1.0361953436076874, 1.0530329669854837, 1.0693575666227844, 1.0863556165859336, 1.1028846747940406, 1.1198212847812101, 1.136151345752296, 1.153064062440535, 1.1694729713635752, 1.1863832987000933, 1.2026904903614195]
26	inanimate/n71.jpg	animate	inanimate	right	1.577	[0.0, 0.0, 0.0, 0.0, 0.0, 0.0, 0.0, 0.0, 0.0, 0.0, 0.0, 0.0, 0.0, 0.0, 0.0, 0.0, 0.0, 0.0, 0.0, 0.0, 0.0, 0.0, 0.0, 0.0, 0.0, 0.0, 0.0, 0.0, 0.0, 0.0, 0.0, 0.0, 0.0, -1.0, -1.0, -1.0, -1.0, -1.0, -1.0, -1.0, -1.0, -1.0, -1.0, -1.0, -1.0, -1.0, -1.0, -1.0, -1.0, -1.0, -1.0, -1.0, -1.0, -1.0, -1.0, -1.0, -1.0, -2.0, -2.0, -2.0, -2.0, -2.0, -2.0, -2.0, -2.0, -2.0, -2.0, -3.0, -4.0, -4.0, -4.0, -4.0, -4.0, -4.0, -5.0, -5.0, -5.0, -5.0, -5.0, -5.0, -5.0, -5.0, -5.0, 18.0, 103.0, 219.0, 359.0, 472.0, 588.0, 693.0, 760.0, 804.0, 835.0, 844.0, 844.0]	[-490.0, -490.0, -490.0, -490.0, -490.0, -490.0, -490.0, -490.0, -490.0, -490.0, -490.0, -490.0, -490.0, -490.0, -490.0, -490.0, -490.0, -490.0, -490.0, -490.0, -490.0, -490.0, -490.0, -490.0, -490.0, -490.0, -490.0, -490.0, -490.0, -490.0, -490.0, -490.0, -490.0, -490.0, -490.0, -490.0, -490.0, -491.0, -491.0, -491.0, -491.0, -491.0, -491.0, -491.0, -491.0, -491.0, -491.0, -491.0, -491.0, -491.0, -491.0, -491.0, -491.0, -491.0, -491.0, -491.0, -491.0, -491.0, -491.0, -491.0, -491.0, -491.0, -491.0, -491.0, -491.0, -491.0, -491.0, -492.0, -493.0, -493.0, -493.0, -493.0, -493.0, -493.0, -493.0, -493.0, -493.0, -493.0, -493.0, -493.0, -493.0, -493.0, -493.0, -469.0, -397.0, -270.0, -121.0, 25.0, 193.0, 314.0, 370.0, 400.0, 424.0, 432.0, 433.0]	[0.011284508364042267, 0.017168068006867543, 0.022766614478314295, 0.03558503992098849, 0.05272303646779619, 0.06891076151805464, 0.0861381873692153, 0.10228119776002131, 0.1193608263565693, 0.13621517506544478, 0.15271351327828597, 0.16898111028422136, 0.18600476023857482, 0.20233447987993713, 0.21948237509059254, 0.23620121453132015, 0.25253264083585236, 0.2689234591089189, 0.28592697040585335, 0.3023464606667403, 0.319448958573048, 0.3356933449249482, 0.3527019762113923, 0.36907470383448526, 0.38618607640091795, 0.402324990805937, 0.4194657180341892, 0.4357155657198746, 0.45282386628969107, 0.4690245620004134, 0.4861157959094271, 0.5023663262545597, 0.5194466375105549, 0.5356794185354374, 0.5526170525263296, 0.5690283507865388, 0.5861912646651035, 0.6023561203910504, 0.6194200476602418, 0.6356760393391596, 0.6527836572495289, 0.6691775475192117, 0.6861793521384243, 0.7025015624531079, 0.7194327111210441, 0.7358054387295851, 0.7527976860292256, 0.7689256777812261, 0.7861015623202547, 0.8024814579257509, 0.8194730225659441, 0.8358607688423945, 0.8527557361958316, 0.8691646451188717, 0.8861906844103942, 0.9025009480537847, 0.9193996700632852, 0.9355873951135436, 0.9527503089921083, 0.9692244125617435, 0.9861405425617704, 1.002511904851417, 1.0195195121341385, 1.0355567092628917, 1.05271825780801, 1.0691961160337087, 1.0862040646607056, 1.1024897523311665, 1.119441722315969, 1.1355864393844968, 1.1526988359546522, 1.1692920647910796, 1.1861447068222333, 1.2022474399127532, 1.2192639218701515, 1.235902206681203, 1.2527572380640777, 1.2692528456100263, 1.2861870662745787, 1.3025075699115405, 1.3194632945669582, 1.335864352833596, 1.3526688669080613, 1.369298959718435, 1.3860905031178845, 1.4025157960422803, 1.4194107633957174, 1.4359036402893253, 1.4527781276410678, 1.4692286792269442, 1.4861349105631234, 1.5025113928422797, 1.519763394680922, 1.5356650825415272, 1.5528495004109573]
27	inanimate/n77.jpg	animate	inanimate	right	0.945	[0.0, 0.0, 0.0, 0.0, 0.0, 0.0, 0.0, 0.0, 0.0, 0.0, 0.0, 0.0, 0.0, 0.0, 0.0, 0.0, 0.0, 0.0, -2.0, -8.0, -9.0, -9.0, -9.0, -9.0, -9.0, -9.0, -9.0, -9.0, -9.0, -9.0, -9.0, -9.0, -9.0, -9.0, -9.0, -9.0, -9.0, -9.0, -9.0, -9.0, -9.0, -11.0, -12.0, -12.0, -12.0, -12.0, -12.0, 38.0, 141.0, 274.0, 427.0, 609.0, 652.0, 739.0, 769.0, 781.0, 783.0]	[-490.0, -490.0, -490.0, -490.0, -490.0, -490.0, -490.0, -490.0, -490.0, -490.0, -490.0, -490.0, -490.0, -490.0, -490.0, -490.0, -490.0, -490.0, -489.0, -489.0, -489.0, -489.0, -489.0, -489.0, -489.0, -489.0, -489.0, -489.0, -489.0, -489.0, -489.0, -489.0, -489.0, -489.0, -489.0, -489.0, -489.0, -489.0, -489.0, -489.0, -489.0, -489.0, -490.0, -491.0, -492.0, -492.0, -493.0, -447.0, -341.0, -187.0, 3.0, 252.0, 317.0, 430.0, 457.0, 463.0, 465.0]	[0.014574277331121266, 0.020117186504649, 0.027553129359148443, 0.04487851781595964, 0.06151953330845572, 0.07769428768369835, 0.09481726559170056, 0.11102308129193261, 0.12805970190674998, 0.14438498420349788, 0.16143798880511895, 0.17791755370853934, 0.1947643930761842, 0.2110125340986997, 0.22808772535063326, 0.24450277828145772, 0.2614011589612346, 0.2776830919610802, 0.2947507738863351, 0.3113279600656824, 0.3281546607904602, 0.34457142038445454, 0.3613950490980642, 0.3778903153142892, 0.3948272666457342, 0.41105083168076817, 0.4281867802346824, 0.4445519985165447, 0.46155209648713935, 0.4779046854528133, 0.4948259354423499, 0.5110518898145529, 0.5281100144056836, 0.5446100592962466, 0.5614910319854971, 0.5779180315730628, 0.5948723908950342, 0.6112283931870479, 0.6281643205147702, 0.6443930055393139, 0.6614753647882026, 0.6779003163828747, 0.6948696943582036, 0.7112209179904312, 0.7281049626762979, 0.7442773277289234, 0.7614306842879159, 0.7778774811886251, 0.794742752565071, 0.8112038854596904, 0.8281166021333775, 0.8445343857310945, 0.8614873797196196, 0.8779000433132751, 0.8947861360065872, 0.911184804936056, 0.9281309722573496]
28	animate/a57.jpg	inanimate	animate	right	1.696	[0.0, 0.0, 0.0, 0.0, 0.0, 0.0, 0.0, 0.0, 0.0, 0.0, 0.0, 0.0, 0.0, 0.0, 0.0, 0.0, 0.0, 0.0, 0.0, 0.0, 0.0, 0.0, 0.0, 0.0, 0.0, 0.0, -1.0, -1.0, -1.0, -1.0, -1.0, -1.0, -1.0, -1.0, -2.0, -2.0, -2.0, -2.0, -2.0, -2.0, -2.0, -2.0, -2.0, -2.0, -2.0, -2.0, 26.0, 109.0, 206.0, 318.0, 425.0, 522.0, 593.0, 635.0, 668.0, 690.0, 695.0, 699.0, 700.0, 701.0, 704.0, 705.0, 707.0, 708.0, 710.0, 710.0, 710.0, 710.0, 710.0, 710.0, 709.0, 707.0, 705.0, 699.0, 694.0, 691.0, 691.0, 691.0, 691.0, 690.0, 690.0, 690.0, 690.0, 690.0, 690.0, 690.0, 690.0, 693.0, 695.0, 698.0, 700.0, 700.0, 700.0, 698.0, 697.0, 697.0, 697.0, 697.0, 697.0, 697.0, 697.0, 697.0]	[-490.0, -490.0, -490.0, -490.0, -490.0, -490.0, -490.0, -490.0, -490.0, -490.0, -490.0, -490.0, -490.0, -490.0, -490.0, -490.0, -490.0, -490.0, -490.0, -490.0, -490.0, -490.0, -490.0, -490.0, -490.0, -490.0, -492.0, -492.0, -492.0, -492.0, -493.0, -493.0, -493.0, -493.0, -494.0, -494.0, -494.0, -494.0, -494.0, -494.0, -494.0, -494.0, -494.0, -494.0, -494.0, -494.0, -440.0, -318.0, -196.0, -64.0, 62.0, 173.0, 253.0, 297.0, 317.0, 327.0, 330.0, 333.0, 333.0, 333.0, 335.0, 336.0, 336.0, 338.0, 338.0, 338.0, 338.0, 338.0, 338.0, 341.0, 345.0, 345.0, 345.0, 342.0, 338.0, 336.0, 336.0, 336.0, 336.0, 336.0, 337.0, 337.0, 337.0, 337.0, 337.0, 337.0, 341.0, 347.0, 352.0, 359.0, 361.0, 362.0, 362.0, 361.0, 360.0, 360.0, 360.0, 360.0, 360.0, 360.0, 360.0, 360.0]	[0.011900273384526372, 0.017502915841760114, 0.02199724953970872, 0.038859790249262005, 0.05600836813391652, 0.07220257850713097, 0.08936958838603459, 0.10612802246760111, 0.12249665409035515, 0.1403470129444031, 0.1560213729244424, 0.17226405261317268, 0.18936757452320307, 0.20558772621734533, 0.22259328550717328, 0.23884722917864565, 0.25601014305721037, 0.27226988940674346, 0.28935224865563214, 0.3055918563477462, 0.32260765563114546, 0.33887627664080355, 0.35601427318761125, 0.3721664995973697, 0.38917888553987723, 0.4055993998044869, 0.4225189431454055, 0.43894014006946236, 0.4561057846149197, 0.4722672269999748, 0.4893267169391038, 0.5055820259440225, 0.5225568652531365, 0.5389367608731845, 0.5559918134676991, 0.572266237140866, 0.5892745270975865, 0.6055885454115923, 0.6225551927200286, 0.6389309923397377, 0.6559802422707435, 0.6724864311545389, 0.6894332811498316, 0.7057288674695883, 0.7226832267915597, 0.7390672183973948, 0.7560639030416496, 0.7724734946386889, 0.7893630006583408, 0.8057316322665429, 0.8227788342046551, 0.8390897805220447, 0.8560359478433384, 0.8724899127555545, 0.88937976010493, 0.905772626385442, 0.922640287084505, 0.9391256546368822, 0.956072504632175, 0.9725053068832494, 0.9893081142799929, 1.005741257860791, 1.0227085878432263, 1.0391052087798016, 1.0560438667744165, 1.0724421943887137, 1.0893433057353832, 1.105732417330728, 1.122698381979717, 1.139109680254478, 1.1560630155727267, 1.1724995724798646, 1.1893122785404557, 1.2057502007955918, 1.222707973443903, 1.2388448398560286, 1.2559794230764965, 1.2724569399724714, 1.2893631713232026, 1.3057434082584223, 1.322695036913501, 1.339099167191307, 1.3559859425440663, 1.372432398115052, 1.3893850507738534, 1.405662205113913, 1.4227319350320613, 1.4388247694587335, 1.4559204407123616, 1.4724358455860056, 1.489378940910683, 1.505731529876357, 1.5227510838303715, 1.539070222133887, 1.555986352133914, 1.572453287706594, 1.5893714657140663, 1.6056571533699753, 1.6226924086513463, 1.6390521656139754, 1.656053970233188, 1.6724253325228347]
29	inanimate/n67.jpg	animate	inanimate	right	1.083	[0.0, 0.0, 0.0, 0.0, 0.0, 0.0, 0.0, 0.0, 0.0, 0.0, 0.0, 0.0, 0.0, 0.0, 0.0, -4.0, -8.0, -9.0, -10.0, -10.0, -10.0, -10.0, -10.0, -10.0, -10.0, -10.0, -10.0, -10.0, -10.0, -10.0, -10.0, -10.0, -10.0, -10.0, -10.0, -10.0, -10.0, -10.0, -10.0, -10.0, -10.0, -10.0, -10.0, -10.0, -10.0, -11.0, -12.0, -12.0, -12.0, -12.0, -12.0, -7.0, 6.0, 32.0, 99.0, 225.0, 373.0, 557.0, 731.0, 873.0, 959.0, 959.0, 959.0, 959.0, 958.0]	[-490.0, -490.0, -490.0, -490.0, -490.0, -490.0, -490.0, -490.0, -490.0, -490.0, -490.0, -490.0, -490.0, -490.0, -489.0, -489.0, -489.0, -489.0, -489.0, -489.0, -489.0, -489.0, -489.0, -489.0, -489.0, -489.0, -489.0, -489.0, -489.0, -489.0, -489.0, -489.0, -489.0, -489.0, -489.0, -489.0, -489.0, -489.0, -489.0, -489.0, -489.0, -489.0, -489.0, -489.0, -489.0, -490.0, -491.0, -493.0, -493.0, -493.0, -493.0, -493.0, -488.0, -476.0, -434.0, -330.0, -205.0, -67.0, 71.0, 195.0, 321.0, 353.0, 361.0, 365.0, 365.0]	[0.014052378945052624, 0.019215725638787262, 0.02656531120010186, 0.04334524928708561, 0.06039108589175157, 0.0765556002734229, 0.09370315416890662, 0.10989497520495206, 0.12712274238583632, 0.14366204058751464, 0.16016106147435494, 0.17650750643224455, 0.19341134844580665, 0.21030631579924375, 0.22699204592208844, 0.2460575508303009, 0.260308551529306, 0.27718133221787866, 0.29341104124614503, 0.309821656846907, 0.32702314137713984, 0.3436573301878525, 0.3601184630970238, 0.3764952867059037, 0.39366775791859254, 0.4098670882958686, 0.4269654902018374, 0.44380413758335635, 0.46032602779450826, 0.4765229688346153, 0.4935821174294688, 0.5103088075265987, 0.526767551098601, 0.543515062527149, 0.560449624521425, 0.576492624313687, 0.5934118263103301, 0.6103887136268895, 0.6267607585759833, 0.6433823180559557, 0.6597024803777458, 0.6765448824153282, 0.696077672415413, 0.7099811959633371, 0.7282920132565778, 0.7433110135607421, 0.7610374684882117, 0.7766503884922713, 0.7943420274386881, 0.8099648461065954, 0.8271926132874796, 0.8436291702091694, 0.8603988682880299, 0.8768449825292919, 0.8937320992117748, 0.9100577228527982, 0.926989212850458, 0.9434066551184515, 0.9603907104174141, 0.9768497953336919, 0.9936997066979529, 1.0102253515797202, 1.0269476043467876, 1.0436493771267124, 1.0604733471845975]
30	inanimate/n27.jpg	inanimate	animate	left	1.051	[0.0, 0.0, 0.0, 0.0, 0.0, 0.0, 0.0, 0.0, 0.0, 0.0, 0.0, 0.0, 0.0, 0.0, 0.0, 0.0, 0.0, 0.0, 0.0, 0.0, 1.0, 1.0, 1.0, 1.0, 1.0, 1.0, 1.0, 1.0, 1.0, 1.0, 1.0, 1.0, 1.0, 1.0, 1.0, 1.0, 1.0, 1.0, 1.0, 1.0, 1.0, 1.0, 1.0, 1.0, 1.0, 1.0, 1.0, 1.0, 1.0, -6.0, -23.0, -50.0, -97.0, -172.0, -257.0, -362.0, -472.0, -596.0, -653.0, -687.0, -695.0, -697.0, -697.0]	[-490.0, -490.0, -490.0, -490.0, -490.0, -490.0, -490.0, -490.0, -490.0, -490.0, -490.0, -490.0, -490.0, -490.0, -490.0, -490.0, -490.0, -490.0, -490.0, -490.0, -491.0, -491.0, -491.0, -491.0, -491.0, -491.0, -492.0, -492.0, -492.0, -492.0, -492.0, -492.0, -492.0, -492.0, -492.0, -492.0, -492.0, -492.0, -492.0, -492.0, -492.0, -492.0, -492.0, -492.0, -492.0, -492.0, -492.0, -492.0, -494.0, -495.0, -495.0, -487.0, -453.0, -345.0, -179.0, -15.0, 119.0, 302.0, 389.0, 436.0, 450.0, 456.0, 456.0]	[0.015131674386793748, 0.020109677163418382, 0.03138493538426701, 0.045535584140452556, 0.06297839121543802, 0.07899954567255918, 0.09523062003427185, 0.1122375446575461, 0.12846384035947267, 0.14534993303823285, 0.16491412569303066, 0.17858963868638966, 0.19687007732864004, 0.21192730695474893, 0.22883592762809712, 0.245306276527117, 0.2624005824472988, 0.27859752348740585, 0.29566588808665983, 0.31184542112168856, 0.3289697643631371, 0.34542236394190695, 0.36230299530143384, 0.3787402348825708, 0.3956805995403556, 0.41181439394131303, 0.42895034250977915, 0.4453875820909161, 0.4622852800966939, 0.4787460716761416, 0.49556833505630493, 0.5120492652931716, 0.5289585686405189, 0.5454227735317545, 0.5623208128818078, 0.5787269911525073, 0.5956905664643273, 0.6121260993822943, 0.6289528001070721, 0.6453494210436475, 0.6622914923646022, 0.6787447746028192, 0.6956175553059438, 0.711899829635513, 0.7289671702310443, 0.7454149911354762, 0.7622973291581729, 0.778525672852993, 0.7958186346659204, 0.8118500291311648, 0.8289979243418202, 0.8451112387701869, 0.8622703979781363, 0.8784642670216272, 0.8956596075440757, 0.9118538179318421, 0.9289153558493126, 0.9451180995529285, 0.9623090027598664, 0.9784752238192596, 0.9959279295435408, 1.011817670747405, 1.0289297259878367]
31	inanimate/n25.jpg	animate	inanimate	right	0.963	[0.0, 0.0, 0.0, 0.0, 0.0, 0.0, 0.0, 0.0, 0.0, 0.0, 0.0, 0.0, 0.0, 0.0, 0.0, 0.0, 0.0, 0.0, 0.0, 0.0, 0.0, 0.0, 0.0, 0.0, 0.0, 0.0, 0.0, 0.0, 0.0, 0.0, 0.0, 0.0, 0.0, 0.0, 0.0, 0.0, 0.0, 0.0, 0.0, 0.0, 0.0, 0.0, 0.0, -1.0, -1.0, 4.0, 26.0, 79.0, 176.0, 302.0, 457.0, 590.0, 692.0, 756.0, 810.0, 820.0, 824.0, 824.0]	[-490.0, -490.0, -490.0, -490.0, -490.0, -490.0, -490.0, -490.0, -490.0, -490.0, -490.0, -490.0, -490.0, -490.0, -490.0, -490.0, -490.0, -490.0, -490.0, -490.0, -490.0, -490.0, -490.0, -490.0, -490.0, -490.0, -490.0, -490.0, -490.0, -490.0, -490.0, -490.0, -490.0, -490.0, -490.0, -490.0, -490.0, -490.0, -490.0, -490.0, -490.0, -490.0, -490.0, -490.0, -489.0, -470.0, -430.0, -354.0, -255.0, -115.0, 70.0, 241.0, 367.0, 447.0, 493.0, 501.0, 505.0, 505.0]	[0.0009790800249902532, 0.011351853390806355, 0.01708966378646437, 0.03376754323835485, 0.05096936909831129, 0.06709804350975901, 0.0844015866459813, 0.10053674639493693, 0.11772594292415306, 0.13378123070287984, 0.15094755790778436, 0.16718375227355864, 0.18437294880277477, 0.20049343121354468, 0.21767477708635852, 0.23383246481535025, 0.25098718669323716, 0.2671615997387562, 0.28437332426256035, 0.30052555065776687, 0.3175410086114425, 0.33409703214420006, 0.3509093968605157, 0.36994588845118415, 0.38422726780117955, 0.4021991412737407, 0.41764992802927736, 0.4362682865030365, 0.45098452430102043, 0.4682324301247718, 0.48426416591973975, 0.5007754748075968, 0.5172980476781959, 0.5370793282199884, 0.5507387985562673, 0.5704579564626329, 0.5840549628337612, 0.6033143449749332, 0.6174137937487103, 0.6366052505909465, 0.650597179424949, 0.6684758689370938, 0.6839307516929694, 0.7011762681941036, 0.7174418172071455, 0.7345262244489277, 0.7520878154609818, 0.7677519354474498, 0.7840871164080454, 0.801175960994442, 0.8172718674177304, 0.8342890320491279, 0.8505951996921794, 0.8676232869765954, 0.8840615505614551, 0.900919653926394, 0.9172162642498733, 0.9342545915278606]
32	animate/a53.jpg	animate	inanimate	left	1.007	[0.0, 0.0, 0.0, 0.0, 0.0, 0.0, 0.0, 0.0, 0.0, 0.0, 0.0, 0.0, 0.0, 0.0, 0.0, 0.0, 0.0, 0.0, 0.0, 0.0, 0.0, 0.0, 0.0, 0.0, 0.0, 0.0, 0.0, 0.0, 0.0, 0.0, 0.0, 0.0, 0.0, 0.0, 0.0, 0.0, 0.0, 0.0, 0.0, 0.0, 0.0, 0.0, 0.0, 0.0, -3.0, -9.0, -22.0, -52.0, -103.0, -174.0, -278.0, -394.0, -585.0, -713.0, -830.0, -905.0, -932.0, -937.0, -937.0, -937.0, -937.0]	[-490.0, -490.0, -490.0, -490.0, -490.0, -490.0, -490.0, -490.0, -490.0, -490.0, -490.0, -490.0, -490.0, -490.0, -490.0, -490.0, -490.0, -490.0, -490.0, -490.0, -490.0, -490.0, -490.0, -490.0, -490.0, -490.0, -490.0, -490.0, -490.0, -490.0, -490.0, -490.0, -490.0, -490.0, -490.0, -490.0, -490.0, -490.0, -490.0, -490.0, -490.0, -490.0, -490.0, -487.0, -481.0, -473.0, -465.0, -453.0, -431.0, -394.0, -313.0, -168.0, 92.0, 242.0, 359.0, 424.0, 451.0, 459.0, 459.0, 459.0, 461.0]	[0.014635034633101895, 0.0201352771546226, 0.027461652076453902, 0.0443712967535248, 0.06077098968671635, 0.07797213287267368, 0.0941049032844603, 0.11131287313764915, 0.12803683258243836, 0.1444119495281484, 0.1607041225215653, 0.1778134470951045, 0.1940981107618427, 0.21129003795795143, 0.22800546405778732, 0.24443075698218308, 0.2607113246485824, 0.2778704838565318, 0.29409336621756665, 0.31096375758352224, 0.3280259781895438, 0.3444843804172706, 0.3607830387481954, 0.37795858195750043, 0.39408042970171664, 0.4109781277074944, 0.4280741402908461, 0.4446008091617841, 0.4635253434680635, 0.47789137344807386, 0.4940620318375295, 0.5111873990681488, 0.5275181427132338, 0.5445148273429368, 0.5608626376342727, 0.5779050609125989, 0.5942095218924806, 0.6112853958184132, 0.6275075955200009, 0.6446124827634776, 0.6608428744511912, 0.6779146523767849, 0.6942006813624175, 0.7112830406258581, 0.7275103603169555, 0.7446207088942174, 0.7610483911412302, 0.7779518918250687, 0.7944669553689891, 0.8112683974322863, 0.8276653596985852, 0.8446415643411456, 0.8610443292709533, 0.8778269980248297, 0.8943956508737756, 0.9112598982319469, 0.927626823191531, 0.9446675397921354, 0.9609788274392486, 0.9778587761393283, 0.9942130717681721]
33	inanimate/n15.jpg	animate	inanimate	right	1.05	[0.0, 0.0, 0.0, 0.0, 0.0, 0.0, 0.0, 0.0, 0.0, 0.0, 0.0, 0.0, 0.0, 0.0, 0.0, 0.0, 0.0, 0.0, 0.0, 0.0, 0.0, 0.0, 0.0, 0.0, 0.0, 0.0, 0.0, 0.0, 0.0, 0.0, 0.0, -2.0, -8.0, -12.0, -16.0, -22.0, -25.0, -26.0, -26.0, -26.0, -26.0, -26.0, -26.0, -26.0, -26.0, -26.0, -26.0, -26.0, -26.0, -26.0, -26.0, -27.0, -11.0, 61.0, 137.0, 251.0, 394.0, 543.0, 691.0, 805.0, 886.0, 944.0, 953.0, 953.0]	[-490.0, -490.0, -490.0, -490.0, -490.0, -490.0, -490.0, -490.0, -490.0, -490.0, -490.0, -490.0, -490.0, -490.0, -490.0, -490.0, -490.0, -490.0, -490.0, -490.0, -490.0, -490.0, -490.0, -490.0, -490.0, -490.0, -490.0, -490.0, -490.0, -490.0, -490.0, -489.0, -489.0, -492.0, -496.0, -499.0, -503.0, -503.0, -503.0, -503.0, -503.0, -503.0, -503.0, -503.0, -503.0, -503.0, -503.0, -503.0, -503.0, -503.0, -503.0, -501.0, -477.0, -392.0, -309.0, -197.0, -67.0, 84.0, 210.0, 294.0, 344.0, 366.0, 371.0, 371.0]	[0.009277571763959713, 0.0149484808644047, 0.02027771546272561, 0.033521442019264214, 0.05049662265810184, 0.06756566991680302, 0.08414797610021196, 0.1003111251629889, 0.11745799638447352, 0.13366620140732266, 0.15075402200454846, 0.16709705363609828, 0.1840872529282933, 0.20041697256965563, 0.217509230482392, 0.23371299818973057, 0.2506915921694599, 0.2670516904472606, 0.2840797777316766, 0.30053101197700016, 0.3174863953026943, 0.333977906848304, 0.35081279957375955, 0.3672599378187442, 0.3841699238255387, 0.40032112621702254, 0.41746321877872106, 0.4338557437149575, 0.4507756283855997, 0.4672510972886812, 0.48405629400804173, 0.5006024188769516, 0.5174547195783816, 0.5338148178707343, 0.5508265211537946, 0.5671668221330037, 0.5841402961086715, 0.6005652476887917, 0.6175004923570668, 0.6338401106622769, 0.6507879846467404, 0.6671088296279777, 0.6841300902451621, 0.7005471911688801, 0.7174401105148718, 0.7336073555779876, 0.7506429521890823, 0.766929663848714, 0.7839843751135049, 0.8005072893283796, 0.8174776913074311, 0.8338442749227397, 0.8508112635754514, 0.8669464233098552, 0.8840806652005995, 0.900324710222776, 0.9174855760938954, 0.9338794663635781, 0.9507539537298726, 0.9671782226505456, 0.9841206353157759, 1.0003056296991417, 1.0174388475861633, 1.0338358098670142]
34	inanimate/n60.jpg	animate	inanimate	right	0.966	[0.0, 0.0, 0.0, 0.0, 0.0, 0.0, 0.0, 0.0, 0.0, 0.0, 0.0, 0.0, 0.0, 0.0, 0.0, 0.0, 0.0, 0.0, 0.0, 0.0, 0.0, 0.0, 0.0, 0.0, 0.0, 0.0, 0.0, 0.0, 0.0, 0.0, 0.0, 0.0, 0.0, 0.0, 0.0, 0.0, 0.0, 0.0, 0.0, 0.0, 0.0, 0.0, 0.0, 0.0, 0.0, 0.0, 0.0, 1.0, 32.0, 107.0, 308.0, 460.0, 606.0, 729.0, 807.0, 844.0, 852.0, 852.0, 852.0]	[-490.0, -490.0, -490.0, -490.0, -490.0, -490.0, -490.0, -490.0, -490.0, -490.0, -490.0, -490.0, -490.0, -490.0, -490.0, -490.0, -490.0, -490.0, -490.0, -490.0, -490.0, -490.0, -490.0, -490.0, -490.0, -490.0, -490.0, -490.0, -490.0, -489.0, -489.0, -489.0, -489.0, -489.0, -489.0, -489.0, -489.0, -489.0, -489.0, -489.0, -489.0, -489.0, -489.0, -489.0, -489.0, -489.0, -489.0, -484.0, -447.0, -351.0, -139.0, 10.0, 147.0, 251.0, 319.0, 349.0, 356.0, 356.0, 356.0]	[0.007622447301400825, 0.012815831316402182, 0.019401854602620006, 0.030747427459573373, 0.04713619773974642, 0.06434928759699687, 0.08088722046522889, 0.09755008126376197, 0.11386136891087517, 0.1308474722172832, 0.14757928231847472, 0.1640226658928441, 0.1807537933345884, 0.1976716299977852, 0.21377811775892042, 0.23080483970989008, 0.24770731637545396, 0.2640295266901376, 0.2804203449632041, 0.2976576694782125, 0.3142024289991241, 0.3307400205376325, 0.3476660492015071, 0.3642859020328615, 0.3808740108652273, 0.3975570103211794, 0.4138054926734185, 0.4310028812033124, 0.44719436090963427, 0.46427023483556695, 0.48055762916919775, 0.49765159374510404, 0.5138795960956486, 0.5309844833391253, 0.5471599204029189, 0.5641391970420955, 0.5804525326821022, 0.5976506038714433, 0.6138977208902361, 0.6309469708357938, 0.6472053518373286, 0.6643317430716706, 0.6805433614354115, 0.6977028619876364, 0.7140875362674706, 0.7310077622678364, 0.7473781005537603, 0.7643249505345011, 0.7807755021203775, 0.7976544268167345, 0.8140786957374075, 0.8309528417594265, 0.8473835960176075, 0.8643478539888747, 0.8807011256285477, 0.8975708343205042, 0.9140176312357653, 0.9310122678580228, 0.9471511822630418]
35	inanimate/n29.jpg	animate	inanimate	right	1.258	[0.0, 0.0, 0.0, 0.0, 0.0, 0.0, 0.0, 0.0, 0.0, 0.0, 0.0, 0.0, 0.0, 0.0, 0.0, 0.0, 0.0, -3.0, -3.0, -3.0, -3.0, -3.0, -3.0, -3.0, -3.0, -3.0, -3.0, -3.0, -3.0, -3.0, -3.0, -3.0, -3.0, -3.0, -3.0, -3.0, -3.0, -3.0, -3.0, -3.0, -3.0, -3.0, -3.0, -3.0, -3.0, 27.0, 93.0, 233.0, 389.0, 536.0, 660.0, 754.0, 811.0, 817.0, 818.0, 818.0, 819.0, 819.0, 819.0, 819.0, 819.0, 819.0, 819.0, 819.0, 816.0, 806.0, 793.0, 788.0, 785.0, 775.0, 772.0, 772.0, 773.0, 776.0, 776.0]	[-490.0, -490.0, -490.0, -490.0, -490.0, -490.0, -490.0, -490.0, -490.0, -490.0, -490.0, -490.0, -490.0, -490.0, -490.0, -490.0, -489.0, -490.0, -490.0, -490.0, -490.0, -490.0, -490.0, -490.0, -490.0, -490.0, -490.0, -490.0, -490.0, -490.0, -490.0, -490.0, -490.0, -490.0, -490.0, -490.0, -490.0, -490.0, -490.0, -490.0, -490.0, -490.0, -490.0, -490.0, -490.0, -470.0, -417.0, -297.0, -154.0, -3.0, 135.0, 247.0, 305.0, 309.0, 309.0, 309.0, 310.0, 310.0, 310.0, 310.0, 310.0, 310.0, 310.0, 310.0, 311.0, 307.0, 304.0, 304.0, 310.0, 373.0, 406.0, 422.0, 435.0, 439.0, 439.0]	[0.005039579278673045, 0.009841112812864594, 0.024694907886441797, 0.04124888341175392, 0.05846060792100616, 0.07531734596705064, 0.09155763631861191, 0.10792763326026034, 0.12504822183109354, 0.1412653015286196, 0.1584070527460426, 0.17500949758687057, 0.19161842775065452, 0.20797374736866914, 0.2250110506574856, 0.24121959702461027, 0.2584309802041389, 0.27500065705680754, 0.2915969578898512, 0.3079215575417038, 0.3250878847466083, 0.34182856950792484, 0.35810333451081533, 0.3745313581021037, 0.39177960527013056, 0.4083448447781848, 0.42496094293892384, 0.4440394185076002, 0.45837575249606743, 0.4750133546476718, 0.49156971951015294, 0.5079199191386579, 0.525138128985418, 0.5412606594036333, 0.5583331199886743, 0.5751707433664706, 0.5914717910200125, 0.6078639746265253, 0.6250354218354914, 0.6416832639806671, 0.6581822848675074, 0.6770153418910922, 0.6916831103881123, 0.7079121367423795, 0.724964800014277, 0.741669644790818, 0.7582799402880482, 0.7754759634844959, 0.7917920297913952, 0.8083408853271976, 0.8249146581656532, 0.8441853043041192, 0.8583366357197519, 0.8750063231855165, 0.8914701867615804, 0.9089973031223053, 0.9251328041864326, 0.9412416812701849, 0.9584165418200428, 0.9751732692384394, 0.9914859222189989, 1.0078654764947714, 1.024983334398712, 1.0412010967556853, 1.058429205280845, 1.075200951352599, 1.0914869803527836, 1.1078559533052612, 1.1250321791740134, 1.1416537386685377, 1.158152759555378, 1.1749282602977473, 1.1917450623441255, 1.2085239764273865, 1.224856768065365]
36	animate/a68.jpg	inanimate	animate	right	0.981	[0.0, 0.0, 0.0, 0.0, 0.0, 0.0, 0.0, 0.0, 0.0, 0.0, 0.0, 0.0, 0.0, 0.0, 0.0, 0.0, 0.0, 0.0, 0.0, 0.0, 0.0, 0.0, 0.0, 0.0, 0.0, 0.0, 0.0, 0.0, 0.0, 0.0, 0.0, 0.0, 0.0, 0.0, 0.0, 0.0, 0.0, 0.0, 0.0, 0.0, 0.0, 0.0, 0.0, 0.0, 0.0, 0.0, 0.0, 23.0, 102.0, 236.0, 387.0, 548.0, 691.0, 790.0, 837.0, 866.0, 883.0, 888.0, 888.0, 888.0]	[-490.0, -490.0, -490.0, -490.0, -490.0, -490.0, -490.0, -490.0, -490.0, -492.0, -492.0, -492.0, -492.0, -492.0, -492.0, -492.0, -492.0, -492.0, -492.0, -492.0, -492.0, -492.0, -492.0, -492.0, -492.0, -492.0, -492.0, -492.0, -492.0, -492.0, -493.0, -494.0, -494.0, -494.0, -494.0, -494.0, -494.0, -494.0, -494.0, -494.0, -494.0, -494.0, -494.0, -494.0, -494.0, -494.0, -494.0, -462.0, -361.0, -193.0, -25.0, 140.0, 319.0, 460.0, 540.0, 540.0, 540.0, 540.0, 540.0, 540.0]	[0.008183940342860296, 0.013867137429770082, 0.018877225535106845, 0.031772792266565375, 0.04846842105325777, 0.06489678597426973, 0.08200508654408623, 0.09818837426428217, 0.11521919220103882, 0.13152399452519603, 0.1485804124531569, 0.16474117217876483, 0.18185868875298183, 0.19817714439705014, 0.2152065970149124, 0.2315185673214728, 0.2486057052446995, 0.26623761087830644, 0.2817819229239831, 0.2981659145298181, 0.31531415108474903, 0.3314940254786052, 0.34858048072783276, 0.36483066974324174, 0.3818751410144614, 0.3981567326700315, 0.4152554759202758, 0.43150600626540836, 0.4486678961402504, 0.4648573278536787, 0.48200931907922495, 0.4981868041213602, 0.5152712113776943, 0.5315295923937811, 0.548619802299072, 0.5649819485988701, 0.5819646385643864, 0.5983001608692575, 0.6152678321814165, 0.6316859571088571, 0.6486099377798382, 0.6649509214039426, 0.6819179100566544, 0.6982018910493935, 0.7152262236631941, 0.7313903967296937, 0.7485686705913395, 0.7649943048600107, 0.7820015708130086, 0.7983306077803718, 0.8151921244862024, 0.8316443827352487, 0.8486161500331946, 0.8649929736566264, 0.8819702023029095, 0.8983917405566899, 0.9153075292269932, 0.9316765021794708, 0.9486953734594863, 0.9650080264400458]
37	animate/a63.jpg	animate	inanimate	left	1.017	[0.0, 0.0, 0.0, 0.0, 0.0, 0.0, 0.0, 0.0, 0.0, 0.0, 0.0, 0.0, 0.0, 0.0, 0.0, 0.0, 0.0, 0.0, 0.0, 0.0, 0.0, 0.0, 0.0, 0.0, 0.0, 0.0, 0.0, 0.0, 0.0, 0.0, 0.0, 0.0, 0.0, 0.0, 0.0, 0.0, 0.0, 0.0, 0.0, 0.0, 0.0, 0.0, -7.0, -20.0, -24.0, -24.0, -24.0, -24.0, -28.0, -46.0, -102.0, -201.0, -336.0, -491.0, -622.0, -746.0, -835.0, -880.0, -898.0, -900.0, -900.0]	[-490.0, -490.0, -490.0, -490.0, -490.0, -490.0, -490.0, -490.0, -490.0, -490.0, -490.0, -490.0, -490.0, -490.0, -490.0, -490.0, -490.0, -490.0, -490.0, -490.0, -491.0, -492.0, -492.0, -492.0, -492.0, -492.0, -492.0, -492.0, -492.0, -492.0, -492.0, -492.0, -492.0, -492.0, -492.0, -492.0, -492.0, -492.0, -492.0, -492.0, -492.0, -492.0, -492.0, -492.0, -492.0, -492.0, -492.0, -492.0, -492.0, -479.0, -417.0, -296.0, -148.0, 9.0, 142.0, 251.0, 311.0, 337.0, 351.0, 353.0, 353.0]	[0.00920681341085583, 0.018233710128697567, 0.03371726487239357, 0.04973432332917582, 0.0667962025909219, 0.08376455657707993, 0.1000048469286412, 0.11634753723046742, 0.13335309652029537, 0.14974630413053092, 0.16668871678120922, 0.18297952444117982, 0.19997450240771286, 0.2169899603613885, 0.23352345589955803, 0.24979958623589482, 0.2666283349535661, 0.28310073184547946, 0.3001322324562352, 0.3164066561294021, 0.3335641086741816, 0.34994400429422967, 0.3669717502343701, 0.38331034453585744, 0.40021998921292834, 0.416393036939553, 0.4335535614809487, 0.44990580911689904, 0.46703151767724194, 0.48332403200038243, 0.5002091006899718, 0.5167647828784538, 0.5335972862667404, 0.5500205311836908, 0.5669864958326798, 0.5833063168101944, 0.6002193748136051, 0.6167023530433653, 0.6336375977116404, 0.6499738026759587, 0.6669005140138324, 0.6833094229368726, 0.7002706089260755, 0.716641288541723, 0.7337181864713784, 0.7499779328063596, 0.7669824681070168, 0.7833391530584777, 0.800210568428156, 0.8166341546748299, 0.8336093353282195, 0.849776921706507, 0.8668705449526897, 0.8833094912115484, 0.9002785278571537, 0.9166799274535151, 0.933531545495498, 0.9498756011307705, 0.96688798708783, 0.9831682134099538, 1.0002010793541558]
38	animate/a19.jpg	inanimate	animate	right	1.122	[0.0, 0.0, 0.0, 0.0, 0.0, 0.0, 0.0, 0.0, 0.0, 0.0, 0.0, 0.0, 0.0, 0.0, 0.0, 0.0, 0.0, 0.0, 0.0, 0.0, 0.0, 0.0, 0.0, 0.0, 0.0, 0.0, 0.0, 0.0, 0.0, 0.0, 0.0, 0.0, 0.0, 0.0, 0.0, 0.0, 0.0, 0.0, 0.0, 0.0, 0.0, 0.0, 0.0, 0.0, -1.0, -1.0, -1.0, -1.0, -1.0, -1.0, -1.0, -1.0, -1.0, -1.0, 9.0, 44.0, 105.0, 214.0, 374.0, 526.0, 639.0, 719.0, 768.0, 800.0, 816.0, 816.0, 816.0, 816.0]	[-490.0, -490.0, -490.0, -490.0, -490.0, -490.0, -490.0, -490.0, -490.0, -490.0, -490.0, -490.0, -490.0, -490.0, -490.0, -490.0, -490.0, -490.0, -490.0, -490.0, -490.0, -490.0, -490.0, -490.0, -490.0, -490.0, -490.0, -490.0, -490.0, -490.0, -490.0, -490.0, -490.0, -490.0, -490.0, -490.0, -490.0, -490.0, -490.0, -490.0, -490.0, -490.0, -490.0, -490.0, -491.0, -491.0, -491.0, -491.0, -491.0, -491.0, -491.0, -491.0, -491.0, -484.0, -460.0, -396.0, -297.0, -150.0, 30.0, 187.0, 326.0, 440.0, 504.0, 539.0, 540.0, 540.0, 540.0, 540.0]	[0.008865821597282775, 0.013695685789571144, 0.02129342056286987, 0.03263865209009964, 0.049863688604091294, 0.06630946151562966, 0.0824596399179427, 0.09959627114585601, 0.11557817229186185, 0.13297524071822409, 0.14919129641202744, 0.16653545820736326, 0.18263682596443687, 0.1996451159211574, 0.21585809961834457, 0.23292168554326054, 0.24909985325939488, 0.2662494551477721, 0.28240987354365643, 0.29952329411753453, 0.3159909123496618, 0.3328804183693137, 0.34930912462004926, 0.3663348225672962, 0.38267785419884603, 0.3996752215025481, 0.4160117678111419, 0.4329179991473211, 0.4493719640595373, 0.4663222273811698, 0.4826584323454881, 0.49965341031202115, 0.5160264792648377, 0.5329409026016947, 0.5492904195707524, 0.5662891521933489, 0.5826707544765668, 0.599622041801922, 0.6160091054043733, 0.6329327447456308, 0.6493897816544631, 0.6663595009595156, 0.6825025113648735, 0.6996603052393766, 0.7159575982368551, 0.7328655362362042, 0.74917955455021, 0.7662902444571955, 0.7826530734164407, 0.799530974109075, 0.8160433069861028, 0.8329491970071103, 0.8491809540282702, 0.8663561558932997, 0.8827032835251885, 0.8996402348566335, 0.9158235225622775, 0.9329191938159056, 0.9493328814132838, 0.9662367234268459, 0.9826828376681078, 0.9996034050127491, 1.0159525806375314, 1.0329229826165829, 1.0492796675680438, 1.0663084375264589, 1.082614946499234, 1.0996450817910954]
