trialIndex	stimulus	isAnimate	left_option	right_option	response	response_time	xTrajectory	yTrajectory	tTrajectory
0	歌手	True	animate	inanimate	left	1.401	[0.0, 0.0, 0.0, 0.0, 0.0, 0.0, 0.0, 0.0, 0.0, 0.0, 0.0, 0.0, 0.0, 0.0, 0.0, 0.0, 0.0, 0.0, 0.0, 0.0, 0.0, 0.0, 0.0, 0.0, 0.0, 0.0, 0.0, 0.0, 0.0, 0.0, 0.0, 0.0, 0.0, 0.0, 0.0, 0.0, 0.0, 0.0, 0.0, 0.0, 0.0, 0.0, 0.0, 0.0, 0.0, 0.0, 0.0, 0.0, 0.0, 0.0, 1.0, -4.0, -13.0, -62.0, -94.0, -214.0, -305.0, -386.0, -459.0, -517.0, -559.0, -591.0, -619.0, -640.0, -657.0, -669.0, -686.0, -694.0, -697.0, -697.0, -698.0, -699.0, -702.0, -707.0, -719.0, -724.0, -740.0, -750.0, -756.0, -759.0, -759.0, -759.0]	[-490.0, -490.0, -490.0, -490.0, -490.0, -490.0, -490.0, -490.0, -490.0, -490.0, -490.0, -490.0, -490.0, -490.0, -490.0, -490.0, -490.0, -490.0, -490.0, -490.0, -490.0, -490.0, -490.0, -490.0, -490.0, -490.0, -490.0, -490.0, -490.0, -490.0, -490.0, -490.0, -490.0, -490.0, -490.0, -490.0, -490.0, -490.0, -490.0, -490.0, -490.0, -490.0, -490.0, -490.0, -490.0, -490.0, -490.0, -490.0, -490.0, -490.0, -489.0, -478.0, -464.0, -405.0, -373.0, -235.0, -142.0, -66.0, -5.0, 52.0, 103.0, 143.0, 175.0, 200.0, 220.0, 235.0, 258.0, 270.0, 276.0, 276.0, 278.0, 281.0, 288.0, 298.0, 319.0, 327.0, 354.0, 373.0, 379.0, 386.0, 386.0, 386.0]	[0.00768835347116692, 0.02287698599684518, 0.03314905905426713, 0.04855068332108203, 0.06571597481524805, 0.08080015946325148, 0.09874198336183326, 0.11560929121333174, 0.13078563574526925, 0.14876978492975468, 0.16600573233881732, 0.1806103442213498, 0.198709522599529, 0.2157611502261716, 0.23073952167032985, 0.24886839601094835, 0.26594118628418073, 0.2806284007310751, 0.2986128912452841, 0.3155064817328821, 0.3307661115031806, 0.3488342285854742, 0.3659302294909139, 0.3806624998906045, 0.3985961318030604, 0.41538390907953726, 0.4307428667307249, 0.44891304235352436, 0.4659093740483513, 0.4806863590638386, 0.49860872698627645, 0.5155241627799114, 0.5328184781174059, 0.5489051575641497, 0.5659404012112645, 0.580652532975364, 0.5986052795269643, 0.6160279360410641, 0.6305871506483527, 0.6489372087307856, 0.6653440584632335, 0.6807688933695317, 0.6991209994448582, 0.7157230916054687, 0.7302546582504874, 0.7486924388867919, 0.7658785516905482, 0.7806715793485637, 0.7991131146482076, 0.8158251160202781, 0.8307014289166545, 0.8488139192777453, 0.8658812482171925, 0.8806551612360636, 0.8986082491173875, 0.9159298710947041, 0.9305829522563727, 0.9488951223756885, 0.9658996460639173, 0.9807083750420134, 0.9989017613042961, 1.0154386588837951, 1.0305737021335517, 1.0488735842736787, 1.0651435594991199, 1.0831096180336317, 1.099060788314091, 1.1155754992505535, 1.1306002919664024, 1.1489015394399757, 1.165910500450991, 1.1806318481976632, 1.1990935221401742, 1.2195038657591795, 1.2306210791430203, 1.2513232624114607, 1.2658032877807273, 1.2806249874047353, 1.2984493927797303, 1.3155965936239227, 1.3304500372105394, 1.3515744493124657]
1	乌鸦	True	inanimate	animate	right	1.043	[0.0, 0.0, 0.0, -1.0, -1.0, -1.0, -1.0, -1.0, -1.0, -1.0, -1.0, -1.0, -1.0, -1.0, -1.0, -1.0, -1.0, -1.0, -1.0, -1.0, -1.0, -1.0, -1.0, -1.0, -1.0, -1.0, -1.0, -1.0, -1.0, -1.0, -1.0, -1.0, -1.0, -1.0, -1.0, -1.0, -1.0, -1.0, -1.0, -1.0, -1.0, 0.0, 0.0, -3.0, -15.0, -37.0, -67.0, -118.0, -174.0, -207.0, -227.0, -230.0, -230.0, -200.0, -106.0, 122.0, 295.0, 468.0, 643.0, 796.0, 899.0, 948.0]	[-490.0, -490.0, -491.0, -491.0, -491.0, -491.0, -491.0, -491.0, -491.0, -491.0, -491.0, -491.0, -491.0, -491.0, -491.0, -491.0, -491.0, -491.0, -491.0, -491.0, -491.0, -491.0, -491.0, -491.0, -491.0, -491.0, -491.0, -491.0, -491.0, -491.0, -491.0, -491.0, -491.0, -491.0, -491.0, -491.0, -491.0, -491.0, -491.0, -491.0, -491.0, -491.0, -486.0, -455.0, -416.0, -360.0, -290.0, -207.0, -125.0, -74.0, -31.0, -1.0, 25.0, 64.0, 122.0, 200.0, 249.0, 300.0, 349.0, 392.0, 422.0, 435.0]	[0.010067955961858388, 0.01848317791154841, 0.024632631895656232, 0.037183784901571926, 0.05405484741640976, 0.06915336804377148, 0.08699108540167799, 0.10374814271199284, 0.11907774573046481, 0.13777152606780874, 0.15415994382055942, 0.16937690697523067, 0.18728323224786436, 0.20409285483765416, 0.2188367305570864, 0.23750968957756413, 0.2546954610515968, 0.26935434486949816, 0.287193427560851, 0.3037224744766718, 0.3192770158930216, 0.33715227987704566, 0.3540837583132088, 0.3689013619441539, 0.3878320273288409, 0.40380197091872105, 0.419416245596949, 0.4371853550328524, 0.4545759262618958, 0.469120122215827, 0.48744458032160765, 0.5037756541496492, 0.5196008725761203, 0.537590483087115, 0.5542133965573157, 0.5691235014091944, 0.5875793726954726, 0.6043043447134551, 0.6192980761334184, 0.6376809021749068, 0.6570870443247259, 0.6691425819226424, 0.6877346450419282, 0.704323425226903, 0.7194707564631244, 0.7376248894433957, 0.756708130647894, 0.7686936949903611, 0.7874885098717641, 0.8047916998693836, 0.8190775067996583, 0.8370503919941257, 0.8539337424954283, 0.8688953886157833, 0.8883537547080778, 0.9039280934302951, 0.9219289679240319, 0.9375060373204178, 0.9551010669674724, 0.969314169982681, 0.987652964075096, 1.00382668342354]
2	厨师	True	inanimate	animate	right	0.896	[0.0, 0.0, 0.0, 0.0, 0.0, 0.0, 0.0, 0.0, 0.0, 0.0, 0.0, 0.0, 0.0, 0.0, 0.0, 0.0, 0.0, 0.0, 0.0, 0.0, 0.0, 0.0, 0.0, 0.0, 0.0, 0.0, 0.0, 0.0, 0.0, 0.0, 0.0, 0.0, 0.0, 0.0, 0.0, 0.0, 0.0, 0.0, 0.0, 0.0, 0.0, 0.0, 0.0, 2.0, 17.0, 30.0, 109.0, 192.0, 303.0, 428.0, 543.0, 652.0, 754.0, 831.0, 863.0]	[-490.0, -490.0, -490.0, -490.0, -490.0, -490.0, -490.0, -490.0, -490.0, -490.0, -490.0, -490.0, -490.0, -490.0, -490.0, -490.0, -490.0, -490.0, -490.0, -490.0, -490.0, -490.0, -490.0, -490.0, -490.0, -490.0, -490.0, -490.0, -490.0, -490.0, -490.0, -490.0, -490.0, -490.0, -490.0, -490.0, -490.0, -490.0, -490.0, -490.0, -490.0, -490.0, -486.0, -478.0, -439.0, -413.0, -279.0, -175.0, -29.0, 139.0, 259.0, 343.0, 402.0, 433.0, 446.0]	[0.009095498462556861, 0.015898946337983944, 0.02072675923409406, 0.034643243947357405, 0.05158974102960201, 0.06617114227992715, 0.084708933463844, 0.10140557485283352, 0.11638087429309962, 0.13457084722904256, 0.15134019253309816, 0.16644588115013903, 0.18640873730328167, 0.20118606364849256, 0.21674094640184194, 0.23470837026980007, 0.2533424173379899, 0.2664417510241037, 0.2864677537654643, 0.3012481521072914, 0.31929715454316465, 0.3345963789324742, 0.3525525388176902, 0.36641236225841567, 0.38558537401695503, 0.4012037446955219, 0.418884107573831, 0.4345656248406158, 0.4521794277970912, 0.46650005068659084, 0.4857614676730009, 0.50127129448083, 0.5170739849345409, 0.5346304439590313, 0.5513943279365776, 0.5663457340706373, 0.5847265121119563, 0.6011961671028985, 0.6164066449346137, 0.6346341644893982, 0.6513553818440414, 0.6664528784749564, 0.6846145207819063, 0.7012589382284204, 0.7164421094203135, 0.7345085198394372, 0.7512618224936887, 0.7664306577062234, 0.7845503160569933, 0.8012568560952786, 0.8164448059542337, 0.8347993013594532, 0.8511430044964072, 0.8669098549944465, 0.88460284719622]
3	记者	True	animate	inanimate	left	0.852	[0.0, 0.0, 0.0, 0.0, 0.0, 0.0, 0.0, 0.0, 0.0, 0.0, 1.0, 1.0, 1.0, 1.0, 1.0, 1.0, 1.0, 1.0, 1.0, 1.0, 1.0, 1.0, 1.0, 1.0, 1.0, 2.0, 2.0, 2.0, 2.0, 2.0, 2.0, 2.0, 2.0, 2.0, 2.0, 2.0, 2.0, 2.0, 2.0, 2.0, -1.0, -16.0, -61.0, -184.0, -303.0, -368.0, -560.0, -671.0, -751.0, -774.0, -777.0]	[-490.0, -490.0, -490.0, -490.0, -490.0, -490.0, -490.0, -490.0, -490.0, -490.0, -490.0, -490.0, -490.0, -490.0, -490.0, -490.0, -490.0, -490.0, -490.0, -490.0, -490.0, -490.0, -490.0, -490.0, -490.0, -490.0, -490.0, -490.0, -490.0, -490.0, -490.0, -490.0, -490.0, -490.0, -490.0, -490.0, -490.0, -490.0, -490.0, -485.0, -470.0, -434.0, -344.0, -120.0, 100.0, 191.0, 434.0, 540.0, 540.0, 540.0, 540.0]	[0.008584352413890883, 0.013465071911923587, 0.02004904271598207, 0.036103295533393975, 0.049925572355277836, 0.06565316956402967, 0.08314375134068541, 0.10041417337197345, 0.11544545141077833, 0.1336470296664629, 0.15026311648398405, 0.16542956236662576, 0.18350006877881242, 0.199973478433094, 0.2151153483428061, 0.23392210987367434, 0.25030711430008523, 0.2654343068934395, 0.28347545867291046, 0.2999075670450111, 0.315090055570181, 0.3332260979077546, 0.35041733070102055, 0.3654195954441093, 0.383514336492226, 0.3999211862246739, 0.4154719729849603, 0.43363702861825004, 0.45035790463589365, 0.4654431132803438, 0.4834852890635375, 0.5004133541733609, 0.5154623815251398, 0.5346736225765198, 0.5507319713942707, 0.5649904716919991, 0.5835002735766466, 0.5998671873603598, 0.6154200221135397, 0.6338915947126225, 0.650229153856344, 0.6648607310489751, 0.6833084103418514, 0.7009918452167767, 0.715345918732055, 0.7331324361512088, 0.7502342397201573, 0.765126595259062, 0.7836906690863543, 0.8004296357539715, 0.8155530736839864]
4	医生	True	inanimate	animate	right	0.875	[0.0, 0.0, 0.0, 0.0, 0.0, 0.0, 0.0, 0.0, 0.0, 0.0, 0.0, 0.0, 0.0, 0.0, 0.0, 0.0, 0.0, 0.0, 0.0, 0.0, 0.0, 0.0, 0.0, 0.0, 0.0, 0.0, 0.0, 0.0, 0.0, 0.0, 0.0, 0.0, 0.0, 0.0, 0.0, 0.0, 0.0, -1.0, -3.0, -6.0, -8.0, -8.0, -9.0, -9.0, 41.0, 74.0, 229.0, 367.0, 512.0, 661.0, 813.0, 950.0]	[-490.0, -490.0, -490.0, -490.0, -490.0, -490.0, -490.0, -490.0, -490.0, -490.0, -490.0, -490.0, -490.0, -490.0, -490.0, -490.0, -490.0, -490.0, -490.0, -490.0, -490.0, -490.0, -490.0, -490.0, -490.0, -490.0, -490.0, -490.0, -490.0, -490.0, -490.0, -490.0, -490.0, -489.0, -487.0, -486.0, -485.0, -481.0, -474.0, -469.0, -462.0, -457.0, -442.0, -415.0, -306.0, -252.0, -81.0, 50.0, 175.0, 280.0, 368.0, 426.0]	[0.013010075119382236, 0.018886804100475274, 0.02376581693533808, 0.042752460918563884, 0.05886747100157663, 0.07431756454752758, 0.09219760718406178, 0.10921373619203223, 0.12396170790452743, 0.14234760593535611, 0.15887221552839037, 0.1742086452068179, 0.19222249035374261, 0.20927616598055465, 0.22394904445536667, 0.2425923075134051, 0.2588718400656944, 0.2744315014788299, 0.2922559068465489, 0.3091218493646011, 0.32398758093768265, 0.34248509484314127, 0.3588513259528554, 0.37441167003271403, 0.39222447008796735, 0.40921738844917854, 0.4239964214648353, 0.4428134229819989, 0.45874411328259157, 0.4744959451345494, 0.4927528193220496, 0.5091135891052545, 0.5238595128248562, 0.5453771404500003, 0.5587389591528336, 0.5779590748643386, 0.5925118041413953, 0.609548754458956, 0.623763905474334, 0.6423375366139226, 0.658698647741403, 0.6766077036736533, 0.6921008051649551, 0.7097221174481092, 0.7237338340419228, 0.7428781738344696, 0.7593584101487068, 0.7743494109090534, 0.7920837043857318, 0.8090684307608171, 0.8239945782625, 0.8432542885857401]
5	海鸥	True	inanimate	animate	right	0.85	[0.0, 0.0, 0.0, 0.0, 0.0, 0.0, 0.0, 0.0, 0.0, 0.0, 0.0, 0.0, 0.0, 0.0, 0.0, 0.0, 0.0, 0.0, 0.0, 0.0, 0.0, 0.0, 0.0, 0.0, 0.0, 0.0, 0.0, 0.0, 0.0, 0.0, 0.0, 0.0, 0.0, 0.0, 0.0, 0.0, 0.0, 0.0, 0.0, 2.0, 3.0, 8.0, 16.0, 41.0, 130.0, 174.0, 355.0, 486.0, 633.0, 776.0, 889.0, 959.0]	[-490.0, -490.0, -490.0, -490.0, -490.0, -490.0, -490.0, -490.0, -490.0, -490.0, -490.0, -490.0, -490.0, -490.0, -490.0, -490.0, -490.0, -490.0, -490.0, -490.0, -490.0, -490.0, -490.0, -490.0, -490.0, -490.0, -490.0, -490.0, -490.0, -490.0, -490.0, -490.0, -490.0, -490.0, -490.0, -490.0, -490.0, -490.0, -490.0, -487.0, -482.0, -473.0, -451.0, -410.0, -278.0, -205.0, 23.0, 154.0, 277.0, 364.0, 416.0, 438.0]	[0.010767347128421534, 0.015117293936782517, 0.021747344682808034, 0.039115729261538945, 0.0543367884165491, 0.07091566993767628, 0.08846325430931756, 0.10520017298404127, 0.12030688560480485, 0.1381135416595498, 0.15479891905852128, 0.17268749502545688, 0.18864344396570232, 0.20530800005508354, 0.21970883618632797, 0.23939487132884096, 0.2546568904290325, 0.2702042638557032, 0.28830105290398933, 0.30557147493527737, 0.3199501244307612, 0.3381274680432398, 0.35476881350041367, 0.37071042645402486, 0.3880743737099692, 0.40552809152723057, 0.41991015434177825, 0.43895072893064935, 0.4548080326494528, 0.4709363547153771, 0.48943147929094266, 0.5052611350402003, 0.5197708563719061, 0.5385929778858554, 0.5553261418972397, 0.5706782728884718, 0.5887119153485401, 0.6066943578625796, 0.6196923156676348, 0.6380799203689094, 0.6547792924175155, 0.6701839886809466, 0.6880476473379531, 0.7050818669886212, 0.7199250705889426, 0.7380583822596236, 0.754682319733547, 0.7702259384968784, 0.788182439711818, 0.8049715823217412, 0.8200864869286306, 0.8384539529870381]
6	酒精	False	inanimate	animate	left	0.92	[0.0, 0.0, 0.0, 0.0, 0.0, 0.0, 0.0, 0.0, 0.0, 0.0, 0.0, 0.0, 0.0, 0.0, 0.0, 0.0, 0.0, 0.0, 0.0, 0.0, 0.0, 0.0, 0.0, 0.0, 0.0, 0.0, 0.0, 0.0, 0.0, 0.0, 0.0, 0.0, 0.0, 0.0, 0.0, 0.0, 0.0, 0.0, 0.0, 0.0, 0.0, 0.0, 0.0, -1.0, -5.0, -18.0, -49.0, -115.0, -227.0, -389.0, -491.0, -539.0, -675.0, -724.0, -751.0, -758.0]	[-490.0, -490.0, -490.0, -490.0, -490.0, -490.0, -490.0, -490.0, -490.0, -490.0, -490.0, -490.0, -490.0, -490.0, -490.0, -490.0, -490.0, -490.0, -490.0, -490.0, -490.0, -490.0, -490.0, -490.0, -490.0, -490.0, -490.0, -490.0, -490.0, -490.0, -490.0, -490.0, -490.0, -490.0, -490.0, -490.0, -490.0, -490.0, -490.0, -490.0, -490.0, -490.0, -486.0, -480.0, -463.0, -433.0, -365.0, -230.0, -52.0, 172.0, 293.0, 348.0, 466.0, 501.0, 518.0, 522.0]	[0.011525788897415623, 0.01749877375550568, 0.022723215515725315, 0.03796270664315671, 0.05492592904192861, 0.0697186153702205, 0.08828985718719196, 0.10460727769532241, 0.11999968597228872, 0.13781385135371238, 0.154972998854646, 0.16959467739070533, 0.18820756181958131, 0.20465537150448654, 0.2199730278662173, 0.23796195571048884, 0.25492961543932324, 0.26989706422318704, 0.2882655542853172, 0.3065767004081863, 0.3199610470837797, 0.33965834621631075, 0.35491797598660924, 0.3709759834673605, 0.38807983503647847, 0.4053980436801794, 0.4200477115155081, 0.43822437246126356, 0.45495787780964747, 0.46983760403236374, 0.48798217968578683, 0.5067636825842783, 0.519719997770153, 0.5391804118553409, 0.5544591562720598, 0.5723798175240518, 0.588945728399267, 0.6048255600981065, 0.6199827899908996, 0.6408436930651078, 0.6545092980741174, 0.670163508708356, 0.6884555401848047, 0.7051170242848457, 0.7199888998511597, 0.740309472908848, 0.7548779035059852, 0.7730859670846257, 0.7883025889022974, 0.8071185664230143, 0.819882369840343, 0.8399851724971086, 0.8550253251960385, 0.873116994247539, 0.8876263742422452, 0.904930929573311]
7	麻将	False	animate	inanimate	right	1.02	[0.0, 0.0, 0.0, 0.0, 0.0, 0.0, 0.0, 0.0, 0.0, 0.0, 0.0, 0.0, 0.0, 0.0, 0.0, 0.0, 0.0, 0.0, 0.0, 0.0, 0.0, 0.0, 0.0, 0.0, 0.0, 0.0, 0.0, 0.0, 0.0, 0.0, 0.0, 0.0, 0.0, 0.0, 0.0, 0.0, 0.0, 0.0, 0.0, 0.0, 0.0, 0.0, -1.0, -7.0, -13.0, -23.0, -37.0, -61.0, -99.0, -128.0, -139.0, -139.0, -107.0, -79.0, 58.0, 180.0, 312.0, 472.0, 644.0, 818.0, 955.0]	[-490.0, -490.0, -490.0, -490.0, -490.0, -490.0, -490.0, -490.0, -490.0, -490.0, -490.0, -490.0, -490.0, -490.0, -490.0, -490.0, -490.0, -490.0, -490.0, -490.0, -490.0, -490.0, -490.0, -490.0, -490.0, -490.0, -490.0, -490.0, -490.0, -490.0, -490.0, -490.0, -490.0, -490.0, -490.0, -490.0, -490.0, -490.0, -490.0, -490.0, -489.0, -483.0, -477.0, -458.0, -441.0, -419.0, -387.0, -347.0, -297.0, -256.0, -237.0, -212.0, -131.0, -98.0, 26.0, 114.0, 201.0, 283.0, 359.0, 415.0, 453.0]	[0.0007918923802208155, 0.006045006106432993, 0.017635989592236, 0.03461047598102596, 0.0524993932704092, 0.06694255468755728, 0.08569538561278023, 0.1014653081074357, 0.117368009108759, 0.13527638238156214, 0.15253554043010809, 0.16685821131977718, 0.18740406410506694, 0.20203188663435867, 0.2197627667846973, 0.23525996426906204, 0.25440089073526906, 0.26677728128561284, 0.2864541004455532, 0.3020680337867816, 0.3193524504749803, 0.33531249540828867, 0.35199172881402774, 0.3664028049315675, 0.3849767774081556, 0.40198266642255476, 0.41951659747428494, 0.4347755445778603, 0.45179099091910757, 0.4665676345975953, 0.48483474877866684, 0.5024710797079024, 0.5167841932707233, 0.5348116917375592, 0.5517421461772756, 0.5669338506922941, 0.5857627988661989, 0.60149415073829, 0.6168507190595847, 0.6358182484036661, 0.6539778427104466, 0.6664511718045105, 0.6849814536690246, 0.7026495285608689, 0.7168288396205753, 0.7352621829340933, 0.7516215873911278, 0.766514284267032, 0.7851240966992918, 0.802559382536856, 0.8168653281099978, 0.835991577259847, 0.8517475051048677, 0.8689008499422926, 0.8848335882430547, 0.9021275622508256, 0.9168850912901689, 0.9353754371986724, 0.9516522390840692, 0.9671385139154154, 0.9851666950489744]
8	鲨鱼	True	animate	inanimate	left	0.859	[0.0, 0.0, 0.0, 0.0, 0.0, 0.0, 0.0, 0.0, 0.0, 0.0, 0.0, 0.0, 0.0, 0.0, 0.0, 1.0, 3.0, 3.0, 3.0, 3.0, 3.0, 3.0, 3.0, 3.0, 3.0, 3.0, 3.0, 3.0, 3.0, 3.0, 3.0, 3.0, 3.0, 3.0, 3.0, 3.0, 3.0, 3.0, 2.0, -4.0, -12.0, -42.0, -88.0, -158.0, -247.0, -342.0, -497.0, -598.0, -673.0, -722.0, -751.0, -760.0, -760.0]	[-490.0, -490.0, -490.0, -490.0, -490.0, -490.0, -490.0, -490.0, -490.0, -490.0, -490.0, -489.0, -487.0, -487.0, -485.0, -485.0, -484.0, -483.0, -483.0, -483.0, -483.0, -483.0, -483.0, -483.0, -483.0, -483.0, -483.0, -483.0, -483.0, -483.0, -483.0, -483.0, -483.0, -483.0, -483.0, -483.0, -483.0, -483.0, -475.0, -460.0, -433.0, -365.0, -242.0, -122.0, 8.0, 133.0, 293.0, 376.0, 433.0, 468.0, 489.0, 495.0, 495.0]	[0.009916062823322136, 0.017269739371840842, 0.021757243339379784, 0.036842110654106364, 0.053030848648631945, 0.06856115542905172, 0.08640979543997673, 0.10331567390676355, 0.11800254702393431, 0.13652975689183222, 0.15335610479087336, 0.1681436711223796, 0.18656779844604898, 0.20299273882847046, 0.21834486981970258, 0.23694580759911332, 0.25358749437873485, 0.2680586450951523, 0.2866913268371718, 0.30293058209645096, 0.318422659591306, 0.3373922369282809, 0.353193220718822, 0.3679838590469444, 0.3868015432381071, 0.40575541925500147, 0.4182850682918797, 0.43837558295490453, 0.45328534647705965, 0.46832857117260573, 0.48662230931950035, 0.5035029291466344, 0.5185096312197857, 0.5372197955366573, 0.5533341229529469, 0.5685012514950358, 0.5864215714245802, 0.6030963675002567, 0.6183856932329945, 0.6366248181147967, 0.6531262170683476, 0.6682643323147204, 0.68643109461118, 0.7028802696295315, 0.7181788113521179, 0.7374412523349747, 0.7530613296767115, 0.7709485403102008, 0.786537556348776, 0.8037789650843479, 0.8184975821714033, 0.8372036504879361, 0.8531595994281815]
9	面包	False	animate	inanimate	right	0.895	[0.0, -1.0, -2.0, -2.0, -5.0, -5.0, -5.0, -5.0, -5.0, -5.0, -5.0, -5.0, -5.0, -5.0, -5.0, -5.0, -5.0, -5.0, -5.0, -5.0, -5.0, -5.0, -5.0, -6.0, -6.0, -6.0, -9.0, -9.0, -9.0, -9.0, -9.0, -9.0, -9.0, -9.0, -9.0, -9.0, -7.0, -6.0, -6.0, -8.0, -16.0, -24.0, -29.0, -39.0, -41.0, -35.0, 35.0, 129.0, 192.0, 416.0, 595.0, 768.0, 916.0, 959.0, 959.0]	[-490.0, -491.0, -491.0, -491.0, -492.0, -492.0, -492.0, -492.0, -492.0, -492.0, -492.0, -492.0, -492.0, -492.0, -492.0, -492.0, -492.0, -492.0, -492.0, -492.0, -492.0, -492.0, -492.0, -492.0, -491.0, -491.0, -492.0, -500.0, -509.0, -509.0, -509.0, -509.0, -509.0, -509.0, -510.0, -512.0, -511.0, -505.0, -500.0, -494.0, -464.0, -424.0, -407.0, -362.0, -309.0, -240.0, -77.0, 38.0, 92.0, 248.0, 350.0, 433.0, 494.0, 526.0, 537.0]	[0.012588528967171442, 0.01869326833548257, 0.022826810069091152, 0.041783075423154514, 0.058450703509151936, 0.07320652587804943, 0.0912377790082246, 0.10853004634554964, 0.1228158532831003, 0.14160588949744124, 0.15838957078085514, 0.17343893946963362, 0.1912077075758134, 0.2104773165556253, 0.22323019731993554, 0.24188370036426932, 0.25784749996091705, 0.2746349359076703, 0.29216477096633753, 0.30809443727048347, 0.32284275031270226, 0.3432148646461428, 0.35839359850797337, 0.37359417768311687, 0.39179916926514124, 0.40841628007910913, 0.42286387881904375, 0.44235569553711684, 0.4583747910655802, 0.47327192527154693, 0.49238076643814566, 0.508174240902008, 0.5229187992881634, 0.5413166439757333, 0.5588297537251492, 0.573394429658947, 0.5914181734551676, 0.6078243405208923, 0.6230853356246371, 0.6422767793628736, 0.6584733680138015, 0.6745037275322829, 0.6913959526864346, 0.7085073135749553, 0.7232371946447529, 0.7418190177777433, 0.7580251637482434, 0.7729315139440587, 0.7909972416891833, 0.8081751625068136, 0.8232115605424042, 0.8414049468046869, 0.8579964576492785, 0.8732813460592297, 0.8912368232704466]
10	珍珠	False	inanimate	animate	left	0.971	[0.0, 0.0, 0.0, 0.0, 0.0, 0.0, 0.0, 0.0, 0.0, 0.0, 0.0, 0.0, 0.0, 0.0, 0.0, 0.0, 0.0, 0.0, 0.0, 0.0, 0.0, 0.0, 0.0, 0.0, 0.0, 0.0, 0.0, 0.0, 0.0, 0.0, 0.0, 0.0, 0.0, 0.0, 0.0, 0.0, 0.0, 0.0, 0.0, 0.0, 0.0, 0.0, -1.0, -2.0, -6.0, -10.0, -19.0, -40.0, -86.0, -214.0, -277.0, -471.0, -592.0, -703.0, -776.0, -806.0, -810.0, -810.0]	[-490.0, -490.0, -490.0, -490.0, -490.0, -490.0, -490.0, -490.0, -490.0, -490.0, -490.0, -490.0, -490.0, -490.0, -490.0, -490.0, -490.0, -490.0, -490.0, -490.0, -490.0, -490.0, -490.0, -490.0, -490.0, -490.0, -490.0, -490.0, -490.0, -490.0, -490.0, -490.0, -490.0, -490.0, -490.0, -490.0, -490.0, -490.0, -490.0, -490.0, -490.0, -487.0, -481.0, -475.0, -464.0, -448.0, -419.0, -363.0, -258.0, -57.0, 17.0, 227.0, 332.0, 415.0, 459.0, 474.0, 476.0, 476.0]	[0.01349783986370312, 0.028707635028695222, 0.04345799607108347, 0.060272397320659366, 0.07750117673276691, 0.09167024780617794, 0.10991005535470322, 0.12685484577377792, 0.141994326353597, 0.1602884058302152, 0.17713352703867713, 0.19290583886322565, 0.2104305539323832, 0.2278375091336784, 0.2415154021291528, 0.26010302791837603, 0.27637641647743294, 0.2916746168702957, 0.309918520404608, 0.32775214176945155, 0.34179765032604337, 0.3598562100814888, 0.37678154453169554, 0.39173704665881814, 0.41033559510833584, 0.4271216657216428, 0.44184403746476164, 0.4598691466017044, 0.47678287572489353, 0.4914226449036505, 0.5100426973294816, 0.5271035409459728, 0.541947768542741, 0.5598868617817061, 0.5767589482857147, 0.5914328507569735, 0.6100675804991624, 0.6275625995986047, 0.6418146145661012, 0.6598970676350291, 0.6770097938569961, 0.6914044859950081, 0.7130497721300344, 0.7283742551589967, 0.7418220897598076, 0.7598396895700716, 0.7772179728053743, 0.7913867025490617, 0.8106160342431394, 0.8263149594858987, 0.8421708978785318, 0.8596147170392214, 0.8789594192567165, 0.8913634577766061, 0.9124544192454778, 0.9270399164888659, 0.9420169225923019, 0.9604178392764879]
11	教室	False	animate	inanimate	right	0.923	[0.0, 0.0, 0.0, 0.0, 0.0, 0.0, 0.0, 0.0, 0.0, 0.0, 0.0, 0.0, 0.0, 0.0, 0.0, 0.0, 0.0, 0.0, 0.0, 0.0, 0.0, 0.0, 0.0, 0.0, 0.0, 0.0, 0.0, 0.0, 0.0, 0.0, 0.0, 0.0, 0.0, 0.0, 0.0, 0.0, 0.0, 0.0, -1.0, -6.0, -17.0, -19.0, -28.0, -36.0, -38.0, -19.0, 34.0, 118.0, 229.0, 351.0, 480.0, 630.0, 847.0, 905.0, 959.0, 959.0]	[-490.0, -490.0, -490.0, -490.0, -490.0, -490.0, -490.0, -490.0, -490.0, -490.0, -490.0, -490.0, -490.0, -490.0, -490.0, -490.0, -490.0, -490.0, -490.0, -490.0, -490.0, -490.0, -490.0, -490.0, -490.0, -490.0, -490.0, -490.0, -490.0, -490.0, -490.0, -490.0, -490.0, -490.0, -490.0, -490.0, -490.0, -490.0, -489.0, -474.0, -455.0, -450.0, -437.0, -411.0, -382.0, -304.0, -196.0, -74.0, 55.0, 168.0, 275.0, 370.0, 468.0, 491.0, 529.0, 535.0]	[0.0003222182785975747, 0.0060142861475469545, 0.015853890392463654, 0.03401689802558394, 0.05155765573726967, 0.06540041253174422, 0.0840334356034873, 0.10099734066898236, 0.11620030917401891, 0.13429231956251897, 0.15143952040671138, 0.16580519924900727, 0.18546563442941988, 0.20086384536261903, 0.2162333843371016, 0.23378608869825257, 0.2507411191108986, 0.265525272116065, 0.2840784232830629, 0.3003869691310683, 0.31590089193196036, 0.3336799000244355, 0.3507796556004905, 0.365491787357314, 0.3840858984767692, 0.40039751632139087, 0.41592509243491804, 0.43369317787437467, 0.4508052214368945, 0.46546137458790326, 0.484025107078196, 0.5004514127867878, 0.515847917064093, 0.5338440128980437, 0.5508147446234943, 0.5655268763803178, 0.5841114301802008, 0.6007039650212391, 0.6159096641858923, 0.6338863040436991, 0.6508795637419098, 0.6656343621216365, 0.6840035348432139, 0.7010497011433472, 0.7158976834034547, 0.7361732005156227, 0.750864510962856, 0.7683591887325747, 0.784141399206419, 0.8021815269894432, 0.8159218839064124, 0.8394564477930544, 0.85079791690805, 0.8682185254292563, 0.8840331625397084, 0.9019763517717365]
12	钢琴	False	inanimate	animate	left	1.201	[0.0, 0.0, 0.0, 0.0, 0.0, 0.0, 0.0, 0.0, 0.0, 0.0, 0.0, 0.0, 0.0, 0.0, 0.0, 0.0, 0.0, 0.0, 0.0, 0.0, 0.0, 0.0, 0.0, 0.0, 0.0, 0.0, 0.0, 0.0, 0.0, 0.0, 0.0, -2.0, -2.0, -2.0, -2.0, -3.0, -4.0, -7.0, -8.0, -8.0, -4.0, 9.0, 9.0, 9.0, -6.0, -32.0, -87.0, -161.0, -263.0, -374.0, -472.0, -561.0, -615.0, -638.0, -646.0, -647.0, -647.0, -647.0, -647.0, -647.0, -647.0, -647.0, -647.0, -648.0, -650.0, -662.0, -667.0, -687.0, -702.0, -714.0, -720.0]	[-490.0, -490.0, -490.0, -490.0, -490.0, -490.0, -490.0, -490.0, -490.0, -490.0, -490.0, -490.0, -490.0, -490.0, -490.0, -490.0, -490.0, -490.0, -490.0, -490.0, -490.0, -490.0, -490.0, -490.0, -490.0, -490.0, -490.0, -490.0, -490.0, -490.0, -490.0, -486.0, -486.0, -486.0, -486.0, -485.0, -475.0, -460.0, -444.0, -415.0, -346.0, -234.0, -199.0, -112.0, -60.0, 2.0, 91.0, 182.0, 265.0, 345.0, 409.0, 467.0, 500.0, 515.0, 521.0, 522.0, 522.0, 522.0, 522.0, 522.0, 522.0, 522.0, 521.0, 514.0, 508.0, 502.0, 501.0, 496.0, 491.0, 488.0, 486.0]	[0.006797645204642322, 0.013999769937072415, 0.02913549585355213, 0.047435719323402736, 0.06396954490628559, 0.07880148452386493, 0.09699657744931756, 0.11559649123228155, 0.12893134463229217, 0.14914746981230564, 0.1640968279534718, 0.18296605341311079, 0.1969419300512527, 0.21447654376970604, 0.22860397222393658, 0.2470277582106064, 0.26365476768114604, 0.27880448824726045, 0.2969442852481734, 0.3137064625552739, 0.32870292463485384, 0.34702738274791045, 0.36371549080649856, 0.37869317958393367, 0.3969295737988432, 0.41365966581361135, 0.42916710328427143, 0.4482080192028661, 0.46395712038793135, 0.4791897848554072, 0.4971824673630181, 0.513734042251599, 0.5293776715625427, 0.547258396873076, 0.564235272591759, 0.5792051107055158, 0.5972551371378358, 0.6137101148196962, 0.629490277300647, 0.6474826184712583, 0.6655940848359023, 0.6787026345045888, 0.6973486282295198, 0.714356906573812, 0.7291768995419261, 0.7469316729911952, 0.7640966231556376, 0.7791838798002573, 0.7971458423417062, 0.8136001373495674, 0.829184716065356, 0.846842550970905, 0.863959373185935, 0.879157904360909, 0.8971202082393575, 0.9135840605667909, 0.929201407241635, 0.9476122225823929, 0.9639729923655977, 0.9791585528946598, 0.9975366002690862, 1.0134959625356714, 1.0292030797718326, 1.0472797301772516, 1.0641391873723478, 1.0790919588398538, 1.0970587000410887, 1.113504120396101, 1.1291801763363765, 1.147571877030714, 1.163884860208782]
13	黄瓜	False	animate	inanimate	right	0.956	[0.0, 0.0, 0.0, 0.0, 0.0, 0.0, 0.0, 0.0, 0.0, 0.0, 0.0, 0.0, 0.0, 0.0, 0.0, 0.0, 0.0, 0.0, 0.0, 0.0, 0.0, 0.0, 0.0, 0.0, 0.0, 0.0, 0.0, 0.0, 0.0, 0.0, 0.0, 0.0, 0.0, 0.0, 0.0, 0.0, 0.0, 0.0, 0.0, 0.0, 0.0, 0.0, -9.0, -30.0, -50.0, -57.0, -57.0, -25.0, 37.0, 144.0, 273.0, 401.0, 589.0, 650.0, 760.0, 841.0]	[-490.0, -490.0, -490.0, -490.0, -490.0, -490.0, -490.0, -490.0, -490.0, -490.0, -490.0, -490.0, -490.0, -490.0, -490.0, -490.0, -490.0, -490.0, -490.0, -490.0, -490.0, -490.0, -490.0, -490.0, -490.0, -490.0, -490.0, -490.0, -490.0, -490.0, -490.0, -490.0, -490.0, -490.0, -490.0, -490.0, -490.0, -490.0, -486.0, -484.0, -467.0, -457.0, -435.0, -378.0, -332.0, -293.0, -228.0, -140.0, -30.0, 83.0, 193.0, 297.0, 412.0, 440.0, 487.0, 507.0]	[0.006522018869873136, 0.011653276742435992, 0.02775326817209134, 0.045972595740749966, 0.06290919417369878, 0.07787186429777648, 0.0963635755397263, 0.11252500690170564, 0.1280433670253842, 0.14586333507031668, 0.1627811601938447, 0.17742331870249473, 0.1961153923693928, 0.21242837554746075, 0.22794775967486203, 0.2461520685974392, 0.26286543529568007, 0.27744171654921956, 0.29608429694053484, 0.31277342900284566, 0.3280692400658154, 0.3474050676304614, 0.3628783718086197, 0.38039523622137494, 0.39640443309326656, 0.4138663428966538, 0.4282122244258062, 0.4468015568854753, 0.46284079105680576, 0.4786069588881219, 0.4960886660046526, 0.5125839209649712, 0.5277984947897494, 0.5470653731026687, 0.5626400531618856, 0.5805296531252679, 0.5961712344360421, 0.615808800313971, 0.6280111110681901, 0.6461253080924507, 0.6625413738147472, 0.6790601807442727, 0.6961735896329628, 0.7154490012762835, 0.7279062877278193, 0.7484692071593599, 0.7624611264400301, 0.778040585166309, 0.796406003224547, 0.8146287441195454, 0.8281991172407288, 0.8463457408943214, 0.8623549377734889, 0.8780166577271302, 0.8956611806497676, 0.9129466213271371]
14	苹果	False	animate	inanimate	right	1.324	[0.0, 0.0, 0.0, 0.0, 0.0, 0.0, 0.0, 0.0, 0.0, 0.0, 0.0, 0.0, 0.0, 0.0, 0.0, 0.0, 0.0, 0.0, 0.0, 0.0, 0.0, 0.0, 0.0, 0.0, 0.0, 0.0, 0.0, 0.0, 0.0, 0.0, 0.0, 0.0, 0.0, 0.0, 0.0, 0.0, 0.0, 0.0, 0.0, 0.0, 0.0, 0.0, 0.0, 0.0, 0.0, 0.0, 0.0, 0.0, 0.0, 3.0, 8.0, 9.0, 9.0, 9.0, 9.0, 9.0, 9.0, 9.0, 9.0, 5.0, -1.0, -57.0, -147.0, -254.0, -364.0, -472.0, -562.0, -607.0, -622.0, -622.0, -612.0, -466.0, -264.0, -38.0, 211.0, 454.0, 789.0, 890.0, 959.0, 959.0, 959.0]	[-490.0, -490.0, -490.0, -490.0, -490.0, -490.0, -490.0, -490.0, -490.0, -490.0, -490.0, -490.0, -490.0, -490.0, -490.0, -490.0, -490.0, -490.0, -490.0, -490.0, -490.0, -490.0, -490.0, -490.0, -490.0, -490.0, -490.0, -490.0, -490.0, -490.0, -490.0, -490.0, -490.0, -490.0, -490.0, -490.0, -490.0, -490.0, -490.0, -490.0, -490.0, -490.0, -490.0, -490.0, -490.0, -489.0, -484.0, -482.0, -474.0, -448.0, -420.0, -392.0, -359.0, -323.0, -276.0, -225.0, -189.0, -165.0, -144.0, -122.0, -93.0, 3.0, 86.0, 177.0, 265.0, 336.0, 385.0, 409.0, 423.0, 429.0, 439.0, 455.0, 455.0, 458.0, 462.0, 474.0, 515.0, 526.0, 540.0, 540.0, 540.0]	[0.009826292254729196, 0.015617005337844603, 0.023273102859093342, 0.03364552780112717, 0.050274243934836704, 0.06582400669140043, 0.08633401952101849, 0.10086899949237704, 0.11881526072102133, 0.13375437886861619, 0.1508773450841545, 0.16595402040547924, 0.1846525793953333, 0.20048598981520627, 0.21588147008878877, 0.23431617873575306, 0.2529973297496326, 0.26578263714327477, 0.2859048957689083, 0.3009245684952475, 0.3167979148638551, 0.33479366936080623, 0.3509117514404352, 0.36585360025492264, 0.38539456891157897, 0.40033027373283403, 0.4158868631493533, 0.4343048464797903, 0.4529112455857103, 0.46579827019013464, 0.4846695436426671, 0.5008241483446909, 0.5159765995776979, 0.534287745700567, 0.5507205367393908, 0.5653978525369894, 0.5841104061764781, 0.6007892982524936, 0.6158134083016193, 0.6338429547686246, 0.6507525878987508, 0.6653759730907041, 0.6840458601218415, 0.7027611444282229, 0.7158621847775066, 0.734319421397231, 0.750904105581867, 0.7656397893151734, 0.7840291006796178, 0.8014650691766292, 0.815880923961231, 0.8342500966828084, 0.8505572771973675, 0.8681424081878504, 0.883963189291535, 0.9007673505475395, 0.9158832791581517, 0.9337605911277933, 0.9504364112071926, 0.9654076146543957, 0.9836576621892164, 1.0017769792102627, 1.0158999703344307, 1.0345241187533247, 1.0503909797989763, 1.0683997049491154, 1.0839644863517606, 1.1038979878721875, 1.1157326830652892, 1.133821621457173, 1.1509718943052576, 1.1660608576057712, 1.183663737916504, 1.2006170616587042, 1.2159214060447994, 1.2340997736610007, 1.2507489697673009, 1.2654764615072054, 1.2836968130723108, 1.301463533178321, 1.3154557937959908]
15	桥梁	False	animate	inanimate	right	1.272	[0.0, 0.0, 0.0, 0.0, 0.0, 0.0, 0.0, 0.0, 0.0, 0.0, 0.0, 0.0, 0.0, 0.0, 0.0, 0.0, 0.0, 0.0, 0.0, 0.0, 0.0, 0.0, 0.0, 0.0, 0.0, 0.0, 0.0, 0.0, 0.0, 0.0, 0.0, 0.0, 0.0, 0.0, 0.0, 0.0, 0.0, 0.0, 0.0, 0.0, 0.0, 1.0, -4.0, -18.0, -18.0, -18.0, 12.0, 84.0, 202.0, 424.0, 497.0, 648.0, 877.0, 959.0, 959.0, 959.0, 959.0, 959.0, 959.0, 958.0, 945.0, 929.0, 919.0, 911.0, 907.0, 904.0, 903.0, 901.0, 896.0, 888.0, 876.0, 856.0, 839.0, 824.0, 808.0, 798.0, 789.0]	[-490.0, -490.0, -490.0, -490.0, -490.0, -490.0, -490.0, -490.0, -490.0, -490.0, -490.0, -490.0, -490.0, -490.0, -490.0, -490.0, -490.0, -490.0, -490.0, -490.0, -490.0, -490.0, -490.0, -490.0, -490.0, -490.0, -490.0, -490.0, -490.0, -490.0, -490.0, -490.0, -490.0, -490.0, -490.0, -490.0, -490.0, -490.0, -490.0, -490.0, -490.0, -462.0, -450.0, -368.0, -308.0, -264.0, -131.0, -28.0, 71.0, 231.0, 281.0, 379.0, 496.0, 540.0, 540.0, 540.0, 540.0, 540.0, 540.0, 540.0, 536.0, 530.0, 525.0, 522.0, 520.0, 518.0, 518.0, 516.0, 513.0, 507.0, 501.0, 492.0, 484.0, 476.0, 465.0, 456.0, 448.0]	[0.01348913589026779, 0.01767763221869245, 0.025933793018339202, 0.044297504413407296, 0.060648034217592794, 0.0762428529196768, 0.09452430308010662, 0.11066423046577256, 0.12623652119509643, 0.1444541420933092, 0.16109309821331408, 0.17613529891241342, 0.19428055723255966, 0.2107061802817043, 0.22651808672526386, 0.2446756330318749, 0.2609138642947073, 0.2761977287082118, 0.2942784751066938, 0.3113748173491331, 0.32628731153090484, 0.34465887358237524, 0.3612746190628968, 0.3760744733881438, 0.3943719661911018, 0.4113242659368552, 0.42631253603758523, 0.4440178162185475, 0.460882734732877, 0.47624305771751096, 0.4943077614661888, 0.511316039817757, 0.5264845336932922, 0.5447635945238289, 0.5608820179331815, 0.5761484743634355, 0.5943435672961641, 0.6113497976402869, 0.6264885955606587, 0.6441116145069827, 0.6609161170927109, 0.6762341147914412, 0.6942878958943766, 0.7109626919700531, 0.7257502583088353, 0.7440460444486234, 0.7608836563304067, 0.7760422515566461, 0.7953289271827089, 0.8113070627587149, 0.8264284526958363, 0.8445761003458756, 0.8609645181059022, 0.8760845427095774, 0.8965498409233987, 0.9109998289932264, 0.9284975787595613, 0.9444624023526558, 0.9610580091903103, 0.975920327437052, 0.9951885710834176, 1.011071816108597, 1.0264249711035518, 1.0440124914239277, 1.0609221245540539, 1.0756584909468074, 1.09440995654586, 1.1117803891320364, 1.1260798493822222, 1.1441865370798041, 1.1609453010605648, 1.1763486319905496, 1.1952833933682996, 1.2105105965092662, 1.226080497908697, 1.2441998149297433, 1.260702237887017]
16	钢笔	False	inanimate	animate	left	0.913	[0.0, 0.0, 0.0, 0.0, 0.0, 0.0, 0.0, 0.0, 0.0, 0.0, 0.0, 0.0, 0.0, 0.0, 0.0, 0.0, 0.0, 0.0, 0.0, 0.0, 0.0, 0.0, 0.0, 0.0, 0.0, 0.0, 0.0, 0.0, 0.0, 0.0, 0.0, 0.0, 0.0, 0.0, 0.0, 0.0, 0.0, 0.0, 0.0, 0.0, 0.0, -1.0, -22.0, -58.0, -117.0, -217.0, -358.0, -504.0, -647.0, -758.0, -848.0, -870.0, -898.0, -899.0, -899.0]	[-490.0, -490.0, -490.0, -490.0, -490.0, -490.0, -490.0, -490.0, -490.0, -490.0, -490.0, -490.0, -490.0, -490.0, -490.0, -490.0, -490.0, -490.0, -490.0, -490.0, -490.0, -490.0, -490.0, -490.0, -490.0, -490.0, -490.0, -490.0, -490.0, -490.0, -490.0, -490.0, -490.0, -490.0, -490.0, -490.0, -487.0, -470.0, -458.0, -452.0, -417.0, -370.0, -299.0, -198.0, -66.0, 80.0, 214.0, 325.0, 422.0, 491.0, 540.0, 540.0, 540.0, 540.0, 540.0]	[0.010127518566150684, 0.030037468110094778, 0.03655112432898022, 0.052479766636679415, 0.06902758686919697, 0.08387044913251884, 0.1024290616333019, 0.11971791564428713, 0.13453927393857157, 0.1522360207964084, 0.1692395204809145, 0.1842506598768523, 0.2052344428084325, 0.21886011186870746, 0.23416377358080354, 0.2524769677038421, 0.26928795561980223, 0.28398609272699105, 0.3023112335067708, 0.3187829364906065, 0.33399546231521526, 0.35257523745531216, 0.3694251373235602, 0.38446426602604333, 0.40335192345810356, 0.41908293400047114, 0.43396197755646426, 0.4551785495423246, 0.4695302337349858, 0.4842778641177574, 0.503550203757186, 0.5190572998981224, 0.5339339541242225, 0.5553795605082996, 0.5694301890544011, 0.5842692966616596, 0.6034433324166457, 0.6191763909591828, 0.6339086613588734, 0.6546647752256831, 0.6687382730815443, 0.6874866666839807, 0.703251127844851, 0.7190893169245101, 0.7339140885524102, 0.7537670355013688, 0.7693662915262394, 0.7844224868749734, 0.8019799699031864, 0.8193459651520243, 0.8340249876200687, 0.8552145943031064, 0.8686306849413086, 0.8843695461400785, 0.9027271135419142]
17	蚯蚓	True	animate	inanimate	left	0.952	[0.0, 0.0, 0.0, 0.0, 0.0, 0.0, 0.0, 0.0, 0.0, 0.0, 0.0, 0.0, 0.0, 0.0, 0.0, 0.0, 0.0, 0.0, 0.0, 0.0, 0.0, 0.0, 0.0, 0.0, 0.0, 0.0, 0.0, 0.0, 0.0, 0.0, 0.0, 0.0, 0.0, 0.0, 0.0, 0.0, 0.0, 0.0, 0.0, 0.0, 1.0, 1.0, -5.0, -10.0, -14.0, -27.0, -49.0, -90.0, -155.0, -246.0, -440.0, -514.0, -719.0, -819.0, -884.0, -922.0, -932.0, -932.0]	[-490.0, -490.0, -490.0, -490.0, -490.0, -490.0, -490.0, -490.0, -490.0, -490.0, -490.0, -490.0, -490.0, -490.0, -490.0, -490.0, -490.0, -490.0, -490.0, -490.0, -490.0, -490.0, -490.0, -490.0, -490.0, -490.0, -490.0, -490.0, -490.0, -490.0, -490.0, -490.0, -490.0, -490.0, -490.0, -490.0, -490.0, -490.0, -490.0, -490.0, -490.0, -482.0, -471.0, -461.0, -449.0, -429.0, -397.0, -330.0, -212.0, -83.0, 122.0, 187.0, 350.0, 422.0, 467.0, 490.0, 497.0, 497.0]	[0.004779855611559469, 0.020876092385151424, 0.02845846199488733, 0.04202405644900864, 0.061394017313432414, 0.07318775255407672, 0.09294205428886926, 0.10876761405233992, 0.12368522823089734, 0.14160554815316573, 0.1587503596674651, 0.173094193203724, 0.19227198362204945, 0.20876962791226106, 0.2237558500128216, 0.24152495944872499, 0.2589769705955405, 0.2733685907369363, 0.2948551570661948, 0.30848287411936326, 0.32727427567442646, 0.3421225992642576, 0.36129219769645715, 0.373552876386384, 0.39481928297755076, 0.40854837591177784, 0.4262546800891869, 0.4421136904784362, 0.4609040680297767, 0.47360267685871804, 0.49363072760024806, 0.5088217494485434, 0.5263604591673356, 0.5420723550632829, 0.5592574438633164, 0.5731872405522154, 0.5918605409169686, 0.6091978641998139, 0.6235003964466159, 0.6415780708484817, 0.658523202604556, 0.6733565075555816, 0.6917772215456353, 0.7085161882132525, 0.7236082235176582, 0.7420705801268923, 0.7584944965055911, 0.77316669231368, 0.7917352034637588, 0.8083430982878781, 0.8235460667929146, 0.841516562657489, 0.8584371184406336, 0.8735038951126626, 0.8916430094395764, 0.910799637218588, 0.9236289765613037, 0.9416144910719595]
18	蜜蜂	True	inanimate	animate	right	0.858	[0.0, 0.0, 0.0, 0.0, 0.0, 0.0, 0.0, 0.0, 0.0, 0.0, 0.0, 0.0, 0.0, 0.0, 0.0, 0.0, 0.0, 0.0, 0.0, 0.0, 0.0, 0.0, 0.0, 0.0, 0.0, 0.0, 0.0, 0.0, 0.0, 0.0, 0.0, -1.0, -5.0, -17.0, -60.0, -73.0, -93.0, -102.0, -111.0, -113.0, -111.0, -86.0, -33.0, 52.0, 153.0, 262.0, 440.0, 501.0, 620.0, 714.0, 769.0]	[-490.0, -490.0, -490.0, -490.0, -490.0, -490.0, -490.0, -490.0, -490.0, -490.0, -490.0, -490.0, -490.0, -490.0, -490.0, -490.0, -490.0, -490.0, -490.0, -490.0, -490.0, -490.0, -490.0, -490.0, -490.0, -490.0, -490.0, -490.0, -490.0, -490.0, -490.0, -486.0, -478.0, -457.0, -392.0, -375.0, -347.0, -332.0, -306.0, -292.0, -243.0, -181.0, -107.0, -13.0, 72.0, 149.0, 266.0, 298.0, 350.0, 389.0, 410.0]	[0.0059100089347339235, 0.01124709055875428, 0.02716754087305162, 0.04549404697900172, 0.062015925905143376, 0.07688438814511755, 0.0956894430128159, 0.1135476403433131, 0.12733987986575812, 0.1457800498319557, 0.16210839299310464, 0.1770714044541819, 0.19556618769274792, 0.2122283544522361, 0.22727635780756827, 0.24605137537582777, 0.2621424921526341, 0.2769652157803648, 0.2951794233522378, 0.3139916462096153, 0.327222051739227, 0.3457253683009185, 0.3618571036931826, 0.3778099806368118, 0.39568763394345297, 0.41223920883930987, 0.4268257300791447, 0.4455986996545107, 0.46291724962793523, 0.47719042724202154, 0.49528482696041465, 0.5122275693865959, 0.527223007469729, 0.548102683860634, 0.5618044701550389, 0.5774013368572923, 0.5954373686472536, 0.6121807726449333, 0.6272629092927673, 0.6458297137724003, 0.6619344838691177, 0.677338156136102, 0.6962746241770219, 0.7117987869642093, 0.7271348753129132, 0.7465802707447438, 0.7619808710151119, 0.7769684584418428, 0.7954222817279515, 0.8117915848415578, 0.8273850382101955]
19	新娘	True	inanimate	animate	right	0.88	[0.0, 0.0, 0.0, 0.0, 0.0, 0.0, 0.0, 0.0, 0.0, 0.0, 0.0, 0.0, 0.0, 0.0, 0.0, 0.0, 0.0, 0.0, 0.0, 0.0, 0.0, 0.0, 0.0, 0.0, 0.0, 0.0, 0.0, 0.0, 0.0, 0.0, 0.0, 0.0, -3.0, -6.0, -18.0, -32.0, -58.0, -85.0, -104.0, -112.0, -119.0, -119.0, -119.0, -77.0, -8.0, 39.0, 196.0, 322.0, 466.0, 613.0, 749.0, 873.0, 958.0, 959.0]	[-490.0, -490.0, -490.0, -490.0, -490.0, -490.0, -490.0, -490.0, -490.0, -490.0, -490.0, -490.0, -490.0, -490.0, -490.0, -490.0, -490.0, -490.0, -490.0, -490.0, -490.0, -490.0, -490.0, -490.0, -490.0, -490.0, -490.0, -490.0, -490.0, -490.0, -490.0, -490.0, -485.0, -478.0, -453.0, -430.0, -392.0, -353.0, -332.0, -319.0, -292.0, -283.0, -262.0, -189.0, -96.0, -39.0, 138.0, 249.0, 348.0, 434.0, 510.0, 540.0, 540.0, 540.0]	[0.013654341018991545, 0.019907560214051045, 0.026178870059084147, 0.044364746994688176, 0.06144060926453676, 0.07619062897720141, 0.09444340717163868, 0.11107621929841116, 0.1265092461981112, 0.14455312863719882, 0.1614187298255274, 0.1762376987899188, 0.19464817279367708, 0.21108642515173415, 0.22666622520773672, 0.2444363586473628, 0.26133984778425656, 0.2761407261059503, 0.29467407995980466, 0.31098740447487216, 0.32629721018020064, 0.34433733796322485, 0.3613507363043027, 0.37612225999328075, 0.3947156884460128, 0.41134713523933897, 0.42660301035357406, 0.4444021570889163, 0.46138756613072474, 0.4762051697616698, 0.49479893954412546, 0.5114416503274697, 0.5265906882341369, 0.5447745171768474, 0.5613172174125793, 0.576305828835757, 0.5947190335064079, 0.6139510958673782, 0.6266247873936663, 0.6473471092976979, 0.6612772473235964, 0.6762754160736222, 0.694679746091424, 0.7115856245582108, 0.7263738735564402, 0.7462217005158891, 0.7612806265242398, 0.7787981735964422, 0.7945981333832606, 0.8123211628771969, 0.8266049218145781, 0.8457550642706337, 0.8614154188908287, 0.8787670781675843]
20	歌手	True	inanimate	animate	right	0.863	[0.0, 0.0, 0.0, 0.0, 0.0, 0.0, 0.0, 0.0, 0.0, 0.0, 0.0, 0.0, 0.0, 0.0, 0.0, 0.0, 0.0, 0.0, 0.0, 0.0, 0.0, 0.0, 0.0, 0.0, 0.0, 1.0, -1.0, -3.0, -5.0, -6.0, -6.0, -6.0, -6.0, -6.0, -13.0, -19.0, -28.0, -40.0, -68.0, -74.0, -84.0, -85.0, -85.0, -54.0, 10.0, 104.0, 210.0, 332.0, 472.0, 619.0, 806.0, 852.0]	[-490.0, -490.0, -490.0, -490.0, -490.0, -490.0, -490.0, -490.0, -490.0, -490.0, -490.0, -490.0, -490.0, -490.0, -490.0, -490.0, -490.0, -490.0, -490.0, -490.0, -490.0, -490.0, -490.0, -490.0, -490.0, -490.0, -486.0, -485.0, -484.0, -483.0, -483.0, -483.0, -483.0, -483.0, -472.0, -462.0, -447.0, -430.0, -391.0, -383.0, -351.0, -338.0, -243.0, -132.0, -28.0, 85.0, 194.0, 304.0, 403.0, 477.0, 540.0, 540.0]	[0.014050628546101507, 0.019212265040550847, 0.026541365623415913, 0.04481428246072028, 0.06183689679164672, 0.07663402044272516, 0.0950308411338483, 0.11352937903575366, 0.1269335230172146, 0.1453248823818285, 0.16158222829108126, 0.17653363443241687, 0.1950021350348834, 0.21192269081802806, 0.22701575011888053, 0.24669291061582044, 0.26181907921272796, 0.27778287880209973, 0.2950754874764243, 0.3122069870150881, 0.3270921745643136, 0.3453094541328028, 0.36170367454906227, 0.37684486179205123, 0.3948225256463047, 0.4114751350862207, 0.4268180500876042, 0.446707178329234, 0.46190673350793077, 0.48078551628714195, 0.49536486953729764, 0.515539010768407, 0.526845322594454, 0.547873820134555, 0.5619213766840403, 0.5807998181335279, 0.5953938487000414, 0.6153225715606823, 0.6268524564511608, 0.6478075674167485, 0.6619155398948351, 0.6806799761470756, 0.6953723105907557, 0.7117027017520741, 0.7268913342704764, 0.7477228827192448, 0.7618885404590401, 0.7806891579966759, 0.7953098125362885, 0.8147535013049492, 0.8269547880627215, 0.847287307769875]
21	护士	True	animate	inanimate	left	1.022	[0.0, 0.0, 0.0, 0.0, 0.0, 0.0, 0.0, 0.0, -1.0, -1.0, -1.0, -1.0, -1.0, -1.0, -1.0, -1.0, -1.0, -1.0, -1.0, -1.0, -1.0, -1.0, -1.0, -1.0, -1.0, -1.0, -1.0, -1.0, -1.0, -1.0, -1.0, -1.0, -1.0, -1.0, -14.0, -25.0, -31.0, -47.0, -64.0, -99.0, -157.0, -266.0, -311.0, -419.0, -603.0, -661.0, -770.0, -903.0, -960.0, -960.0, -960.0, -960.0, -960.0, -960.0, -960.0, -960.0, -960.0, -960.0, -960.0, -959.0, -958.0]	[-490.0, -490.0, -490.0, -490.0, -490.0, -490.0, -490.0, -490.0, -491.0, -491.0, -491.0, -491.0, -491.0, -490.0, -490.0, -490.0, -490.0, -490.0, -490.0, -490.0, -490.0, -490.0, -490.0, -490.0, -490.0, -490.0, -490.0, -490.0, -490.0, -490.0, -490.0, -490.0, -488.0, -477.0, -447.0, -421.0, -406.0, -367.0, -330.0, -249.0, -140.0, 30.0, 90.0, 208.0, 366.0, 416.0, 502.0, 540.0, 540.0, 540.0, 540.0, 540.0, 540.0, 540.0, 540.0, 540.0, 540.0, 540.0, 540.0, 536.0, 533.0]	[0.009950366780685727, 0.02496491951023927, 0.03906777199154021, 0.053197931112663355, 0.07342873360903468, 0.08486953061219538, 0.10483341076178476, 0.12090746089234017, 0.13546565149590606, 0.1535825791870593, 0.17006179149757372, 0.1853941251829383, 0.2032304772073985, 0.21994998789887177, 0.23822427006962243, 0.2538057767887949, 0.27308426042145584, 0.2848783369990997, 0.30413497532572364, 0.32094801124185324, 0.33541916195099475, 0.35329988726152806, 0.37059761592536233, 0.38513839855295373, 0.40649389304599026, 0.4204837643264909, 0.43854095875576604, 0.4532507011826965, 0.4702736568506225, 0.4852660229371395, 0.5035887743797502, 0.5199079015510506, 0.5353893977226107, 0.5538230823658523, 0.5718082555467845, 0.584932165198552, 0.6035634816071251, 0.6198276541763335, 0.6353927769159782, 0.6542633677090635, 0.6728980974439764, 0.6849362270659185, 0.7033972183417063, 0.7209492400434101, 0.7354398467286956, 0.7531905241921777, 0.7701629625807982, 0.785296981834108, 0.8051512941165129, 0.8205280010733986, 0.8355906817450887, 0.8538683772494551, 0.8707206664475962, 0.8852341424426413, 0.9032333102732082, 0.9204914443180314, 0.9353336239219061, 0.9531081946843187, 0.9700618597635184, 0.9852709722617874, 1.015048174020194]
22	鳄鱼	True	animate	inanimate	left	0.847	[0.0, 0.0, 0.0, 0.0, 0.0, 0.0, 0.0, 0.0, 0.0, 0.0, 0.0, 0.0, 0.0, 0.0, 0.0, 0.0, 0.0, 0.0, 0.0, 0.0, 0.0, 0.0, 0.0, 0.0, 0.0, 0.0, 0.0, 0.0, 0.0, 0.0, 0.0, 0.0, 0.0, 0.0, 0.0, 0.0, 0.0, 0.0, -3.0, -15.0, -43.0, -98.0, -188.0, -300.0, -430.0, -550.0, -658.0, -796.0, -818.0, -835.0, -835.0]	[-490.0, -490.0, -490.0, -490.0, -490.0, -490.0, -490.0, -490.0, -490.0, -490.0, -490.0, -490.0, -490.0, -490.0, -490.0, -490.0, -490.0, -490.0, -490.0, -490.0, -490.0, -490.0, -490.0, -490.0, -490.0, -490.0, -490.0, -490.0, -490.0, -490.0, -490.0, -490.0, -490.0, -490.0, -490.0, -490.0, -490.0, -490.0, -481.0, -457.0, -402.0, -304.0, -153.0, -4.0, 126.0, 244.0, 348.0, 459.0, 477.0, 488.0, 488.0]	[0.0007560524245491251, 0.005830649031850044, 0.015131288586417213, 0.03355268524319399, 0.05033158786682179, 0.06585063065722352, 0.08363817207282409, 0.10071027967933333, 0.11567124314024113, 0.13663181543233804, 0.1504264442846761, 0.16579393525898922, 0.18357806334825, 0.20066655493428698, 0.21524932151078247, 0.23397655247390503, 0.25092748688621214, 0.2684675619311747, 0.2843122363410657, 0.30110820560366847, 0.3157179374829866, 0.33380107321136165, 0.35085065284511074, 0.36572150441497797, 0.38365547765715746, 0.400636790698627, 0.41565543942851946, 0.4339857001978089, 0.45041814989963314, 0.4658037315166439, 0.48418826422130223, 0.5004517541237874, 0.5154666481830645, 0.5339614314216306, 0.5504747770319227, 0.5658961986046052, 0.585432729931199, 0.6006329677766189, 0.6179897470356082, 0.6339610559589346, 0.6508887797317584, 0.6657435886518215, 0.6851729414411238, 0.7005813923678943, 0.7164165094509372, 0.7337176514483872, 0.7505439993474283, 0.7655271494440967, 0.7849704968830338, 0.8005687289187335, 0.8154436764816637]
23	蝴蝶	True	animate	inanimate	left	0.933	[0.0, 0.0, 0.0, 0.0, 0.0, 0.0, 0.0, 0.0, 0.0, 0.0, 0.0, 0.0, 0.0, 0.0, 0.0, 0.0, 0.0, 0.0, 0.0, 0.0, 0.0, 0.0, 0.0, 0.0, 0.0, 0.0, 0.0, 0.0, 0.0, 0.0, 0.0, 0.0, 0.0, 0.0, -3.0, -11.0, -31.0, -72.0, -126.0, -178.0, -212.0, -231.0, -234.0, -262.0, -285.0, -316.0, -360.0, -406.0, -467.0, -531.0, -593.0, -647.0, -700.0, -744.0, -750.0, -754.0]	[-490.0, -490.0, -490.0, -490.0, -490.0, -490.0, -490.0, -490.0, -490.0, -490.0, -490.0, -490.0, -490.0, -490.0, -490.0, -490.0, -490.0, -490.0, -490.0, -490.0, -490.0, -490.0, -490.0, -490.0, -490.0, -490.0, -490.0, -490.0, -490.0, -490.0, -490.0, -490.0, -490.0, -490.0, -475.0, -452.0, -412.0, -340.0, -256.0, -178.0, -119.0, -87.0, -79.0, -18.0, 38.0, 98.0, 168.0, 227.0, 288.0, 339.0, 382.0, 417.0, 447.0, 466.0, 470.0, 471.0]	[0.015101592623977922, 0.021355153156036977, 0.028571613867825363, 0.04749340459238738, 0.06366746527055511, 0.08145910268649459, 0.09847523168718908, 0.1138283866821439, 0.12905354182294104, 0.14707318963337457, 0.1639384494847036, 0.17898815950320568, 0.19721192439465085, 0.21454173835809343, 0.22892243584647076, 0.248000898391183, 0.2639916632833774, 0.27897993337683147, 0.2972426102278405, 0.3134613855218049, 0.3290841935231583, 0.34745677957107546, 0.36365370955172693, 0.37938676809426397, 0.39706849630601937, 0.4138535429156036, 0.4291411619851715, 0.44678158891474595, 0.46369804870482767, 0.4788747345737647, 0.497118638108077, 0.5136872796501848, 0.5291015332331881, 0.547468657954596, 0.5636806065886049, 0.578645324712852, 0.5973158944034367, 0.6140845570407691, 0.6287983954607625, 0.6466975527437171, 0.6636529244860867, 0.6783544749268913, 0.6967902075703023, 0.7133073078366579, 0.7290069157461403, 0.7475122803080012, 0.7635276211731252, 0.7786281898006564, 0.7973243594606174, 0.8141193047340494, 0.8287498579229577, 0.84659747393016, 0.8636453469007392, 0.8784267692390131, 0.8968724005389959, 0.9144049662572797]
24	飞机	False	inanimate	animate	left	1.052	[0.0, 0.0, 0.0, 0.0, 0.0, 0.0, 0.0, 0.0, 0.0, 0.0, 0.0, 0.0, 0.0, 0.0, 0.0, 0.0, 0.0, 0.0, 0.0, 0.0, 0.0, 0.0, 0.0, 0.0, 0.0, 0.0, 0.0, 0.0, 0.0, 0.0, 0.0, 0.0, 0.0, 0.0, 0.0, 0.0, 0.0, 0.0, 0.0, 0.0, 0.0, 0.0, 0.0, 0.0, 0.0, -3.0, -6.0, -14.0, -16.0, -20.0, -16.0, -3.0, -3.0, -16.0, -39.0, -77.0, -137.0, -230.0, -346.0, -543.0, -612.0, -781.0, -839.0, -860.0]	[-490.0, -490.0, -490.0, -490.0, -490.0, -490.0, -490.0, -490.0, -490.0, -490.0, -490.0, -490.0, -490.0, -490.0, -490.0, -490.0, -490.0, -490.0, -490.0, -490.0, -490.0, -490.0, -490.0, -490.0, -490.0, -490.0, -490.0, -490.0, -490.0, -490.0, -490.0, -490.0, -490.0, -490.0, -490.0, -490.0, -490.0, -490.0, -490.0, -490.0, -490.0, -490.0, -490.0, -490.0, -490.0, -486.0, -470.0, -415.0, -392.0, -311.0, -237.0, -165.0, -87.0, -28.0, 19.0, 76.0, 141.0, 211.0, 287.0, 394.0, 425.0, 484.0, 497.0, 504.0]	[0.011387037055101246, 0.017069888934202027, 0.03851993264106568, 0.04165473423199728, 0.05669010827114107, 0.07182412752445089, 0.09018169492628658, 0.10641071020654636, 0.12124947647680528, 0.13955038261337904, 0.15663443686935352, 0.17134315529983724, 0.18960924547718605, 0.207461981481174, 0.22158428994589485, 0.24206051081273472, 0.2565883227944141, 0.27154314226208953, 0.28996385625214316, 0.30614167159365024, 0.3216634450509446, 0.34015344962244853, 0.35635959560022457, 0.37389489198540105, 0.3899467554729199, 0.4067492100657546, 0.4217535228090128, 0.4395263869082555, 0.4564329480417655, 0.4715546793086105, 0.48960607108165277, 0.5066894426709041, 0.5218326779140625, 0.5398700750301941, 0.5565732017421396, 0.5711870296145207, 0.5894637011151644, 0.6060958305824897, 0.6215708414238179, 0.6394399614146096, 0.6565598556262557, 0.6714259285290609, 0.6897691599515383, 0.7061917109967908, 0.7217663910560077, 0.7394559699241654, 0.7564321629761253, 0.77150883829745, 0.7897223632098758, 0.8060926903199288, 0.8217544102735701, 0.8395067944002221, 0.8564608008091454, 0.8713494016919867, 0.8896366545086494, 0.9060759308704291, 0.9217325308345607, 0.9394207443692721, 0.9564437000299222, 0.9711346691474319, 0.9898205988210975, 1.0067845038938685, 1.0215413502592128, 1.0393616596411448]
25	老鼠	True	inanimate	animate	right	1.284	[0.0, 0.0, 0.0, 0.0, 0.0, 0.0, 0.0, 0.0, 0.0, 0.0, 0.0, 0.0, 0.0, 0.0, 0.0, 0.0, 0.0, 0.0, 0.0, 0.0, 0.0, 0.0, 0.0, 0.0, 0.0, 0.0, 0.0, 0.0, 0.0, 0.0, 0.0, 0.0, 0.0, -1.0, -5.0, -8.0, -11.0, -13.0, -14.0, -14.0, -15.0, -16.0, -18.0, -19.0, -20.0, -20.0, 22.0, 140.0, 184.0, 282.0, 378.0, 470.0, 608.0, 661.0, 682.0, 685.0, 685.0, 685.0, 685.0, 685.0, 685.0, 679.0, 651.0, 614.0, 524.0, 435.0, 334.0, 231.0, 180.0, 171.0, 174.0, 242.0, 271.0, 388.0, 483.0, 531.0, 614.0, 710.0]	[-490.0, -490.0, -490.0, -490.0, -490.0, -490.0, -490.0, -490.0, -490.0, -490.0, -490.0, -490.0, -490.0, -490.0, -490.0, -490.0, -490.0, -490.0, -490.0, -490.0, -490.0, -490.0, -490.0, -490.0, -490.0, -490.0, -490.0, -490.0, -490.0, -490.0, -490.0, -490.0, -490.0, -491.0, -486.0, -482.0, -479.0, -476.0, -475.0, -475.0, -475.0, -472.0, -465.0, -456.0, -436.0, -400.0, -335.0, -223.0, -173.0, -52.0, 78.0, 178.0, 275.0, 305.0, 316.0, 317.0, 317.0, 317.0, 317.0, 317.0, 317.0, 316.0, 297.0, 252.0, 124.0, 9.0, -104.0, -181.0, -203.0, -201.0, -168.0, -36.0, 15.0, 178.0, 285.0, 340.0, 421.0, 481.0]	[0.015699607909482438, 0.022654607600998133, 0.029944113557576202, 0.04832830492523499, 0.06519697811017977, 0.07999307776481146, 0.09854964226542506, 0.11668500192899955, 0.13027926835638937, 0.15033121240412584, 0.1652945651949267, 0.18012684614222962, 0.1985390268091578, 0.21642384811275406, 0.23037310077779694, 0.2500666452542646, 0.2653013577146339, 0.28293939531431533, 0.2986785978428088, 0.31623812886391534, 0.3303341546925367, 0.34941364123369567, 0.3653262408915907, 0.38265742018120363, 0.398422564016073, 0.41577490595227573, 0.4303518698725384, 0.44839165631856304, 0.4649811191702611, 0.4800936344472575, 0.49817813550907886, 0.5171767261417699, 0.5301596653007437, 0.5487175951275276, 0.5654562204654212, 0.5804895465043955, 0.5987143353995634, 0.6181129682227038, 0.6302002497832291, 0.6503324070654344, 0.665485199628165, 0.6831317705509719, 0.6986726586474106, 0.7157287236041157, 0.7298366960894782, 0.7484878098039189, 0.7658855490226415, 0.7801600919628982, 0.7982678036642028, 0.8150323703084723, 0.8300247363949893, 0.849127092238632, 0.865100449154852, 0.8802549483880284, 0.8985312785516726, 0.9150722721242346, 0.9302499819896184, 0.9487328185787192, 0.9650710603964399, 0.9802477462653769, 0.9980755649667117, 1.0150005580799188, 1.03000896681624, 1.0482429716939805, 1.0650433782939217, 1.0801053762988886, 1.0993210546730552, 1.1173082758541568, 1.129927695445076, 1.148375716074952, 1.1646839205859578, 1.1801172888153815, 1.1992377353089978, 1.217785766486486, 1.229875778706628, 1.2483473513057106, 1.2649787981063128, 1.2801896172677516]
26	饭店	False	inanimate	animate	left	0.975	[0.0, 0.0, 0.0, 0.0, 0.0, 0.0, 0.0, 0.0, 0.0, 0.0, 0.0, 0.0, 0.0, 0.0, 0.0, 0.0, 0.0, 0.0, 0.0, 0.0, 0.0, 0.0, 0.0, 0.0, 0.0, 0.0, 1.0, 1.0, 1.0, 1.0, 1.0, 1.0, 1.0, 1.0, 1.0, 1.0, 1.0, 1.0, 1.0, 1.0, 1.0, 1.0, 1.0, 1.0, 3.0, 4.0, 10.0, 14.0, 14.0, -5.0, -29.0, -74.0, -142.0, -236.0, -360.0, -491.0, -665.0, -695.0, -714.0]	[-490.0, -490.0, -490.0, -490.0, -490.0, -490.0, -490.0, -490.0, -490.0, -490.0, -490.0, -490.0, -490.0, -490.0, -490.0, -490.0, -490.0, -490.0, -490.0, -490.0, -490.0, -490.0, -490.0, -490.0, -490.0, -490.0, -490.0, -489.0, -489.0, -489.0, -489.0, -489.0, -489.0, -488.0, -488.0, -488.0, -488.0, -488.0, -488.0, -488.0, -488.0, -487.0, -485.0, -483.0, -468.0, -458.0, -405.0, -328.0, -293.0, -205.0, -151.0, -81.0, 12.0, 112.0, 223.0, 323.0, 422.0, 434.0, 438.0]	[0.015214915154501796, 0.019108499836875126, 0.02914061585761374, 0.056287847422936466, 0.06414396603940986, 0.0793954038163065, 0.09713754795666318, 0.11397891450178577, 0.1289719632550259, 0.1471581815276295, 0.16543246369838016, 0.17925269252009457, 0.19771573179605184, 0.21445879446400795, 0.2294269259145949, 0.2478339865920134, 0.26679093460552394, 0.2791997517851996, 0.2976658630577731, 0.3149417464155704, 0.32940572913503274, 0.347318881067622, 0.36422475954168476, 0.3791932323219953, 0.3998032556992257, 0.41445736086461693, 0.42939545501576504, 0.4483469417100423, 0.46672533042146824, 0.4789665531279752, 0.4972094326658407, 0.5143805268235155, 0.5315273863379844, 0.5478748441382777, 0.5641854379864526, 0.5791859960663714, 0.5980405442096526, 0.6144255486360635, 0.6313010484736878, 0.6478406767128035, 0.6649267789689475, 0.6792159992328379, 0.6972745589882834, 0.7138971311287605, 0.7292072781783645, 0.7477372187058791, 0.7640420098905452, 0.7789172987904749, 0.797635996423196, 0.8139274756322266, 0.829543798303348, 0.8471715959167341, 0.8641099010128528, 0.8787855101472815, 0.8974195572154713, 0.9144404648832278, 0.9292751351604238, 0.9471009058615891, 0.9642003201006446]
27	老虎	True	inanimate	animate	right	1.254	[0.0, 0.0, 0.0, 0.0, 0.0, 0.0, 0.0, 0.0, 0.0, 0.0, 0.0, 0.0, 0.0, 0.0, 0.0, 0.0, 0.0, 0.0, 0.0, 0.0, 0.0, 0.0, 0.0, 0.0, 0.0, 0.0, 0.0, 0.0, 0.0, 0.0, 0.0, 0.0, 0.0, 0.0, 0.0, 0.0, -5.0, -9.0, -13.0, -19.0, -31.0, -45.0, -61.0, -74.0, -80.0, -83.0, -72.0, -28.0, 33.0, 119.0, 277.0, 343.0, 526.0, 607.0, 636.0, 639.0, 639.0, 639.0, 639.0, 639.0, 639.0, 639.0, 628.0, 619.0, 582.0, 539.0, 487.0, 452.0, 440.0, 439.0, 454.0, 489.0, 543.0, 603.0, 693.0, 718.0]	[-490.0, -490.0, -490.0, -490.0, -490.0, -490.0, -490.0, -490.0, -490.0, -490.0, -490.0, -490.0, -490.0, -490.0, -490.0, -490.0, -490.0, -490.0, -490.0, -490.0, -490.0, -490.0, -490.0, -490.0, -490.0, -490.0, -490.0, -490.0, -490.0, -490.0, -490.0, -490.0, -490.0, -490.0, -490.0, -478.0, -465.0, -455.0, -448.0, -437.0, -418.0, -398.0, -375.0, -357.0, -336.0, -300.0, -192.0, -72.0, 52.0, 179.0, 344.0, 394.0, 489.0, 511.0, 516.0, 517.0, 517.0, 517.0, 517.0, 517.0, 517.0, 517.0, 512.0, 505.0, 457.0, 392.0, 316.0, 252.0, 226.0, 226.0, 245.0, 283.0, 330.0, 384.0, 446.0, 457.0]	[0.014117188460659236, 0.023423289341735654, 0.029173383809393272, 0.04513684206904145, 0.061951243318617344, 0.07669614303449634, 0.09524792886804789, 0.11160767466208199, 0.12707961350679398, 0.144891048228601, 0.16198534247814678, 0.1766360343026463, 0.19525915872509358, 0.21155507525691064, 0.22704817674821243, 0.24491524873155868, 0.261915335089725, 0.2766394135032897, 0.2952922338809003, 0.3115960010763956, 0.32703721996222157, 0.3449800678572501, 0.36192963694338687, 0.3766427926966571, 0.3951897998704226, 0.4116669641880435, 0.4270563004683936, 0.44501723901339574, 0.4620070853852667, 0.47686087030160706, 0.49524745100643486, 0.5120021189868567, 0.5270019944000524, 0.54641735253972, 0.5620606405209401, 0.5792972705967259, 0.5952795021657948, 0.61266222273116, 0.6270408722193679, 0.6461384494032245, 0.6620244250952965, 0.6790900473715737, 0.6952866360225016, 0.7124976661289111, 0.7270852113724686, 0.7450912058557151, 0.7619731910235714, 0.7767167254060041, 0.7947636798489839, 0.8136438279616414, 0.8269247507632826, 0.8455526538382401, 0.862159183336189, 0.8770884028344881, 0.895519356810837, 0.914311782362347, 0.9269595325895352, 0.9482498324869084, 0.9621697305192356, 0.980184599669883, 0.9954773387289606, 1.012423153151758, 1.0266014402150176, 1.0452952205450856, 1.062617866518849, 1.076944633401581, 1.0955742431469844, 1.1138239493448054, 1.1269860882894136, 1.1479336899283226, 1.1621099289914127, 1.1790932900403277, 1.195506283758732, 1.2149469005380524, 1.2269024275883567, 1.2467417212174041]
28	番茄	False	inanimate	animate	left	0.848	[0.0, 0.0, 0.0, 0.0, 0.0, 0.0, 0.0, 0.0, 0.0, 0.0, 0.0, 0.0, 0.0, 0.0, 0.0, 0.0, 0.0, 0.0, 0.0, 0.0, 0.0, 0.0, 0.0, 0.0, 0.0, 0.0, -1.0, -1.0, -1.0, -1.0, -1.0, -1.0, -1.0, -1.0, -2.0, -3.0, -4.0, -4.0, -6.0, -9.0, -16.0, -40.0, -56.0, -144.0, -257.0, -331.0, -571.0, -719.0, -832.0, -888.0, -907.0, -907.0]	[-490.0, -490.0, -490.0, -490.0, -490.0, -490.0, -490.0, -490.0, -490.0, -490.0, -490.0, -490.0, -490.0, -490.0, -490.0, -490.0, -490.0, -490.0, -490.0, -490.0, -490.0, -490.0, -490.0, -490.0, -490.0, -490.0, -490.0, -490.0, -490.0, -490.0, -490.0, -490.0, -490.0, -490.0, -490.0, -490.0, -490.0, -490.0, -487.0, -480.0, -466.0, -413.0, -384.0, -227.0, -65.0, 40.0, 304.0, 424.0, 498.0, 532.0, 540.0, 540.0]	[0.010497352785023395, 0.015041518025100231, 0.01957100594881922, 0.03810811446601292, 0.05531334190891357, 0.07372552258311771, 0.08868341404740931, 0.10846229174785549, 0.11969214500277303, 0.13841766929544974, 0.1546453192422632, 0.17057498554640915, 0.18835126297926763, 0.20653406791825546, 0.22000784382544225, 0.24052297665184597, 0.25518220179947093, 0.2733482814364834, 0.28865364981174935, 0.307815056257823, 0.319997228369175, 0.3393091626348905, 0.35521595962927677, 0.372360088476853, 0.38863552503607934, 0.40642818644846557, 0.4200439568448928, 0.438232905784389, 0.4552172908297507, 0.47072984829719644, 0.4886784988484578, 0.5055212307270267, 0.5200145680792048, 0.5382089783452102, 0.5552138433631626, 0.5726600518537452, 0.5879978468656191, 0.6050334318497335, 0.6199708433341584, 0.638067291045445, 0.6546758685435634, 0.6700334608613048, 0.6885268787664245, 0.7056587196348119, 0.7197837587591494, 0.7382000354264164, 0.7552881856754539, 0.7704054796122364, 0.7878424721202464, 0.8048142278421437, 0.8197209193676827, 0.8382030732900603]
29	药品	False	inanimate	animate	left	0.874	[0.0, 0.0, 0.0, 0.0, 0.0, 0.0, 0.0, 0.0, 0.0, 0.0, 0.0, 0.0, 0.0, 0.0, 0.0, 0.0, 0.0, 0.0, 0.0, 0.0, 0.0, 0.0, 0.0, 0.0, 0.0, 0.0, 0.0, 0.0, 0.0, 0.0, 0.0, 0.0, 0.0, 0.0, 0.0, 0.0, 0.0, 0.0, 0.0, 0.0, 0.0, -10.0, -47.0, -108.0, -199.0, -304.0, -430.0, -557.0, -662.0, -737.0, -777.0, -777.0, -777.0]	[-490.0, -490.0, -490.0, -490.0, -490.0, -490.0, -490.0, -490.0, -490.0, -490.0, -490.0, -490.0, -490.0, -490.0, -490.0, -490.0, -490.0, -490.0, -490.0, -490.0, -490.0, -490.0, -490.0, -490.0, -490.0, -490.0, -490.0, -490.0, -490.0, -490.0, -490.0, -490.0, -490.0, -490.0, -490.0, -490.0, -490.0, -490.0, -490.0, -490.0, -483.0, -452.0, -376.0, -274.0, -149.0, -11.0, 165.0, 288.0, 381.0, 444.0, 480.0, 480.0, 480.0]	[0.007838369310775306, 0.015684247933677398, 0.03049673157511279, 0.04902940276224399, 0.06534682327037444, 0.08094300730590476, 0.09879062332038302, 0.11576476837217342, 0.13076464378536912, 0.1509787209724891, 0.16551574893674115, 0.18073680808447534, 0.1986434746941086, 0.21579238220874686, 0.23078645495843375, 0.2501048745471053, 0.2654723655214184, 0.2807292646248243, 0.29908410136704333, 0.31552269506209996, 0.33044508790044347, 0.3490490976764704, 0.36814838152349694, 0.3807295718288515, 0.40058763876731973, 0.4157424793302198, 0.43322555178019684, 0.44901970891078236, 0.4668113463194459, 0.4809032761550043, 0.5001377278385917, 0.5157803331530886, 0.5333101682117558, 0.5490988640158321, 0.5666833123395918, 0.5810660578281386, 0.6001018537499476, 0.6157229550881311, 0.6332217288509128, 0.6490042806617566, 0.6663921212239075, 0.6810520290455315, 0.6988931597297778, 0.7155775131323026, 0.7305275539329159, 0.7485919163518702, 0.765305283057387, 0.780770736579143, 0.7986470245523378, 0.8154129565227777, 0.8306930662729428, 0.8485420476135914, 0.866566474083811]
30	道士	True	animate	inanimate	left	0.968	[0.0, 0.0, 0.0, 0.0, 0.0, 0.0, 0.0, 0.0, 0.0, 0.0, 0.0, 0.0, 0.0, 0.0, 0.0, 0.0, 0.0, 0.0, 0.0, 0.0, 0.0, 0.0, 0.0, 0.0, 0.0, 0.0, 0.0, 0.0, 0.0, 0.0, 0.0, 0.0, 0.0, 0.0, 0.0, 0.0, 0.0, 0.0, 0.0, 0.0, 0.0, -1.0, -2.0, -7.0, -17.0, -35.0, -61.0, -82.0, -106.0, -172.0, -226.0, -262.0, -345.0, -483.0, -569.0, -636.0, -667.0, -675.0]	[-490.0, -490.0, -490.0, -490.0, -490.0, -490.0, -490.0, -490.0, -490.0, -490.0, -490.0, -490.0, -490.0, -490.0, -490.0, -490.0, -490.0, -490.0, -490.0, -490.0, -490.0, -490.0, -490.0, -490.0, -490.0, -490.0, -490.0, -490.0, -490.0, -490.0, -490.0, -489.0, -489.0, -489.0, -489.0, -489.0, -489.0, -489.0, -489.0, -488.0, -486.0, -483.0, -477.0, -463.0, -437.0, -403.0, -364.0, -336.0, -302.0, -202.0, -104.0, -42.0, 95.0, 270.0, 362.0, 418.0, 438.0, 440.0]	[0.012187462765723467, 0.017560043015691917, 0.022895076639542822, 0.04156086767761735, 0.05817149316135328, 0.07589725332218222, 0.09160744255495956, 0.10904204572580056, 0.1233613032818539, 0.14158165485423524, 0.1580769098145538, 0.17341368082270492, 0.19125583550339798, 0.21130743822141085, 0.22327457059145672, 0.24157923138409387, 0.2579048438856262, 0.276681226787332, 0.2917718967582914, 0.30812720521498704, 0.32346773089375347, 0.34164917050657095, 0.3582922226196388, 0.3732705940565211, 0.391475926975545, 0.40899347404774744, 0.42351855536253424, 0.44135763805388706, 0.4579242315958254, 0.4729538029714604, 0.4911499199006357, 0.5093880207787151, 0.5227450608217623, 0.5429376340325689, 0.5584931994453655, 0.5734958055254538, 0.5913106535736006, 0.6081762547619292, 0.6233969725726638, 0.641682177396433, 0.6580538698399323, 0.6734442301167292, 0.6914259899713215, 0.7078505890167435, 0.7229999682531343, 0.742016649528523, 0.7577493667340605, 0.7738643768170732, 0.79172291548457, 0.8108273193283821, 0.8228497476302437, 0.8411687444095151, 0.8583705585260759, 0.873416172551515, 0.8918508811984793, 0.9099172916103271, 0.9227995375549654, 0.9416011790963239]
31	警察	True	animate	inanimate	left	0.784	[0.0, 0.0, 0.0, 0.0, 0.0, 0.0, 0.0, 0.0, 0.0, 0.0, 0.0, 0.0, 0.0, 0.0, 0.0, 0.0, 0.0, 0.0, 0.0, 0.0, 0.0, 0.0, 0.0, 0.0, 0.0, 0.0, 0.0, 0.0, 0.0, 0.0, -1.0, -4.0, -4.0, -5.0, -8.0, -14.0, -29.0, -67.0, -135.0, -220.0, -315.0, -429.0, -539.0, -643.0, -768.0, -791.0, -809.0, -810.0]	[-490.0, -490.0, -490.0, -490.0, -490.0, -490.0, -490.0, -490.0, -490.0, -490.0, -490.0, -490.0, -490.0, -490.0, -490.0, -490.0, -490.0, -490.0, -490.0, -490.0, -490.0, -490.0, -490.0, -490.0, -490.0, -490.0, -490.0, -490.0, -490.0, -490.0, -489.0, -485.0, -485.0, -484.0, -479.0, -468.0, -443.0, -384.0, -299.0, -199.0, -89.0, 23.0, 114.0, 215.0, 345.0, 363.0, 386.0, 387.0]	[0.012622150250535924, 0.016570689535001293, 0.0234563986377907, 0.04107941758411471, 0.05738625676895026, 0.07272234511765419, 0.09107240319281118, 0.10761100743548013, 0.12261770950863138, 0.1408759490295779, 0.15838496277865488, 0.17283358551503625, 0.1943573571406887, 0.20846737761166878, 0.22308496015466517, 0.24092506683518877, 0.2578705399282626, 0.2726758555727429, 0.290884260488383, 0.30753516325785313, 0.323011198102904, 0.3408526701241499, 0.3578664098022273, 0.3726710427799844, 0.3907924077939242, 0.407571310417552, 0.4230616812419612, 0.4408963266032515, 0.4578499916824512, 0.4727167472592555, 0.49115077323222067, 0.5075961935872328, 0.5229971351873246, 0.5411983721132856, 0.5581714931686292, 0.5729969474559766, 0.5917634317011107, 0.607532671529043, 0.6230476183263818, 0.6407150105587789, 0.6576744782942114, 0.6725453298640787, 0.6910213397932239, 0.7073032616681303, 0.7228608750883723, 0.7406217925308738, 0.7577116494503571, 0.7725586077140179]
32	葡萄	False	inanimate	animate	left	1.477	[0.0, 0.0, 0.0, 0.0, 0.0, 0.0, 0.0, 0.0, 0.0, 0.0, 0.0, 0.0, 0.0, 0.0, 0.0, 0.0, 0.0, 0.0, 0.0, 0.0, 0.0, 0.0, 0.0, 0.0, 0.0, 0.0, 0.0, 0.0, 0.0, 0.0, 0.0, 0.0, 0.0, 0.0, 0.0, 0.0, 0.0, 0.0, 0.0, 0.0, 0.0, 0.0, 0.0, -1.0, -1.0, -1.0, -2.0, -4.0, -11.0, -48.0, -106.0, -153.0, -364.0, -514.0, -643.0, -753.0, -856.0, -941.0, -960.0, -960.0, -960.0, -960.0, -960.0, -960.0, -960.0, -960.0, -960.0, -951.0, -928.0, -889.0, -832.0, -731.0, -652.0, -615.0, -501.0, -468.0, -413.0, -404.0, -403.0, -403.0, -406.0, -447.0, -523.0, -676.0, -762.0, -808.0, -816.0, -816.0]	[-490.0, -490.0, -490.0, -490.0, -490.0, -490.0, -490.0, -490.0, -490.0, -490.0, -490.0, -490.0, -490.0, -490.0, -490.0, -490.0, -490.0, -490.0, -490.0, -490.0, -490.0, -490.0, -490.0, -490.0, -490.0, -490.0, -490.0, -490.0, -490.0, -490.0, -490.0, -490.0, -490.0, -490.0, -490.0, -490.0, -490.0, -490.0, -490.0, -490.0, -490.0, -490.0, -490.0, -484.0, -482.0, -479.0, -474.0, -459.0, -420.0, -288.0, -158.0, -81.0, 194.0, 310.0, 394.0, 456.0, 511.0, 540.0, 540.0, 540.0, 540.0, 540.0, 540.0, 540.0, 540.0, 540.0, 539.0, 524.0, 485.0, 419.0, 322.0, 181.0, 87.0, 40.0, -90.0, -127.0, -184.0, -192.0, -193.0, -193.0, -182.0, -98.0, 25.0, 273.0, 400.0, 458.0, 467.0, 467.0]	[0.002712060755584389, 0.016548332227102946, 0.020273639776860364, 0.039010428059555124, 0.05604430637322366, 0.07094929123559268, 0.08880202723958064, 0.10546009800600586, 0.12098118879657704, 0.13939848946029088, 0.15632041057688184, 0.17082023325929185, 0.1891306967154378, 0.20547815451573115, 0.22104600792226847, 0.23982648681703722, 0.25564726791344583, 0.2704658955481136, 0.28911052393959835, 0.3053890324954409, 0.32088520597608294, 0.33875364330015145, 0.3558155109130894, 0.3706378932110965, 0.38908932716731215, 0.40544804895762354, 0.4208134919317672, 0.43936527776531875, 0.4561168737564003, 0.47082047219009837, 0.48896777851041406, 0.5054643988041789, 0.5208465670948499, 0.5393785556225339, 0.5565656924227369, 0.5705354250603705, 0.5890954028873239, 0.6055804178613471, 0.6211598765876261, 0.6401475445672986, 0.6558109711913858, 0.6728598681511357, 0.6891148247377714, 0.7056015463749645, 0.7210451545906835, 0.7391518422882655, 0.7556351505991188, 0.7732100416033063, 0.7892045611588401, 0.8055520189664094, 0.8208171100632171, 0.8386906673767953, 0.8553258688334608, 0.8705670666240621, 0.8886502023524372, 0.9068681645949255, 0.9207467613450717, 0.9421155678137438, 0.9559678819350665, 0.9713613142084796, 0.9885976029545418, 1.0069858903152635, 1.0207897351574502, 1.0415690596710192, 1.0560180237371242, 1.0746404654928483, 1.0894160851748893, 1.1077231353046955, 1.120426522793423, 1.1393998547937372, 1.156014576277812, 1.1712185687792953, 1.188713246549014, 1.205806516794837, 1.2203674380652956, 1.2390578050690237, 1.2564309683148167, 1.271046161520644, 1.2894791634971625, 1.3081302772188792, 1.3207732487790054, 1.3395953702929546, 1.3564794034537044, 1.3711096153128892, 1.389404036119231, 1.4070656256881193, 1.420828169248125, 1.439182323323621]
33	灯泡	False	animate	inanimate	right	1.148	[0.0, 0.0, 0.0, 0.0, 0.0, 0.0, 0.0, 0.0, 0.0, 0.0, 0.0, 0.0, 0.0, 0.0, 0.0, 0.0, 0.0, 0.0, 0.0, 0.0, 0.0, 0.0, 0.0, 0.0, 0.0, 0.0, 0.0, 0.0, 0.0, 0.0, 0.0, 0.0, 0.0, 0.0, 0.0, 0.0, 0.0, 0.0, 0.0, 0.0, 0.0, 0.0, 0.0, 0.0, 0.0, 0.0, 0.0, 0.0, 0.0, -3.0, -9.0, -11.0, -26.0, -49.0, -87.0, -126.0, -160.0, -182.0, -192.0, -195.0, -189.0, -129.0, 47.0, 129.0, 390.0, 565.0, 718.0, 847.0]	[-490.0, -490.0, -490.0, -490.0, -490.0, -490.0, -490.0, -490.0, -490.0, -490.0, -490.0, -490.0, -490.0, -490.0, -490.0, -490.0, -490.0, -490.0, -490.0, -490.0, -490.0, -490.0, -490.0, -490.0, -490.0, -490.0, -490.0, -490.0, -490.0, -490.0, -490.0, -490.0, -490.0, -490.0, -490.0, -490.0, -490.0, -490.0, -490.0, -490.0, -489.0, -487.0, -487.0, -486.0, -486.0, -486.0, -485.0, -484.0, -481.0, -470.0, -454.0, -446.0, -405.0, -349.0, -282.0, -221.0, -157.0, -118.0, -87.0, -37.0, 22.0, 90.0, 180.0, 215.0, 320.0, 394.0, 460.0, 513.0]	[0.009676276436948683, 0.014690457115648314, 0.019718632443982642, 0.03605038893147139, 0.053060715275933035, 0.06779366834234679, 0.08577030820015352, 0.10268574399378849, 0.11750027562811738, 0.13575783248234075, 0.15280331611575093, 0.16775472225708654, 0.1900345463072881, 0.20250241407484282, 0.21791700899484567, 0.23572741972020594, 0.2527950899966527, 0.2677652694401331, 0.28762913904938614, 0.30242216670740163, 0.3178203776406008, 0.3368394482531585, 0.3545252724579768, 0.36748397698102053, 0.3861275813760585, 0.4030030812136829, 0.417890999429801, 0.43643049727688776, 0.4526277685945388, 0.46750305748719256, 0.48613403256604215, 0.5044571253383765, 0.5178711679836852, 0.5372319128509844, 0.5527874782710569, 0.5704494091696688, 0.586121710446605, 0.6035686016039108, 0.6178905898268567, 0.6360324348206632, 0.6526887989239185, 0.6675558958231704, 0.6857980927015888, 0.7042682999672252, 0.717623974676826, 0.73776364128571, 0.7529887964265072, 0.7680367997818394, 0.7862202873948263, 0.8056694374899962, 0.8173532635337324, 0.8357825108541874, 0.853449561742309, 0.8679521150843357, 0.8861270693741972, 0.9023751992936013, 0.9175696344755124, 0.937208224349888, 0.9529433308853186, 0.9679954302337137, 0.9861232805778855, 1.0054737854588893, 1.0178061440601596, 1.0397784271481214, 1.0530504752896377, 1.0677411030701478, 1.0863102968869498, 1.1050747331391904]
34	黄瓜	False	inanimate	animate	left	0.99	[0.0, 0.0, 0.0, 0.0, 0.0, 0.0, 0.0, 0.0, 0.0, 0.0, 0.0, 0.0, 0.0, 0.0, 0.0, 0.0, 0.0, 0.0, 0.0, 0.0, 0.0, 0.0, 0.0, 0.0, 0.0, 0.0, 0.0, 0.0, 0.0, 0.0, 0.0, 0.0, 0.0, 0.0, 0.0, 0.0, 0.0, 0.0, 0.0, 0.0, 0.0, 0.0, 0.0, 0.0, -3.0, -8.0, -13.0, -22.0, -34.0, -85.0, -160.0, -206.0, -380.0, -507.0, -644.0, -769.0, -864.0, -903.0, -905.0]	[-490.0, -490.0, -490.0, -490.0, -490.0, -490.0, -490.0, -490.0, -490.0, -490.0, -490.0, -490.0, -490.0, -490.0, -490.0, -490.0, -490.0, -490.0, -490.0, -490.0, -490.0, -490.0, -490.0, -490.0, -490.0, -490.0, -490.0, -490.0, -490.0, -490.0, -490.0, -490.0, -490.0, -490.0, -490.0, -490.0, -490.0, -490.0, -490.0, -490.0, -490.0, -490.0, -490.0, -490.0, -485.0, -477.0, -469.0, -457.0, -438.0, -362.0, -266.0, -213.0, -38.0, 87.0, 202.0, 299.0, 368.0, 397.0, 399.0]	[0.007514785684179515, 0.012147356152127031, 0.016653633436362725, 0.03218803620984545, 0.04958441009512171, 0.06386714502878021, 0.08191341680503683, 0.09897152975463541, 0.11372496280091582, 0.13231088192696916, 0.14949801872717217, 0.16386984156270046, 0.18196970260032685, 0.19892131968663307, 0.21374370197736425, 0.2323739943894907, 0.24945053931878647, 0.26385239944647765, 0.28196557247429155, 0.29894586151931435, 0.3139180889702402, 0.3320503766371985, 0.3485790822232957, 0.3639325785479741, 0.38290317988867173, 0.39865432906663045, 0.413634065844235, 0.43191824666428147, 0.44883880244742613, 0.46371306734363316, 0.48204230411647586, 0.4986088976584142, 0.5141760683909524, 0.5319540524869808, 0.548859589624044, 0.5638632197005791, 0.5821805098166806, 0.5985644902466447, 0.6141395116355852, 0.63242983645614, 0.6489397687255405, 0.6640652546557249, 0.682199248993129, 0.6984726375521859, 0.714081109574181, 0.7324014716868987, 0.7489608972391579, 0.7635600477951812, 0.782110809632286, 0.799188719895028, 0.8140189528494375, 0.8318286809007986, 0.8491939934901893, 0.8637443334446289, 0.882020663608273, 0.8983602707521641, 0.9141691051991074, 0.9316661722987192, 0.9518037909074337]
35	兔子	True	inanimate	animate	right	0.93	[0.0, 0.0, 0.0, 0.0, 0.0, 0.0, 0.0, 0.0, 0.0, 0.0, 0.0, 0.0, 0.0, 0.0, 0.0, 0.0, 0.0, 0.0, 0.0, 0.0, 0.0, 0.0, 0.0, 0.0, 0.0, 0.0, 0.0, 0.0, 0.0, 0.0, 0.0, 0.0, 0.0, 0.0, 0.0, 0.0, 0.0, 0.0, 0.0, 0.0, -3.0, -14.0, -31.0, -51.0, -65.0, -84.0, -103.0, -98.0, -75.0, 31.0, 111.0, 215.0, 348.0, 494.0, 610.0]	[-490.0, -490.0, -490.0, -490.0, -490.0, -490.0, -490.0, -490.0, -490.0, -490.0, -490.0, -490.0, -490.0, -490.0, -490.0, -490.0, -490.0, -490.0, -490.0, -490.0, -490.0, -490.0, -490.0, -490.0, -490.0, -490.0, -490.0, -490.0, -490.0, -490.0, -490.0, -490.0, -490.0, -490.0, -490.0, -490.0, -490.0, -490.0, -490.0, -485.0, -472.0, -454.0, -428.0, -400.0, -377.0, -340.0, -260.0, -145.0, -105.0, 25.0, 107.0, 190.0, 254.0, 306.0, 336.0]	[0.011791687247750815, 0.016261783239315264, 0.021934053795121145, 0.04073433000303339, 0.057047313181101345, 0.07248716673348099, 0.09039519866928458, 0.10740245302440599, 0.12215315539651783, 0.14273553081147838, 0.15702304440492298, 0.17250931924354518, 0.190324167291692, 0.20736760293220868, 0.22207154269563034, 0.24067589380138088, 0.2569752236668137, 0.2724939251274918, 0.2903251571551664, 0.3073757607853622, 0.3220810658822302, 0.34068439299153397, 0.3569796268566279, 0.37228431257244665, 0.3903203443624079, 0.4073378386965487, 0.42212950102839386, 0.4407232708108495, 0.45707175261486555, 0.47253549947345164, 0.49038140882476, 0.5073565778729971, 0.5223216373342439, 0.5830864074014244, 0.5925761453981977, 0.605745452332485, 0.6242501342276228, 0.6405020188103663, 0.6556455953832483, 0.6740226187685039, 0.6916483683744445, 0.7057495141925756, 0.7255321465636371, 0.7407317017350579, 0.7580877983345999, 0.7739833313462441, 0.7904287517012563, 0.8057829306926578, 0.824335057855933, 0.8405374491703697, 0.856440150171693, 0.8737853241182165, 0.8906970052485121, 0.9058624271274311, 0.9236137872576364]
36	黑狗	True	inanimate	animate	right	0.909	[0.0, 0.0, 0.0, 0.0, 0.0, 0.0, 0.0, 0.0, 0.0, 0.0, 0.0, 0.0, 0.0, 0.0, 0.0, 0.0, 0.0, 0.0, 0.0, 0.0, 0.0, 0.0, 0.0, 0.0, 0.0, 0.0, 0.0, 0.0, 0.0, 0.0, 0.0, 0.0, 0.0, 0.0, 0.0, 0.0, 0.0, -9.0, -11.0, -17.0, -20.0, -20.0, -20.0, -20.0, -13.0, 27.0, 100.0, 204.0, 325.0, 453.0, 668.0, 743.0, 873.0, 959.0, 959.0]	[-490.0, -490.0, -490.0, -490.0, -490.0, -490.0, -490.0, -490.0, -490.0, -490.0, -490.0, -490.0, -490.0, -490.0, -490.0, -490.0, -490.0, -490.0, -490.0, -490.0, -490.0, -490.0, -490.0, -490.0, -490.0, -490.0, -490.0, -490.0, -490.0, -490.0, -490.0, -490.0, -490.0, -490.0, -490.0, -489.0, -478.0, -459.0, -451.0, -438.0, -433.0, -429.0, -427.0, -413.0, -382.0, -312.0, -219.0, -98.0, 29.0, 131.0, 265.0, 307.0, 373.0, 424.0, 436.0]	[0.012950853859365452, 0.017308309987129178, 0.02448005609039683, 0.043160183100553695, 0.05982678719010437, 0.0749311104809749, 0.09423997275007423, 0.10992149000958307, 0.1272629092927673, 0.1432929274815251, 0.15968407589389244, 0.17481331648741616, 0.19348559284844669, 0.20979106669983594, 0.2249687765724957, 0.24289319248782704, 0.2621525614813436, 0.27444191212998703, 0.29556734822836006, 0.310053517590859, 0.3252568274256191, 0.3435679735484882, 0.36009053514135303, 0.37457226717378944, 0.3940217586059589, 0.41015349400549894, 0.4250864681598614, 0.44288595623220317, 0.46011780764820287, 0.4749180032958975, 0.4956543198568397, 0.5104859181374195, 0.525154359282169, 0.543545718639507, 0.5627221437316621, 0.574871206554235, 0.5957792135741329, 0.6100599005148979, 0.6271855973900529, 0.6434924365748884, 0.6620234010988497, 0.674883801737451, 0.693943832302466, 0.7094946190554765, 0.7250600831248448, 0.7439337459145463, 0.7624193131632637, 0.7745642799854977, 0.7930375592477503, 0.8105049303849228, 0.8251539155462524, 0.842832230431668, 0.8598684980752296, 0.87490660277399, 0.8944509847642621]
37	蜻蜓	True	animate	inanimate	left	0.894	[0.0, 0.0, 0.0, 0.0, 0.0, 0.0, 0.0, 0.0, 0.0, 0.0, 0.0, 0.0, 0.0, 0.0, 0.0, 0.0, 0.0, 0.0, 0.0, 0.0, 0.0, 0.0, 0.0, 0.0, 0.0, 0.0, 0.0, 0.0, 0.0, 0.0, 0.0, 0.0, 0.0, 0.0, 0.0, 0.0, 0.0, 0.0, 0.0, 0.0, 0.0, 0.0, -9.0, -64.0, -150.0, -292.0, -445.0, -593.0, -724.0, -819.0, -887.0, -915.0, -918.0]	[-490.0, -490.0, -490.0, -490.0, -490.0, -490.0, -490.0, -490.0, -490.0, -490.0, -490.0, -490.0, -490.0, -490.0, -490.0, -490.0, -490.0, -490.0, -490.0, -490.0, -490.0, -490.0, -490.0, -490.0, -490.0, -490.0, -490.0, -490.0, -490.0, -490.0, -490.0, -490.0, -490.0, -490.0, -490.0, -490.0, -490.0, -490.0, -490.0, -490.0, -490.0, -475.0, -457.0, -344.0, -197.0, -17.0, 145.0, 272.0, 375.0, 446.0, 492.0, 511.0, 513.0]	[0.014124868459475692, 0.018814441522408742, 0.03277939550753217, 0.04592924646567553, 0.0623937814598321, 0.08077148750453489, 0.0959024347612285, 0.11435147938755108, 0.12693778968969127, 0.1455701300947112, 0.16292144803446718, 0.17738543075392954, 0.19537947858771076, 0.21230549570464063, 0.22715211263130186, 0.24644971091038315, 0.2624367211465142, 0.2795436447049724, 0.296312990009028, 0.31448180029838113, 0.32701417999487603, 0.3456110217812238, 0.3625001749387593, 0.3800433219803381, 0.3958576177537907, 0.4128638481051894, 0.4272110949605121, 0.4453467959610862, 0.4624311915540602, 0.4775215201880201, 0.4955739359575091, 0.5120145776527352, 0.5272202768173884, 0.54537577512383, 0.5618621554312995, 0.5772429583885241, 0.5962275543788564, 0.6151664117496694, 0.6269850643002428, 0.6455081781678018, 0.6621915075738798, 0.6772729615549906, 0.695552363715251, 0.7121892718423624, 0.7268710249700234, 0.7454900533921318, 0.7619777990257717, 0.777628937663394, 0.7958045746127027, 0.8125333012940246, 0.8273287182892091, 0.8454913845926058, 0.8621419460323523]
38	苍蝇	True	animate	inanimate	left	0.93	[0.0, 0.0, 0.0, 0.0, 0.0, 0.0, 0.0, 0.0, 0.0, 0.0, 0.0, 0.0, 0.0, 0.0, 0.0, 0.0, 0.0, 0.0, 0.0, 0.0, 0.0, 0.0, 0.0, 0.0, 0.0, 0.0, 0.0, 0.0, 0.0, 0.0, 0.0, 0.0, 0.0, 0.0, 0.0, 0.0, 0.0, -2.0, -2.0, -7.0, -9.0, -12.0, -16.0, -22.0, -48.0, -62.0, -120.0, -178.0, -276.0, -398.0, -527.0, -654.0, -763.0, -862.0, -918.0, -937.0, -937.0]	[-490.0, -490.0, -490.0, -490.0, -490.0, -490.0, -490.0, -490.0, -490.0, -490.0, -490.0, -490.0, -490.0, -490.0, -490.0, -490.0, -490.0, -490.0, -490.0, -490.0, -490.0, -490.0, -490.0, -490.0, -490.0, -490.0, -490.0, -490.0, -490.0, -490.0, -490.0, -490.0, -490.0, -490.0, -490.0, -490.0, -490.0, -489.0, -480.0, -466.0, -456.0, -444.0, -434.0, -416.0, -356.0, -325.0, -207.0, -113.0, 20.0, 160.0, 269.0, 355.0, 437.0, 498.0, 528.0, 536.0, 536.0]	[0.01228866797464434, 0.016750913309806492, 0.02290446329425322, 0.0422174215564155, 0.05814947719045449, 0.07559090702125104, 0.09161887720256345, 0.10869200880551944, 0.12331778333464172, 0.14125585256988415, 0.15792109132598853, 0.17317423577333102, 0.19124405951879453, 0.20776593844493618, 0.22305185085133417, 0.24294507508602692, 0.2578760012474959, 0.2760058995918371, 0.2917038008381496, 0.308242063743819, 0.322770217055222, 0.3412257470045006, 0.3577012046589516, 0.375772735067585, 0.39173380399734015, 0.4081597683762084, 0.4228705347995856, 0.4413728273648303, 0.45874462527717697, 0.47323762129963143, 0.4912183571505011, 0.5082880754198413, 0.5233053588162875, 0.5414557371332194, 0.5584674288111273, 0.5737410532310605, 0.591591741234879, 0.6082112413787399, 0.6231998528091935, 0.6436037110979669, 0.6584219973956351, 0.6732593983397237, 0.6915975097654155, 0.7088177558543975, 0.7232400959619554, 0.7424550916693988, 0.7577324707526714, 0.7732511722133495, 0.7913479612616356, 0.8084695621364517, 0.8228649369411869, 0.8413542588532437, 0.8575525541673414, 0.8732391914309119, 0.892189995458466, 0.9077868621534435, 0.9245289008176769]
39	酒精	False	animate	inanimate	right	0.84	[0.0, 0.0, 0.0, 0.0, 0.0, 0.0, 0.0, 0.0, 0.0, 0.0, 0.0, 0.0, 0.0, 0.0, 0.0, 0.0, 0.0, 0.0, 0.0, 0.0, 0.0, 0.0, 0.0, 0.0, 0.0, 0.0, 0.0, 0.0, 0.0, 0.0, 0.0, 0.0, 0.0, 0.0, 0.0, 0.0, -5.0, -9.0, -15.0, -16.0, -18.0, -5.0, 17.0, 103.0, 188.0, 294.0, 412.0, 518.0, 625.0, 763.0, 828.0]	[-490.0, -490.0, -490.0, -490.0, -490.0, -490.0, -490.0, -490.0, -490.0, -490.0, -490.0, -490.0, -490.0, -490.0, -490.0, -490.0, -490.0, -490.0, -490.0, -490.0, -490.0, -490.0, -490.0, -490.0, -490.0, -490.0, -490.0, -490.0, -490.0, -490.0, -490.0, -490.0, -490.0, -490.0, -490.0, -490.0, -481.0, -471.0, -452.0, -444.0, -415.0, -379.0, -346.0, -216.0, -99.0, 65.0, 212.0, 314.0, 397.0, 477.0, 505.0]	[0.003937616631446872, 0.009226911643054336, 0.022773391458031256, 0.04147843577811727, 0.0603899865236599, 0.07257113463128917, 0.091222931019729, 0.10814451079932041, 0.12300000238610664, 0.14126233790739207, 0.15776476085738977, 0.1724598259679624, 0.19083480134577258, 0.20778983175841859, 0.2231818987056613, 0.24088342422328424, 0.2579353931869264, 0.27288782332470873, 0.2922833841512329, 0.30766998977196636, 0.32294668618851574, 0.3414936933622812, 0.3576786766934674, 0.3726113095181063, 0.3912173672943027, 0.4074753958702786, 0.4228896494532819, 0.4418868747598026, 0.4601836849033134, 0.47274098189518554, 0.4911958291850169, 0.5080290037440136, 0.5229643672282691, 0.542339106752479, 0.5578779468560242, 0.572626259898243, 0.5912056937086163, 0.6087546434064279, 0.6229803757451009, 0.641186391330848, 0.6579294539915281, 0.6725948231396615, 0.6907366681334679, 0.7088266305217985, 0.7230448535337928, 0.7409006615343969, 0.7574542844304233, 0.7729832258773968, 0.7919070646021282, 0.8082210717766429, 0.8225959666015115]
40	电视	False	inanimate	animate	left	1.075	[0.0, 0.0, 0.0, 0.0, 0.0, 0.0, 0.0, 0.0, 0.0, 0.0, 0.0, 0.0, 0.0, 0.0, 0.0, 0.0, 0.0, 0.0, 0.0, 0.0, 0.0, 0.0, 0.0, 0.0, 0.0, 0.0, 0.0, 1.0, 1.0, 1.0, 3.0, 4.0, 7.0, 7.0, 7.0, 7.0, 7.0, 16.0, 25.0, 25.0, 8.0, -38.0, -60.0, -165.0, -268.0, -379.0, -483.0, -574.0, -619.0, -634.0, -635.0, -635.0, -635.0, -635.0, -636.0, -635.0, -632.0, -630.0, -630.0, -632.0, -645.0, -660.0, -678.0, -696.0, -706.0]	[-490.0, -490.0, -490.0, -490.0, -490.0, -490.0, -490.0, -490.0, -490.0, -490.0, -490.0, -490.0, -490.0, -490.0, -490.0, -490.0, -490.0, -490.0, -490.0, -490.0, -490.0, -490.0, -490.0, -490.0, -490.0, -490.0, -490.0, -489.0, -487.0, -486.0, -483.0, -480.0, -474.0, -466.0, -454.0, -437.0, -413.0, -345.0, -264.0, -210.0, -15.0, 65.0, 97.0, 225.0, 319.0, 428.0, 532.0, 540.0, 540.0, 540.0, 540.0, 540.0, 540.0, 540.0, 540.0, 528.0, 518.0, 511.0, 507.0, 502.0, 497.0, 493.0, 492.0, 492.0, 491.0]	[0.010036724001110997, 0.015127704587939661, 0.01873320427694125, 0.03606677290372318, 0.05094001380348345, 0.0699566950861481, 0.08461114157398697, 0.10165355321805691, 0.11637797296134522, 0.134543028587359, 0.15146597370767267, 0.16664573157322593, 0.18538763984543039, 0.2011643890000414, 0.2159679979813518, 0.23515124973346246, 0.2508604149625171, 0.2674939097560127, 0.28485410234861774, 0.30128177339065587, 0.31643832061672583, 0.3374770581503981, 0.35087881280924194, 0.36749967828654917, 0.38486669753910974, 0.40129607524431776, 0.41634544393309625, 0.43474670194700593, 0.451478500624944, 0.46900765301688807, 0.4842461201478727, 0.5015083501857589, 0.5165150522589101, 0.5343278523141635, 0.5510337096930016, 0.5664209979731822, 0.5848454666265752, 0.6013967001927085, 0.6164406075477018, 0.6369038577686297, 0.6508920223932364, 0.6664390544829075, 0.684894584439462, 0.7020636305896915, 0.7159739713097224, 0.7344649998849491, 0.7519426110011409, 0.7664410683501046, 0.7842347537589376, 0.8013631812937092, 0.816126854326285, 0.8341970194014721, 0.8507700982736424, 0.8663666236388963, 0.8848917855066247, 0.9017515840314445, 0.9159827776966267, 0.9345567501732148, 0.9508936266574892, 0.9667092877643881, 0.9845258424757048, 1.0008866122661857, 1.0160960660941782, 1.0345000547749805, 1.0509348938066978]
41	犯人	True	animate	inanimate	left	0.789	[0.0, 0.0, 0.0, 0.0, 0.0, 0.0, 0.0, 0.0, 0.0, 0.0, 0.0, 0.0, 0.0, 0.0, 0.0, 0.0, 0.0, 0.0, 0.0, 0.0, 0.0, 0.0, 0.0, 0.0, 0.0, 0.0, 0.0, 0.0, 0.0, 0.0, 0.0, 0.0, 0.0, 0.0, -2.0, -6.0, -19.0, -62.0, -123.0, -164.0, -323.0, -437.0, -581.0, -722.0, -822.0, -880.0, -905.0]	[-490.0, -490.0, -490.0, -490.0, -490.0, -490.0, -490.0, -490.0, -490.0, -490.0, -490.0, -490.0, -490.0, -490.0, -490.0, -490.0, -490.0, -490.0, -490.0, -490.0, -490.0, -490.0, -490.0, -490.0, -490.0, -490.0, -490.0, -490.0, -490.0, -490.0, -490.0, -490.0, -490.0, -490.0, -490.0, -486.0, -464.0, -388.0, -289.0, -227.0, -38.0, 97.0, 268.0, 398.0, 467.0, 502.0, 516.0]	[0.004097019096661825, 0.00882960011222167, 0.02316831364441896, 0.04207576838962268, 0.059276899839460384, 0.0735401788042509, 0.0916581304918509, 0.10812573748262366, 0.12343486052850494, 0.14271402682788903, 0.15829587488406105, 0.17326059300103225, 0.19168608565814793, 0.20807825807423797, 0.22345598903484643, 0.24139644760725787, 0.2584026779513806, 0.27315440432721516, 0.29173452079703566, 0.30803555732563837, 0.3234767762114643, 0.3415414799674181, 0.3584531610904378, 0.3731553941979655, 0.3917385826644022, 0.40822974162438186, 0.4235207740275655, 0.4414738619088894, 0.4584869189202436, 0.47336425581306685, 0.4918092044463265, 0.508238240814535, 0.5236166544418666, 0.5443171310471371, 0.5584117915423121, 0.5733645630098181, 0.5916975544460001, 0.6096124130417593, 0.6236128656528308, 0.6431282343328348, 0.6583766001203912, 0.6760811976346304, 0.6916394937143195, 0.7091986834057025, 0.7235657275741687, 0.7425370115743135, 0.7585113924942561]
42	书包	False	animate	inanimate	right	0.928	[0.0, 0.0, 0.0, 0.0, 0.0, 0.0, 0.0, 0.0, 0.0, 0.0, 0.0, 0.0, 0.0, 0.0, 0.0, 0.0, 0.0, 0.0, 0.0, 0.0, 0.0, 0.0, 0.0, 0.0, 0.0, 0.0, 0.0, 0.0, 0.0, 0.0, 0.0, 0.0, 0.0, 0.0, 0.0, 0.0, 0.0, 0.0, 0.0, 0.0, 0.0, 1.0, 1.0, 1.0, -5.0, -21.0, -38.0, -44.0, -36.0, 56.0, 160.0, 218.0, 408.0, 530.0, 655.0, 774.0]	[-490.0, -490.0, -490.0, -490.0, -490.0, -490.0, -490.0, -490.0, -490.0, -490.0, -490.0, -490.0, -490.0, -490.0, -490.0, -490.0, -490.0, -490.0, -490.0, -490.0, -490.0, -490.0, -490.0, -490.0, -490.0, -490.0, -490.0, -490.0, -490.0, -490.0, -490.0, -490.0, -490.0, -490.0, -490.0, -490.0, -490.0, -490.0, -490.0, -490.0, -490.0, -490.0, -487.0, -464.0, -435.0, -398.0, -355.0, -314.0, -262.0, -107.0, 17.0, 70.0, 204.0, 289.0, 360.0, 412.0]	[0.001735677920805756, 0.007288140615855809, 0.025077730031625833, 0.03682913999364246, 0.056795750810124446, 0.06788087889435701, 0.08653096861962695, 0.10286852776334854, 0.11833671195199713, 0.1361703333168407, 0.15320113963389304, 0.16795184201328084, 0.18657428376172902, 0.20287156562699238, 0.21810661942436127, 0.23623446976853302, 0.25323046013363637, 0.26813339699583594, 0.28662647357123205, 0.3053694058471592, 0.31834483567945426, 0.33826877987303305, 0.3534283990957192, 0.37077015970862703, 0.38664487141068093, 0.4047402951255208, 0.41858100392710185, 0.4376335251654382, 0.4532208345408435, 0.4695764843345387, 0.48648884813155746, 0.5042221176117891, 0.5183720740460558, 0.5371535769372713, 0.5531419525068486, 0.5687234592260211, 0.5862031183423824, 0.6030891995033016, 0.6183495119403233, 0.6364500556446728, 0.6532115502850502, 0.6680574845522642, 0.6861955748827313, 0.7033963650028454, 0.7180811901271227, 0.7366507252736483, 0.7538255740873865, 0.7684581752764643, 0.7868164253450232, 0.8054859710391611, 0.8178951295485604, 0.8364455500486656, 0.8537600040363031, 0.8686482635821449, 0.8862432932291995, 0.9030269745126134]
43	轮船	False	animate	inanimate	right	1.008	[0.0, 0.0, 0.0, 0.0, 0.0, 0.0, 0.0, 0.0, 0.0, 0.0, 0.0, 0.0, 0.0, 0.0, 0.0, 0.0, 0.0, 0.0, 0.0, 0.0, 0.0, 0.0, 0.0, 0.0, 0.0, 0.0, 0.0, 0.0, 0.0, 0.0, 0.0, 0.0, 0.0, -1.0, -11.0, -18.0, -21.0, -32.0, -42.0, -53.0, -63.0, -67.0, -74.0, -84.0, -122.0, -142.0, -201.0, -278.0, -376.0, -395.0, -401.0, -403.0, -403.0, -387.0, -325.0, -195.0, -7.0, 218.0, 560.0, 743.0, 823.0]	[-490.0, -490.0, -490.0, -490.0, -490.0, -490.0, -490.0, -490.0, -490.0, -490.0, -490.0, -490.0, -490.0, -490.0, -490.0, -490.0, -490.0, -490.0, -490.0, -490.0, -490.0, -490.0, -490.0, -490.0, -490.0, -490.0, -490.0, -490.0, -490.0, -486.0, -483.0, -479.0, -469.0, -466.0, -443.0, -427.0, -418.0, -392.0, -370.0, -352.0, -337.0, -329.0, -318.0, -301.0, -226.0, -191.0, -87.0, 22.0, 132.0, 150.0, 157.0, 164.0, 176.0, 202.0, 252.0, 314.0, 368.0, 407.0, 462.0, 486.0, 497.0]	[0.0052882710078847595, 0.010170697169087362, 0.02575493455515243, 0.0446634132968029, 0.06203179788280977, 0.07543048053776147, 0.09390614913718309, 0.11132266166532645, 0.1256651298608631, 0.14380697485466953, 0.16072002131841145, 0.17568951809516875, 0.1954001292178873, 0.21080380148487166, 0.22612555384694133, 0.24424999085749732, 0.2607527551444946, 0.27574409723456483, 0.2945689494081307, 0.3108075220079627, 0.3259166239586193, 0.3442352794081671, 0.3605817132120137, 0.3753726928771357, 0.39400298528926214, 0.41034498176304623, 0.4258353525874554, 0.4442762052276521, 0.4615066913102055, 0.4754105467000045, 0.4939456072243047, 0.5125301610169117, 0.5257336012437008, 0.5442713924348936, 0.5604881197286886, 0.5756009763354086, 0.5937725172989303, 0.6121512473400799, 0.6259131082333624, 0.6442904729410657, 0.6609287464016234, 0.6756408781584469, 0.6939308616420021, 0.7106981589386123, 0.7258052128963755, 0.7435606690123677, 0.7602941743607516, 0.7764081604400417, 0.7937649397063069, 0.8105786582818837, 0.8258300960660563, 0.8435981815055129, 0.8604357933872961, 0.8753933435218642, 0.8934846712363651, 0.9115415243359166, 0.9258587338990765, 0.9443849197632517, 0.9602896687647444, 0.9760319432898541, 0.9937761354231043]
44	女王	True	animate	inanimate	left	0.774	[0.0, 0.0, 0.0, 0.0, 0.0, 0.0, 0.0, 0.0, 0.0, 0.0, 0.0, 0.0, 0.0, 0.0, 0.0, 0.0, 0.0, 0.0, 0.0, 0.0, 0.0, 0.0, 0.0, 0.0, 0.0, 0.0, 0.0, 0.0, 0.0, 0.0, 0.0, 0.0, 0.0, 0.0, -10.0, -31.0, -65.0, -150.0, -224.0, -333.0, -453.0, -580.0, -698.0, -805.0, -920.0, -940.0, -946.0]	[-490.0, -490.0, -490.0, -490.0, -490.0, -490.0, -490.0, -490.0, -490.0, -490.0, -490.0, -490.0, -490.0, -490.0, -490.0, -490.0, -490.0, -490.0, -490.0, -490.0, -490.0, -490.0, -490.0, -490.0, -490.0, -491.0, -491.0, -491.0, -491.0, -491.0, -491.0, -491.0, -491.0, -485.0, -473.0, -449.0, -409.0, -320.0, -234.0, -120.0, 17.0, 162.0, 287.0, 400.0, 501.0, 517.0, 523.0]	[0.007654049513803329, 0.014679705120215658, 0.03069743532250868, 0.049138287955429405, 0.0652990366506856, 0.08016476822376717, 0.0985561275811051, 0.11519371837493964, 0.13069774251925992, 0.14964376788702793, 0.1650184268510202, 0.1801930647197878, 0.1987868345095194, 0.21516228160908213, 0.23068849239643896, 0.2497877762434655, 0.26533173634379636, 0.2830069792253198, 0.2988970509104547, 0.31507930357474834, 0.3305730877327733, 0.3488391779101221, 0.3656348058502772, 0.38013155652879504, 0.3985270118864719, 0.4160974655605969, 0.430441981756303, 0.44861010938620893, 0.4654323612921871, 0.48028955954214325, 0.4986310842941748, 0.5157356185300159, 0.5304351209633751, 0.5484377021275577, 0.5653794205500162, 0.5804229865825619, 0.5988645218822057, 0.61506076920341, 0.630696889187675, 0.6483485800999915, 0.6653343304715236, 0.6804543550751987, 0.6987108879329753, 0.7179316863039276, 0.7306238098099129, 0.748969771892007, 0.7656186266685836]
45	病人	True	animate	inanimate	left	0.775	[0.0, 0.0, 0.0, 0.0, 0.0, 0.0, 0.0, 0.0, 0.0, 0.0, 0.0, 0.0, 0.0, 0.0, 0.0, 0.0, 0.0, 0.0, 0.0, 0.0, 0.0, 0.0, 0.0, 0.0, 0.0, 0.0, 0.0, 0.0, 0.0, 0.0, 0.0, 0.0, -1.0, -4.0, -5.0, -8.0, -14.0, -26.0, -73.0, -103.0, -229.0, -362.0, -435.0, -660.0, -781.0, -864.0, -884.0]	[-490.0, -490.0, -490.0, -490.0, -490.0, -490.0, -490.0, -490.0, -490.0, -490.0, -490.0, -490.0, -490.0, -490.0, -490.0, -490.0, -490.0, -490.0, -490.0, -490.0, -490.0, -490.0, -490.0, -490.0, -490.0, -490.0, -490.0, -490.0, -490.0, -490.0, -490.0, -490.0, -485.0, -480.0, -474.0, -464.0, -444.0, -416.0, -314.0, -266.0, -90.0, 94.0, 182.0, 414.0, 515.0, 540.0, 540.0]	[0.014758894365513697, 0.020619580696802586, 0.027964041255472694, 0.0469349839258939, 0.0637572358318721, 0.0787018153059762, 0.09648901539185317, 0.11345121379417833, 0.1285507584179868, 0.14687419253459666, 0.1631967330322368, 0.17877277842490003, 0.19780857434670907, 0.2133521931100404, 0.23082878023706144, 0.24702229688409716, 0.26382133815059206, 0.27852732591418317, 0.2964848511328455, 0.3133777589464444, 0.32863909537991276, 0.34664850320405094, 0.3640684290585341, 0.3786802089307457, 0.39716236285312334, 0.4133603168374975, 0.4283390296113794, 0.4466006824586657, 0.4637680219457252, 0.4786211242026184, 0.49645781756407814, 0.5134374239423778, 0.528113374413806, 0.5465723176894244, 0.5637830064661102, 0.5785958314372692, 0.5964745087403571, 0.613424760493217, 0.6285707263959921, 0.6468979151686653, 0.6631187384555233, 0.6786319785896922, 0.6977258011102094, 0.7139964590096497, 0.7281969327086699, 0.7466603133216267, 0.7637184262712253]
46	鳄鱼	True	inanimate	animate	right	1.037	[0.0, 0.0, 0.0, 0.0, 0.0, 0.0, 0.0, 0.0, 0.0, 0.0, 0.0, 0.0, 0.0, 0.0, 0.0, 0.0, 0.0, 0.0, 0.0, 0.0, 0.0, 0.0, 0.0, -1.0, -2.0, -5.0, -8.0, -9.0, -12.0, -14.0, -20.0, -28.0, -40.0, -55.0, -74.0, -96.0, -114.0, -142.0, -154.0, -162.0, -168.0, -178.0, -197.0, -244.0, -304.0, -368.0, -444.0, -523.0, -617.0, -735.0, -760.0, -762.0, -757.0, -718.0, -620.0, -461.0, -245.0, 6.0, 273.0, 653.0, 763.0, 959.0]	[-490.0, -490.0, -490.0, -490.0, -490.0, -490.0, -490.0, -490.0, -490.0, -490.0, -490.0, -490.0, -490.0, -490.0, -490.0, -490.0, -490.0, -490.0, -490.0, -490.0, -490.0, -490.0, -490.0, -486.0, -484.0, -476.0, -473.0, -470.0, -466.0, -461.0, -453.0, -442.0, -429.0, -414.0, -397.0, -377.0, -357.0, -325.0, -310.0, -298.0, -283.0, -258.0, -207.0, -100.0, 7.0, 122.0, 233.0, 339.0, 444.0, 540.0, 540.0, 540.0, 540.0, 540.0, 540.0, 539.0, 534.0, 532.0, 530.0, 530.0, 530.0, 530.0]	[0.015763778494147118, 0.020422972927917726, 0.03026530783972703, 0.04886351495224517, 0.06509082356205909, 0.08075151952652959, 0.09851789829554036, 0.1155452912862529, 0.13029667633236386, 0.1487156836592476, 0.16517373333044816, 0.1807197414309485, 0.19843526159820613, 0.21543398262292612, 0.23030824751913315, 0.2486279269651277, 0.26514195523486705, 0.28077670989296166, 0.2984891580636031, 0.3154878790883231, 0.33049765315809054, 0.3487224420532584, 0.3678876031553955, 0.38058006799110444, 0.3989956619916484, 0.4155557702106307, 0.4304631444028928, 0.4486971492806333, 0.46503948709141696, 0.48066775642655557, 0.4990748170966981, 0.515234200458508, 0.5312379360111663, 0.548677659171517, 0.5650551542785252, 0.5806810342764948, 0.5990713696373859, 0.6151993503663107, 0.6315102855514851, 0.6487018596817506, 0.6650349814954097, 0.6806915814595413, 0.6990655328409048, 0.7151590389476041, 0.731489088771923, 0.748628438966989, 0.7649410808080574, 0.7805696914729197, 0.7982340117014246, 0.8153324019440333, 0.8304384318980738, 0.8486738021092606, 0.8654305180898518, 0.8808259983707103, 0.8992255497214501, 0.9151050400832901, 0.9327266936961678, 0.94877582652407, 0.9657844462053617, 0.9804218260469497, 0.998488577803073, 1.0153961629330297]
47	绵羊	True	animate	inanimate	left	1.287	[0.0, 0.0, 0.0, 0.0, 0.0, 0.0, 0.0, 0.0, 0.0, 0.0, 0.0, 0.0, 0.0, 0.0, 0.0, 0.0, 0.0, 0.0, 0.0, 0.0, 0.0, 0.0, 0.0, 0.0, 0.0, 0.0, 0.0, 0.0, 0.0, 0.0, 0.0, 0.0, 0.0, 0.0, 0.0, 0.0, 0.0, 0.0, 0.0, -1.0, -15.0, -34.0, -57.0, -180.0, -304.0, -375.0, -608.0, -758.0, -900.0, -960.0, -960.0, -960.0, -960.0, -960.0, -960.0, -960.0, -960.0, -960.0, -952.0, -925.0, -888.0, -827.0, -740.0, -635.0, -468.0, -380.0, -345.0, -291.0, -287.0, -287.0, -288.0, -324.0, -398.0, -508.0, -615.0, -709.0, -741.0]	[-490.0, -490.0, -490.0, -490.0, -490.0, -490.0, -490.0, -490.0, -490.0, -490.0, -490.0, -490.0, -490.0, -490.0, -490.0, -490.0, -490.0, -490.0, -490.0, -490.0, -490.0, -490.0, -490.0, -490.0, -490.0, -490.0, -490.0, -490.0, -490.0, -490.0, -490.0, -490.0, -490.0, -490.0, -478.0, -466.0, -454.0, -439.0, -427.0, -411.0, -372.0, -328.0, -286.0, -95.0, 63.0, 150.0, 390.0, 508.0, 540.0, 540.0, 540.0, 540.0, 540.0, 540.0, 540.0, 540.0, 540.0, 537.0, 513.0, 472.0, 418.0, 348.0, 263.0, 168.0, 37.0, -29.0, -57.0, -94.0, -96.0, -96.0, -79.0, 5.0, 126.0, 257.0, 371.0, 446.0, 467.0]	[0.008239094153395854, 0.01232587327103829, 0.017464299133280292, 0.03378786362736719, 0.050682136781688314, 0.06535057792643784, 0.08336374040663941, 0.10028190685989102, 0.11502236924570752, 0.13335843267850578, 0.15002059943799395, 0.16534371713350993, 0.18464541140565416, 0.20054162708402146, 0.215037012429093, 0.2333635185350431, 0.2506496418864117, 0.2653371976703056, 0.28333090417436324, 0.3002849105905625, 0.31548992708849255, 0.3335187908814987, 0.35126298302202486, 0.3656409498435096, 0.38401455989514943, 0.4001531219473691, 0.41639920387387974, 0.43370068720105337, 0.4506970188958803, 0.46532825475151185, 0.48336872386425966, 0.5004551674501272, 0.5152949577241088, 0.53384537823149, 0.5500505001982674, 0.5656152816081885, 0.5838919531088322, 0.600436360007734, 0.6151365451150923, 0.6335244911460904, 0.6510290675651049, 0.6654561863324489, 0.684656846060534, 0.7003782992760534, 0.7150767777202418, 0.7332708466492477, 0.750599295279244, 0.7655469467572402, 0.783440301376686, 0.8002820092588081, 0.8155037510732654, 0.8334684442816069, 0.8498237527383026, 0.8655619312703493, 0.8830965449888026, 0.9001969832243049, 0.9153217864877661, 0.933428474192624, 0.9508036854385864, 0.9656721476712846, 0.9831832094205311, 1.0001634984655539, 1.0155163121235091, 1.033394989433873, 1.0510330270262784, 1.0655246577152866, 1.0832452978793299, 1.1002122749414411, 1.1149698039807845, 1.133483701858495, 1.1509374196757562, 1.1653996957320487, 1.1833159196612542, 1.2002685607440071, 1.2154851825616788, 1.2335420356539544, 1.2509466015326325]
