trialIndex	left_option	right_option	response	response_time	xTrajectory	yTrajectory	tTrajectory
0	images/0496.jpg	images/0013.jpg	left	2.054	[0.0, 0.0, 0.0, 0.0, 0.0, 0.0, 0.0, 0.0, 0.0, 0.0, 0.0, 0.0, 0.0, 0.0, 0.0, 0.0, 0.0, 0.0, 0.0, 0.0, 0.0, 0.0, -3.0, -6.0, -12.0, -15.0, -22.0, -31.0, -39.0, -50.0, -61.0, -71.0, -78.0, -84.0, -93.0, -93.0, -95.0, -95.0, -95.0, -95.0, -92.0, -89.0, -85.0, -80.0, -78.0, -74.0, -74.0, -71.0, -67.0, -58.0, -52.0, -44.0, -33.0, -20.0, -6.0, 10.0, 27.0, 47.0, 70.0, 97.0, 122.0, 159.0, 189.0, 214.0, 247.0, 277.0, 313.0, 345.0, 367.0, 386.0, 397.0, 400.0, 402.0, 396.0, 374.0, 334.0, 286.0, 244.0, 187.0, 124.0, 48.0, -43.0, -141.0, -249.0, -397.0, -487.0, -581.0, -679.0, -774.0, -859.0, -940.0, -960.0, -960.0, -960.0, -960.0, -960.0, -960.0, -960.0, -959.0, -949.0, -934.0, -919.0, -905.0, -894.0, -882.0, -854.0, -844.0, -827.0, -810.0, -799.0, -789.0, -783.0, -781.0, -779.0, -779.0, -779.0, -779.0, -779.0, -779.0, -779.0, -779.0, -779.0]	[-490.0, -490.0, -490.0, -490.0, -490.0, -490.0, -490.0, -490.0, -490.0, -490.0, -490.0, -490.0, -490.0, -490.0, -490.0, -490.0, -490.0, -490.0, -490.0, -490.0, -490.0, -490.0, -483.0, -473.0, -453.0, -445.0, -417.0, -397.0, -376.0, -351.0, -328.0, -306.0, -284.0, -264.0, -236.0, -228.0, -205.0, -196.0, -187.0, -179.0, -171.0, -166.0, -163.0, -160.0, -159.0, -158.0, -157.0, -156.0, -155.0, -153.0, -152.0, -151.0, -147.0, -143.0, -139.0, -135.0, -128.0, -121.0, -115.0, -107.0, -100.0, -89.0, -80.0, -68.0, -53.0, -38.0, -19.0, -2.0, 11.0, 25.0, 35.0, 43.0, 55.0, 68.0, 84.0, 104.0, 123.0, 137.0, 145.0, 154.0, 164.0, 174.0, 191.0, 205.0, 226.0, 239.0, 252.0, 268.0, 281.0, 298.0, 318.0, 337.0, 350.0, 357.0, 359.0, 359.0, 359.0, 359.0, 363.0, 364.0, 368.0, 369.0, 372.0, 372.0, 374.0, 377.0, 380.0, 380.0, 381.0, 382.0, 382.0, 382.0, 382.0, 382.0, 382.0, 382.0, 382.0, 382.0, 382.0, 382.0, 382.0, 382.0]	[0.01527124029234983, 0.02032092132139951, 0.03168697028013412, 0.04669538415328134, 0.06431124111986719, 0.07996170243131928, 0.09711983178567607, 0.11329662865318824, 0.13047148332407232, 0.14667183216079138, 0.16377944423584267, 0.18004498769005295, 0.19703006120107602, 0.21610033824981656, 0.2305018619663315, 0.248626646498451, 0.26376852157409303, 0.2815915677056182, 0.2971665944060078, 0.31471008877269924, 0.33053940860554576, 0.34779857253306545, 0.36361355637200177, 0.3811236001056386, 0.3969693039107369, 0.41353965777670965, 0.4304834299837239, 0.4467875440750504, 0.4635538230941165, 0.48184039948682766, 0.4970194798661396, 0.5153108349331887, 0.5301352702808799, 0.5487386037420947, 0.5635333431127947, 0.5839283337118104, 0.5969235652883071, 0.6144947076245444, 0.6302786301530432, 0.6474425621709088, 0.663643593681627, 0.6810362188407453, 0.6967511920956895, 0.7141892145446036, 0.7300441343541024, 0.7473500609194161, 0.7635558710899204, 0.7808000163786346, 0.796891138641513, 0.8141489372501383, 0.8302789714944083, 0.8472954476310406, 0.8634452791884542, 0.8808194723678753, 0.8969204932946013, 0.9138905481377151, 0.9302953554724809, 0.9469438746018568, 0.9635565537610091, 0.9804818939883262, 0.9968989893095568, 1.0137437749363016, 1.0299970303894952, 1.0472749676555395, 1.0635207137820544, 1.0804494673502631, 1.0969556505879154, 1.113723977614427, 1.1300513023452368, 1.147136386440252, 1.1635469964385265, 1.1806361765193287, 1.1968744133337168, 1.2138434441731079, 1.2303107154584723, 1.2472401516861282, 1.2635401697771158, 1.2807064911175985, 1.29675631209102, 1.3137400202685967, 1.3302660008339444, 1.347175639733905, 1.3635493857582333, 1.3805897552228998, 1.3969105946307536, 1.4138021428807406, 1.430191931562149, 1.4473108076199424, 1.4634579085104633, 1.4806713338184636, 1.4971317784365965, 1.5137768842396326, 1.530085094316746, 1.5470418371842243, 1.5633916898950702, 1.5805904378939886, 1.596759042760823, 1.6137492362613557, 1.6300734889955493, 1.6470391065231524, 1.6632500366831664, 1.6804791633185232, 1.6966197788715363, 1.7137393376033287, 1.7367226566566387, 1.746965037251357, 1.7632787086622557, 1.7805382139340509, 1.7965992988902144, 1.8136915509821847, 1.8299516331026098, 1.84716505841061, 1.863345268604462, 1.880526608612854, 1.8967563120968407, 1.9138035082141869, 1.9302636115025962, 1.9471063491218956, 1.9633964685635874, 1.9805129552842118, 1.9967081841314211, 2.0137908788892673]
1	images/0388.jpg	images/0346.jpg	right	1.413	[0.0, 0.0, 0.0, 0.0, 0.0, 0.0, 0.0, 0.0, 0.0, 0.0, 0.0, 0.0, 0.0, 0.0, 0.0, 0.0, 0.0, 0.0, 0.0, 0.0, 0.0, 0.0, 0.0, 0.0, 0.0, 0.0, 0.0, 0.0, 0.0, 0.0, 0.0, 0.0, 0.0, 0.0, 0.0, 0.0, 0.0, 0.0, 1.0, 8.0, 9.0, 9.0, 9.0, 10.0, 28.0, 37.0, 68.0, 91.0, 127.0, 161.0, 204.0, 252.0, 309.0, 358.0, 401.0, 449.0, 522.0, 558.0, 590.0, 614.0, 636.0, 652.0, 663.0, 668.0, 671.0, 671.0, 664.0, 658.0, 649.0, 649.0, 650.0, 652.0, 652.0, 652.0, 653.0, 656.0, 662.0, 668.0, 676.0, 682.0, 688.0, 693.0, 703.0, 709.0, 712.0]	[-490.0, -490.0, -490.0, -490.0, -490.0, -490.0, -490.0, -490.0, -490.0, -490.0, -490.0, -490.0, -490.0, -490.0, -490.0, -490.0, -490.0, -490.0, -490.0, -490.0, -490.0, -490.0, -490.0, -490.0, -490.0, -490.0, -490.0, -490.0, -490.0, -490.0, -490.0, -490.0, -490.0, -490.0, -490.0, -490.0, -490.0, -490.0, -489.0, -478.0, -464.0, -442.0, -416.0, -407.0, -382.0, -373.0, -347.0, -333.0, -313.0, -294.0, -276.0, -256.0, -230.0, -208.0, -191.0, -170.0, -134.0, -114.0, -90.0, -69.0, -46.0, -26.0, -6.0, 12.0, 29.0, 48.0, 79.0, 87.0, 112.0, 118.0, 138.0, 153.0, 168.0, 183.0, 199.0, 217.0, 234.0, 249.0, 262.0, 278.0, 291.0, 304.0, 325.0, 340.0, 346.0]	[0.01468363546882756, 0.02013267614529468, 0.029411132229142822, 0.04575108629069291, 0.0629904529050691, 0.08350627540494315, 0.09616426994034555, 0.11249296000460163, 0.129510118815233, 0.14582310756668448, 0.16261635189584922, 0.1795945987396408, 0.19593284613802098, 0.21306127951538656, 0.22930224699666724, 0.2462115445669042, 0.2626214718911797, 0.27953008680196945, 0.2957959715859033, 0.3127417917858111, 0.329288593668025, 0.34624636053922586, 0.36268871450738516, 0.3795331587898545, 0.3960065740684513, 0.41287115700833965, 0.42930429498665035, 0.4461978912440827, 0.4626559465250466, 0.47952496679499745, 0.49584614754712675, 0.512697077167104, 0.5291305564751383, 0.5460019660677062, 0.5626689171913313, 0.5795713880943367, 0.5959376247919863, 0.6129404476232594, 0.629348668284365, 0.6462521631910931, 0.6626777918427251, 0.6795328174630413, 0.695999064744683, 0.7129069969814736, 0.7292865456693107, 0.7461695606034482, 0.7627207998011727, 0.7795594414346851, 0.7957990435825195, 0.8128585276863305, 0.8291820977610769, 0.8462019872386009, 0.8626593598601175, 0.8799413931119489, 0.8960338807082735, 0.916189255513018, 0.9291059804963879, 0.9490101341798436, 0.9625013226614101, 0.9825112895923667, 0.9959328461263794, 1.0145808942179428, 1.0294131802365882, 1.0482110735174501, 1.0626395625440637, 1.0814081011922099, 1.0957679822749924, 1.1135814710723935, 1.1292756230104715, 1.149678122936166, 1.1626986131595913, 1.1801973928959342, 1.1959072461613687, 1.2129674129246268, 1.2292906416696496, 1.2460733046755195, 1.2625426239537774, 1.279465916188201, 1.2959031501522986, 1.312878324999474, 1.3291943857475417, 1.3461552246153587, 1.3625511572899995, 1.3795126788172638, 1.3959208994783694]
2	images/0533.jpg	images/0359.jpg	right	1.368	[0.0, 0.0, 0.0, 0.0, 0.0, 0.0, 0.0, 0.0, 0.0, 0.0, 0.0, 0.0, 0.0, 0.0, 0.0, 0.0, 0.0, 0.0, 0.0, 0.0, 0.0, 0.0, 0.0, 0.0, 0.0, 0.0, 0.0, 0.0, 0.0, 0.0, 0.0, 0.0, 0.0, 0.0, 0.0, 0.0, 0.0, 0.0, 0.0, 0.0, 0.0, 0.0, 0.0, 0.0, 3.0, 17.0, 37.0, 65.0, 91.0, 141.0, 175.0, 207.0, 240.0, 288.0, 339.0, 387.0, 428.0, 471.0, 517.0, 563.0, 607.0, 647.0, 670.0, 687.0, 696.0, 705.0, 709.0, 711.0, 711.0, 711.0, 708.0, 703.0, 695.0, 685.0, 681.0, 680.0, 680.0, 680.0, 680.0, 678.0, 678.0, 678.0]	[-490.0, -490.0, -490.0, -490.0, -490.0, -490.0, -490.0, -490.0, -490.0, -490.0, -490.0, -490.0, -490.0, -490.0, -490.0, -490.0, -490.0, -490.0, -490.0, -490.0, -490.0, -490.0, -490.0, -490.0, -490.0, -490.0, -490.0, -490.0, -490.0, -490.0, -490.0, -490.0, -490.0, -490.0, -490.0, -490.0, -490.0, -490.0, -490.0, -490.0, -490.0, -490.0, -490.0, -490.0, -487.0, -473.0, -453.0, -427.0, -407.0, -369.0, -344.0, -315.0, -285.0, -246.0, -201.0, -162.0, -124.0, -87.0, -48.0, -9.0, 23.0, 62.0, 89.0, 111.0, 128.0, 147.0, 169.0, 185.0, 201.0, 212.0, 227.0, 240.0, 256.0, 270.0, 276.0, 278.0, 281.0, 284.0, 288.0, 290.0, 290.0, 290.0]	[0.0013919561606599018, 0.006040912194293924, 0.01909587705449667, 0.03446781060483772, 0.05197580633102916, 0.06926193558319937, 0.08539333514636382, 0.102400936637423, 0.11877638932492118, 0.13566179359622765, 0.15209527290426195, 0.16925306092889514, 0.1855223590391688, 0.20240196063241456, 0.21903819177532569, 0.2357232335343724, 0.2520505582651822, 0.2691793329868233, 0.28824551404977683, 0.3024364352750126, 0.32135447779728565, 0.3358027641370427, 0.3540227805933682, 0.36923565293545835, 0.3869962351163849, 0.4024296086136019, 0.42030180669098627, 0.43576624149864074, 0.4534995170397451, 0.4693380528478883, 0.4862135584553471, 0.5023719233286101, 0.5190743730781833, 0.5354068178130547, 0.5523000727262115, 0.5688769119151402, 0.5855384016904281, 0.602047315609525, 0.6202755240519764, 0.635345036527724, 0.6535749516333453, 0.669033583777491, 0.6891596039349679, 0.7019507183576934, 0.7190733490715502, 0.7356006949703442, 0.7530192614503903, 0.7689666825026507, 0.7863664756587241, 0.8022934167238418, 0.8194433540920727, 0.83557236433262, 0.8523423980223015, 0.8689076318842126, 0.885816588124726, 0.9019316037010867, 0.9194686127448222, 0.9355549563479144, 0.952301438053837, 0.9689311838592403, 0.9858019108069129, 1.002075646247249, 1.019240943598561, 1.0353231912158662, 1.0524908778897952, 1.068702832053532, 1.0858875854028156, 1.1019514010258717, 1.1191272797004785, 1.135543692362262, 1.152280958078336, 1.1688909065705957, 1.185766070833779, 1.202207059468492, 1.2191269383620238, 1.2353453778632684, 1.2523826753167668, 1.268751642681309, 1.285844236103003, 1.3021701955003664, 1.3191477596847108, 1.3356150309555233]
3	images/0063.jpg	images/0015.jpg	right	2.058	[0.0, 0.0, 0.0, 0.0, 0.0, 0.0, 0.0, 0.0, 0.0, 0.0, 0.0, 0.0, 0.0, 0.0, 0.0, 0.0, 0.0, 0.0, 0.0, 0.0, 0.0, 0.0, 0.0, 0.0, 0.0, 0.0, 0.0, 0.0, 0.0, 0.0, 0.0, 0.0, 0.0, 0.0, 0.0, 0.0, 0.0, -1.0, 0.0, 3.0, 6.0, 9.0, 12.0, 16.0, 19.0, 22.0, 24.0, 24.0, 25.0, 25.0, 25.0, 25.0, 25.0, 9.0, 2.0, -42.0, -92.0, -148.0, -214.0, -281.0, -348.0, -418.0, -481.0, -539.0, -593.0, -647.0, -687.0, -717.0, -750.0, -764.0, -774.0, -778.0, -780.0, -780.0, -780.0, -780.0, -780.0, -780.0, -774.0, -752.0, -734.0, -713.0, -684.0, -646.0, -596.0, -548.0, -496.0, -444.0, -397.0, -347.0, -298.0, -230.0, -191.0, -160.0, -128.0, -100.0, -77.0, -53.0, -29.0, -6.0, 16.0, 39.0, 61.0, 99.0, 123.0, 160.0, 200.0, 249.0, 325.0, 356.0, 409.0, 449.0, 490.0, 526.0, 552.0, 580.0, 593.0, 601.0, 607.0, 607.0, 608.0, 609.0, 609.0, 609.0]	[-490.0, -490.0, -490.0, -490.0, -490.0, -490.0, -490.0, -490.0, -490.0, -490.0, -490.0, -490.0, -490.0, -490.0, -490.0, -490.0, -490.0, -490.0, -490.0, -490.0, -490.0, -490.0, -490.0, -490.0, -490.0, -490.0, -490.0, -490.0, -490.0, -490.0, -490.0, -490.0, -490.0, -490.0, -490.0, -490.0, -490.0, -490.0, -487.0, -482.0, -477.0, -473.0, -469.0, -465.0, -462.0, -457.0, -455.0, -454.0, -453.0, -452.0, -450.0, -445.0, -437.0, -414.0, -405.0, -367.0, -330.0, -298.0, -260.0, -222.0, -181.0, -134.0, -89.0, -49.0, -10.0, 35.0, 69.0, 102.0, 136.0, 154.0, 166.0, 174.0, 177.0, 179.0, 179.0, 179.0, 179.0, 179.0, 179.0, 178.0, 176.0, 173.0, 169.0, 166.0, 159.0, 153.0, 147.0, 139.0, 138.0, 136.0, 136.0, 136.0, 136.0, 136.0, 136.0, 136.0, 136.0, 138.0, 143.0, 146.0, 149.0, 156.0, 162.0, 176.0, 184.0, 197.0, 213.0, 233.0, 265.0, 277.0, 297.0, 307.0, 320.0, 330.0, 339.0, 349.0, 355.0, 359.0, 362.0, 362.0, 362.0, 362.0, 362.0, 362.0]	[0.007756110717309639, 0.01265697053167969, 0.016352242048014887, 0.03203683665196877, 0.04859592652064748, 0.06544822147407103, 0.08202233001065906, 0.09870088643219788, 0.11526441363093909, 0.13235905504552647, 0.14877649171103258, 0.16570865859102923, 0.18216603121254593, 0.1990012595197186, 0.21919520494702738, 0.2319941700261552, 0.24871027309563942, 0.265790237186593, 0.28193699674739037, 0.2988435636507347, 0.31548491478315555, 0.3323570070497226, 0.3487276810774347, 0.36582129848829936, 0.38221723117749207, 0.3990719154535327, 0.41522208834066987, 0.4325546388863586, 0.44874645439267624, 0.4657933091802988, 0.4820349593210267, 0.4990374408225762, 0.5154347388306633, 0.5323621270508738, 0.5485826145450119, 0.5657605412125122, 0.581977956710034, 0.5988814516167622, 0.6151944403682137, 0.6322870337753557, 0.64847338796244, 0.6656762319471454, 0.681945530071971, 0.6989592755562626, 0.7152825042867335, 0.7322556311410153, 0.7493594885454513, 0.7654570961458376, 0.7820537326479098, 0.798928896911093, 0.8173257238813676, 0.8323351617436856, 0.8500431786233094, 0.8657236772414763, 0.8834736780991079, 0.8989613235462457, 0.9174438251066022, 0.932304100424517, 0.9501486505323555, 0.9657765838637715, 0.9832204089761944, 0.9989701982121915, 1.0162081994931214, 1.0322556311439257, 1.0485911478608614, 1.0653089575935155, 1.081867364802747, 1.0985237345885253, 1.1165693298535189, 1.1320491246442543, 1.150344917041366, 1.1653949735191418, 1.1834163341409294, 1.1987131744244834, 1.215584925361327, 1.2318620741425548, 1.2502814290928654, 1.2654594854684547, 1.2845311278651934, 1.298727851753938, 1.316653639121796, 1.3320313753356459, 1.350178346503526, 1.3654973734373925, 1.383115961070871, 1.3985005239374004, 1.415929330396466, 1.4320023620239226, 1.4489307742478559, 1.465410333519685, 1.4820844526111614, 1.4986967904405901, 1.515674695954658, 1.5321289965795586, 1.5488997129286872, 1.5653591335576493, 1.5822680897981627, 1.5984865292848554, 1.6156306639895774, 1.6318996207701275, 1.6489386249013478, 1.665493277439964, 1.6822069911722792, 1.698569814543589, 1.7157504718925338, 1.7318009755254025, 1.7488945929362671, 1.76966163655743, 1.7821813912014477, 1.7984100706817117, 1.8155610320536653, 1.8317409009032417, 1.8488901556120254, 1.865300082936301, 1.8821796845295466, 1.898750379725243, 1.9157026852626586, 1.9317507995729102, 1.9489085875975434, 1.9651720830443082, 1.9822383938153507, 1.998432940003113, 2.015685277277953, 2.03182282083435]
4	images/0258.jpg	images/0454.jpg	right	1.943	[0.0, 0.0, 0.0, 0.0, 0.0, 0.0, 0.0, 0.0, 0.0, 0.0, 0.0, 0.0, 0.0, 0.0, 0.0, 0.0, 0.0, 0.0, 0.0, 0.0, 0.0, 0.0, 0.0, -8.0, -21.0, -62.0, -98.0, -127.0, -153.0, -174.0, -196.0, -231.0, -279.0, -330.0, -380.0, -428.0, -511.0, -541.0, -626.0, -680.0, -732.0, -787.0, -828.0, -853.0, -867.0, -877.0, -880.0, -882.0, -882.0, -881.0, -879.0, -873.0, -863.0, -857.0, -849.0, -840.0, -827.0, -799.0, -787.0, -747.0, -733.0, -687.0, -643.0, -591.0, -529.0, -461.0, -395.0, -322.0, -243.0, -150.0, -62.0, 28.0, 117.0, 203.0, 309.0, 361.0, 405.0, 443.0, 472.0, 495.0, 511.0, 520.0, 523.0, 525.0, 527.0, 537.0, 542.0, 546.0, 547.0, 548.0, 548.0, 549.0, 549.0, 549.0, 549.0, 549.0, 549.0, 549.0, 549.0, 549.0, 549.0, 549.0, 549.0, 549.0, 549.0, 549.0, 549.0, 554.0, 563.0, 571.0, 580.0, 589.0, 595.0, 598.0, 601.0, 602.0, 602.0]	[-490.0, -490.0, -490.0, -490.0, -490.0, -490.0, -490.0, -490.0, -490.0, -490.0, -490.0, -490.0, -490.0, -490.0, -490.0, -490.0, -490.0, -490.0, -490.0, -490.0, -490.0, -490.0, -481.0, -458.0, -422.0, -348.0, -294.0, -253.0, -217.0, -195.0, -168.0, -137.0, -101.0, -70.0, -40.0, -13.0, 38.0, 61.0, 110.0, 144.0, 181.0, 220.0, 248.0, 271.0, 288.0, 302.0, 311.0, 319.0, 323.0, 330.0, 332.0, 335.0, 338.0, 339.0, 339.0, 340.0, 340.0, 340.0, 340.0, 340.0, 340.0, 340.0, 340.0, 340.0, 340.0, 340.0, 340.0, 340.0, 344.0, 357.0, 363.0, 366.0, 366.0, 374.0, 374.0, 374.0, 374.0, 374.0, 374.0, 374.0, 374.0, 374.0, 374.0, 374.0, 373.0, 372.0, 370.0, 369.0, 369.0, 369.0, 369.0, 369.0, 369.0, 369.0, 369.0, 369.0, 369.0, 369.0, 369.0, 369.0, 369.0, 369.0, 369.0, 369.0, 369.0, 369.0, 369.0, 369.0, 369.0, 369.0, 369.0, 369.0, 369.0, 369.0, 369.0, 368.0, 368.0]	[0.004573521422571503, 0.012121077656047419, 0.02446743511245586, 0.042631131611415185, 0.0577067880803952, 0.07537589300773107, 0.09086456245859154, 0.10830429157067556, 0.12452580306853633, 0.14160849782638252, 0.15768221209873445, 0.17464441629999783, 0.19113455689512193, 0.20799913983501028, 0.22442237914947327, 0.24123610348033253, 0.25772214807511773, 0.2746608002780704, 0.2911277302337112, 0.30801825447997544, 0.32447050711198244, 0.3413456713751657, 0.3576992787566269, 0.37479118950432166, 0.39100280233833473, 0.4079472572193481, 0.4244643631245708, 0.44129174076078925, 0.45765115080575924, 0.4746157443296397, 0.490960477036424, 0.5079223399079638, 0.5241042567649856, 0.541271602109191, 0.5577672040381003, 0.5747881175047951, 0.5910755062795943, 0.6078817212692229, 0.6245469657151261, 0.6412159648170928, 0.6577409213932697, 0.6745880963426316, 0.6907911758462433, 0.7079431612219196, 0.724074560785084, 0.7411637408658862, 0.7574333803204354, 0.7745840003481135, 0.7907553358818404, 0.8077939986833371, 0.8242349873180501, 0.8412647754448699, 0.857620089489501, 0.8747154135780875, 0.8911523062124616, 0.9078219879884273, 0.9266895132168429, 0.9411821728572249, 0.9589639176847413, 0.974561472365167, 0.9923278572096024, 1.007868067943491, 1.026100713716005, 1.0412371274724137, 1.0586000566545408, 1.0745328003977193, 1.0916148124815663, 1.1077530387119623, 1.124292672597221, 1.140850738462177, 1.1576395454758313, 1.1742143366718665, 1.1910413729783613, 1.2075240042468067, 1.2242551259696484, 1.24094904238882, 1.25748458027374, 1.2741788380226353, 1.29130624741083, 1.3074383296479937, 1.3247046615870204, 1.3410760182741797, 1.3579617638606578, 1.3743392645556014, 1.3911014475888805, 1.4077250494010514, 1.424608746994636, 1.441012530325679, 1.457939577216166, 1.4743751045316458, 1.4912618741218466, 1.5076762387761846, 1.524693397586816, 1.5410493943054462, 1.557988729182398, 1.574578197687515, 1.591229106139508, 1.607413412333699, 1.6246889602625743, 1.6408531277993461, 1.6578678972873604, 1.6741358300641878, 1.6912280821416061, 1.707430137656047, 1.724730261557852, 1.7407462905539433, 1.7578501479583792, 1.774064491459285, 1.79111578357697, 1.8074410603148863, 1.8246046510030283, 1.8408667811163468, 1.8578545852942625, 1.8743935365055222, 1.8911669835360954, 1.9075359509006375, 1.9246288856375031]
5	images/0356.jpg	images/0166.jpg	left	2.739	[0.0, 0.0, 0.0, 0.0, 0.0, 0.0, 0.0, 0.0, 0.0, 0.0, 0.0, 0.0, 0.0, 0.0, 0.0, 0.0, 0.0, 0.0, 0.0, 0.0, 7.0, 14.0, 30.0, 41.0, 52.0, 61.0, 67.0, 74.0, 82.0, 87.0, 90.0, 92.0, 92.0, 92.0, 92.0, 87.0, 81.0, 77.0, 71.0, 66.0, 61.0, 56.0, 52.0, 51.0, 49.0, 49.0, 49.0, 49.0, 49.0, 49.0, 49.0, 49.0, 49.0, 49.0, 49.0, 49.0, 49.0, 49.0, 49.0, 49.0, 49.0, 49.0, 49.0, 49.0, 49.0, 49.0, 49.0, 49.0, 49.0, 49.0, 49.0, 49.0, 49.0, 49.0, 49.0, 49.0, 46.0, 15.0, -24.0, -60.0, -96.0, -125.0, -169.0, -198.0, -222.0, -245.0, -265.0, -282.0, -297.0, -313.0, -330.0, -346.0, -367.0, -388.0, -416.0, -428.0, -444.0, -460.0, -476.0, -493.0, -509.0, -525.0, -538.0, -550.0, -561.0, -575.0, -593.0, -606.0, -618.0, -626.0, -633.0, -641.0, -646.0, -654.0, -657.0, -658.0, -658.0, -658.0, -656.0, -650.0, -641.0, -623.0, -597.0, -568.0, -527.0, -480.0, -449.0, -405.0, -393.0, -327.0, -273.0, -213.0, -172.0, -136.0, -111.0, -90.0, -78.0, -75.0, -75.0, -83.0, -94.0, -138.0, -169.0, -210.0, -267.0, -335.0, -419.0, -498.0, -563.0, -597.0, -618.0, -623.0, -624.0, -624.0, -624.0, -624.0, -624.0, -624.0, -624.0, -624.0, -624.0, -624.0, -624.0, -624.0, -624.0]	[-490.0, -490.0, -490.0, -490.0, -490.0, -490.0, -490.0, -490.0, -490.0, -490.0, -490.0, -490.0, -490.0, -490.0, -490.0, -490.0, -490.0, -490.0, -490.0, -490.0, -481.0, -469.0, -443.0, -427.0, -414.0, -403.0, -396.0, -386.0, -374.0, -361.0, -349.0, -339.0, -337.0, -329.0, -316.0, -294.0, -274.0, -257.0, -245.0, -235.0, -225.0, -216.0, -210.0, -206.0, -203.0, -203.0, -203.0, -203.0, -203.0, -203.0, -203.0, -203.0, -203.0, -203.0, -203.0, -203.0, -203.0, -203.0, -203.0, -203.0, -203.0, -203.0, -203.0, -203.0, -203.0, -203.0, -203.0, -203.0, -203.0, -203.0, -203.0, -203.0, -203.0, -203.0, -203.0, -203.0, -201.0, -175.0, -149.0, -122.0, -96.0, -82.0, -56.0, -40.0, -27.0, -16.0, -4.0, 9.0, 20.0, 32.0, 43.0, 55.0, 70.0, 81.0, 97.0, 104.0, 112.0, 122.0, 130.0, 138.0, 145.0, 151.0, 159.0, 165.0, 171.0, 178.0, 188.0, 195.0, 203.0, 208.0, 215.0, 224.0, 232.0, 240.0, 245.0, 247.0, 250.0, 253.0, 257.0, 261.0, 264.0, 268.0, 274.0, 278.0, 284.0, 291.0, 295.0, 300.0, 300.0, 300.0, 300.0, 300.0, 300.0, 300.0, 300.0, 300.0, 300.0, 300.0, 300.0, 300.0, 300.0, 300.0, 300.0, 300.0, 300.0, 300.0, 300.0, 300.0, 300.0, 300.0, 300.0, 300.0, 300.0, 300.0, 300.0, 300.0, 300.0, 300.0, 300.0, 300.0, 300.0, 300.0, 300.0, 300.0, 300.0]	[0.0077718120301142335, 0.014704627450555563, 0.020475545185036026, 0.031129914757912047, 0.04852390525047667, 0.06444128901057411, 0.08149531178059988, 0.09786052448907867, 0.11424348650325555, 0.13069915246160235, 0.14932125924678985, 0.1640357853466412, 0.1841638535115635, 0.1976028180361027, 0.2154914001148427, 0.23107598414935637, 0.2485163959354395, 0.2643132891098503, 0.2813321545982035, 0.29759838071186095, 0.31485754465393256, 0.3310029388667317, 0.34788527112687007, 0.36431158245250117, 0.3811676320619881, 0.3973601302423049, 0.414676979475189, 0.43078858172520995, 0.4478313405124936, 0.46431636111810803, 0.48309138508921023, 0.4976171540329233, 0.5145708248892333, 0.5309459362615598, 0.5478354365041014, 0.564023156024632, 0.5813212319335435, 0.5974041622102959, 0.6146008622017689, 0.6309083896194352, 0.6477726312295999, 0.6645587075763615, 0.6811509067483712, 0.6973143916256959, 0.7146940461243503, 0.7306213285337435, 0.7478282685187878, 0.7639774174022023, 0.7811973280477105, 0.7972986903041601, 0.8145469315786613, 0.8306588751729578, 0.8477210899436614, 0.8640289586910512, 0.8811577334126923, 0.8974260075192433, 0.9146964354586089, 0.9346838743949775, 0.9477907218824839, 0.9641409159230534, 0.9811512480810052, 0.997498711469234, 1.0145459075865801, 1.0337308725429466, 1.0478804924641736, 1.0664933832595125, 1.081186746712774, 1.0989947741909418, 1.1145141636079643, 1.132880953271524, 1.1478453351737699, 1.1661114315793384, 1.1812580853293184, 1.1992176646599546, 1.2148247766745044, 1.232104079273995, 1.247860353818396, 1.265282333624782, 1.2811365707602818, 1.2983725240483182, 1.3143875290552387, 1.3314630558161298, 1.347710167276091, 1.364365854402422, 1.3808119630411966, 1.3976758633070858, 1.4143001477932557, 1.430912144278409, 1.4473350422631484, 1.464320457103895, 1.4809556642430834, 1.4976864446362015, 1.5143124357855413, 1.530972560227383, 1.5475231167802121, 1.5639750280679436, 1.5807375524309464, 1.5975966740516014, 1.6141253852692898, 1.6312845386273693, 1.6473142209579237, 1.6643347930948948, 1.6806447098497301, 1.6978530151682207, 1.7143796783930156, 1.7309493495849892, 1.747603671377874, 1.7645406169176567, 1.780651195178507, 1.7978123965294799, 1.81402639868611, 1.8312162720249034, 1.8473032983019948, 1.8645017049566377, 1.8809102669474669, 1.8976960019645048, 1.9143813850532752, 1.931096122789313, 1.947620396691491, 1.9644812249753159, 1.9806730404816335, 1.9977195539395325, 2.0139431134302868, 2.031085541471839, 2.047246978341718, 2.064434121013619, 2.0806081872142386, 2.0976553833315847, 2.1139632520789746, 2.1310237601865083, 2.1472940823005047, 2.1644095450319583, 2.1806785018125083, 2.197722967277514, 2.214359198405873, 2.2311848693789216, 2.247477719487506, 2.2643818970536813, 2.280682597818668, 2.297745153919095, 2.3169857561733807, 2.331015568197472, 2.349614805658348, 2.364453918329673, 2.3828695186093682, 2.3977704125718446, 2.415365106877289, 2.431225146690849, 2.4487997023534263, 2.464447091668262, 2.482044175325427, 2.497738668593229, 2.5154384934867267, 2.5310899788019015, 2.548507521263673, 2.5643859930569306, 2.58150964777451, 2.59768030064879, 2.6144083503604634, 2.63097733889299, 2.6477937938761897, 2.664397598375217, 2.6807245817763032, 2.6974004075455014, 2.716392178001115]
6	images/0018.jpg	images/0370.jpg	left	2.52	[0.0, 0.0, 0.0, 0.0, 0.0, 0.0, 0.0, 0.0, 0.0, 0.0, 0.0, 0.0, 0.0, 0.0, 0.0, 0.0, 0.0, 0.0, 0.0, 0.0, 0.0, 0.0, 0.0, 0.0, 0.0, 0.0, 0.0, 0.0, 0.0, 0.0, 0.0, 0.0, 0.0, 0.0, 6.0, 15.0, 24.0, 37.0, 49.0, 63.0, 75.0, 91.0, 107.0, 123.0, 138.0, 156.0, 173.0, 197.0, 211.0, 222.0, 224.0, 224.0, 224.0, 224.0, 224.0, 224.0, 224.0, 224.0, 224.0, 225.0, 225.0, 223.0, 200.0, 174.0, 144.0, 99.0, 36.0, -42.0, -110.0, -195.0, -277.0, -413.0, -490.0, -552.0, -586.0, -605.0, -614.0, -617.0, -619.0, -617.0, -604.0, -582.0, -550.0, -477.0, -420.0, -343.0, -260.0, -176.0, -95.0, -14.0, 51.0, 103.0, 162.0, 213.0, 278.0, 310.0, 341.0, 369.0, 393.0, 414.0, 437.0, 458.0, 475.0, 486.0, 494.0, 497.0, 498.0, 499.0, 501.0, 503.0, 507.0, 512.0, 520.0, 529.0, 539.0, 551.0, 560.0, 565.0, 568.0, 568.0, 568.0, 568.0, 552.0, 514.0, 454.0, 379.0, 298.0, 217.0, 138.0, 60.0, -21.0, -129.0, -200.0, -255.0, -293.0, -321.0, -347.0, -373.0, -397.0, -422.0, -451.0, -474.0, -501.0, -515.0, -529.0, -549.0, -570.0, -587.0, -594.0, -595.0, -595.0, -595.0]	[-490.0, -490.0, -490.0, -490.0, -490.0, -490.0, -490.0, -490.0, -490.0, -490.0, -490.0, -490.0, -490.0, -490.0, -490.0, -490.0, -490.0, -490.0, -490.0, -490.0, -490.0, -490.0, -490.0, -490.0, -490.0, -490.0, -490.0, -490.0, -490.0, -490.0, -490.0, -490.0, -490.0, -490.0, -485.0, -478.0, -469.0, -455.0, -440.0, -425.0, -410.0, -393.0, -376.0, -360.0, -345.0, -330.0, -314.0, -296.0, -287.0, -281.0, -280.0, -280.0, -280.0, -280.0, -280.0, -280.0, -280.0, -280.0, -280.0, -280.0, -280.0, -290.0, -322.0, -348.0, -360.0, -363.0, -342.0, -308.0, -266.0, -218.0, -160.0, -61.0, 0.0, 55.0, 95.0, 123.0, 144.0, 159.0, 171.0, 183.0, 191.0, 201.0, 208.0, 220.0, 228.0, 239.0, 250.0, 259.0, 268.0, 277.0, 285.0, 287.0, 293.0, 298.0, 301.0, 301.0, 302.0, 302.0, 304.0, 305.0, 305.0, 305.0, 307.0, 309.0, 311.0, 311.0, 311.0, 311.0, 312.0, 312.0, 314.0, 315.0, 317.0, 321.0, 323.0, 327.0, 328.0, 331.0, 331.0, 331.0, 331.0, 331.0, 331.0, 331.0, 331.0, 329.0, 318.0, 307.0, 296.0, 288.0, 278.0, 278.0, 278.0, 278.0, 282.0, 283.0, 287.0, 290.0, 292.0, 292.0, 292.0, 292.0, 290.0, 288.0, 287.0, 287.0, 287.0, 287.0, 287.0, 287.0, 287.0, 287.0]	[0.006484986472059973, 0.011141110502649099, 0.016117746257805265, 0.03190781277953647, 0.04608508068486117, 0.06311862348229624, 0.07955790545383934, 0.09636173110629898, 0.1129682662722189, 0.12991545180557296, 0.145950254125637, 0.1630937061709119, 0.17924797504383605, 0.19638767241849564, 0.2125436479691416, 0.2298075905709993, 0.24587891552073415, 0.26303158355585765, 0.2792175963986665, 0.2964095177303534, 0.3126327358913841, 0.32978267325961497, 0.3458922275167424, 0.36321624473202974, 0.3793237509817118, 0.39631496848596726, 0.41271567982039414, 0.42981953722483013, 0.4460120354051469, 0.46302475688571576, 0.4820206233416684, 0.4964003017375944, 0.514432926356676, 0.5300014677341096, 0.5475244821136585, 0.5630517222016351, 0.5807170724583557, 0.5964262430497911, 0.6137932682322571, 0.6297475159517489, 0.6469046213169349, 0.6629339623032138, 0.6796954626624938, 0.6959432567964541, 0.7127487891266355, 0.7293109509919304, 0.7485689612221904, 0.7626533865404781, 0.7809532749233767, 0.7959999180893647, 0.8139024948031874, 0.8295788974355673, 0.8462724725250155, 0.862828490397078, 0.8798603265313432, 0.8962555765319848, 0.913104116829345, 0.9295843587606214, 0.946405933733331, 0.9626008212508168, 0.980439227365423, 0.9962388512212783, 1.0130672528612195, 1.029314022991457, 1.0466499868634855, 1.0629667302710004, 1.0798224385507638, 1.0961692192795454, 1.1131058234896045, 1.129599718740792, 1.146399107077741, 1.1629107516491786, 1.1799558997736312, 1.1962313418916892, 1.2130324368772563, 1.2295266734727193, 1.2465981042478234, 1.2626451945543522, 1.2797930839151377, 1.2962081312434748, 1.3130406288837548, 1.3298215852264548, 1.346274520517909, 1.3627919677528553, 1.383199929012335, 1.39597841410432, 1.4130672528553987, 1.429222204402322, 1.446421293730964, 1.4625113919901196, 1.4797551959491102, 1.495857240879559, 1.513009567570407, 1.5292355163837783, 1.5463086538220523, 1.5625933119299589, 1.5797466626245296, 1.5959896780987037, 1.613007860898506, 1.6293491802935023, 1.6463793097645976, 1.6626725011883536, 1.6797360812925035, 1.6982684174872702, 1.7129983035847545, 1.7313084319612244, 1.7463694111065706, 1.7635640630905982, 1.7797285719716456, 1.7973130262980703, 1.8130372155428631, 1.8305824165727245, 1.846435971048777, 1.8631104314845288, 1.8796234413894126, 1.896370947099058, 1.9127477651200024, 1.9296447747037746, 1.94599019009911, 1.9667469937121496, 1.9795346948085353, 1.9976280767004937, 2.01274401046976, 2.0300758783414494, 2.0462093259120593, 2.0632421860354953, 2.0794964655069634, 2.0963586591096828, 2.112580511937267, 2.12979496124899, 2.146066648696433, 2.163085514170234, 2.1795125081553124, 2.196417368395487, 2.21287269302411, 2.2299929344153497, 2.246331864473177, 2.2631469541229308, 2.2792749403597554, 2.296379821767914, 2.312581194608356, 2.3297509292897303, 2.345853656879626, 2.363028852880234, 2.3792111110815313, 2.3963542217825307, 2.4125945065898122, 2.429952998441877, 2.4458741368580377, 2.463028511556331, 2.4792124764062464, 2.4963753844349412]
7	images/0593.jpg	images/0444.jpg	left	1.624	[0.0, 0.0, 0.0, 0.0, 0.0, 0.0, 0.0, 0.0, 0.0, 0.0, 0.0, 0.0, 0.0, 0.0, 0.0, 0.0, 0.0, 0.0, 0.0, 0.0, 9.0, 21.0, 37.0, 54.0, 71.0, 86.0, 103.0, 125.0, 140.0, 154.0, 164.0, 179.0, 193.0, 209.0, 226.0, 244.0, 261.0, 279.0, 294.0, 305.0, 318.0, 318.0, 320.0, 320.0, 320.0, 296.0, 236.0, 78.0, 20.0, -160.0, -221.0, -385.0, -486.0, -567.0, -633.0, -680.0, -713.0, -730.0, -744.0, -749.0, -753.0, -753.0, -753.0, -753.0, -753.0, -753.0, -744.0, -735.0, -724.0, -713.0, -703.0, -694.0, -682.0, -667.0, -655.0, -635.0, -625.0, -618.0, -612.0, -611.0, -609.0, -609.0, -609.0, -609.0, -609.0, -610.0, -613.0, -615.0, -615.0, -615.0, -615.0, -615.0, -615.0, -615.0, -615.0, -615.0, -615.0, -615.0]	[-490.0, -490.0, -490.0, -490.0, -490.0, -490.0, -490.0, -490.0, -490.0, -490.0, -490.0, -490.0, -490.0, -490.0, -490.0, -490.0, -490.0, -490.0, -490.0, -490.0, -480.0, -470.0, -456.0, -436.0, -417.0, -398.0, -381.0, -352.0, -334.0, -319.0, -308.0, -293.0, -280.0, -267.0, -253.0, -239.0, -223.0, -208.0, -193.0, -181.0, -165.0, -164.0, -159.0, -158.0, -154.0, -149.0, -141.0, -119.0, -111.0, -83.0, -75.0, -51.0, -36.0, -25.0, -11.0, 2.0, 13.0, 19.0, 25.0, 28.0, 30.0, 30.0, 32.0, 37.0, 43.0, 51.0, 65.0, 79.0, 93.0, 109.0, 125.0, 138.0, 149.0, 161.0, 172.0, 190.0, 199.0, 207.0, 215.0, 220.0, 224.0, 228.0, 235.0, 242.0, 252.0, 258.0, 264.0, 265.0, 265.0, 265.0, 265.0, 265.0, 265.0, 265.0, 265.0, 265.0, 265.0, 265.0]	[0.007333881760132499, 0.011209035787032917, 0.015582536056172103, 0.031564090415486135, 0.047996204390074126, 0.0650041472108569, 0.08126969066506717, 0.09835067875974346, 0.11469507013680413, 0.1316364530212013, 0.1479392017790815, 0.16514204576378688, 0.18126422933710273, 0.1982308708538767, 0.2147049687919207, 0.23161699702905025, 0.24795080709736794, 0.2649406592681771, 0.2812246347020846, 0.29819946821953636, 0.3144820783199975, 0.3316176796943182, 0.34777570323785767, 0.36487034465244506, 0.38138745055766776, 0.3981404176010983, 0.41479542205343023, 0.43155385041609406, 0.44786342584120575, 0.4649229099450167, 0.4810355361987604, 0.49814383093325887, 0.5143557850969955, 0.5315408797614509, 0.547644290025346, 0.5647996887128102, 0.5809785335732158, 0.598105601631687, 0.6143114118021913, 0.6314709064899944, 0.6476449726906139, 0.6648942379688378, 0.6810246135428315, 0.6980810256500263, 0.7143492997711292, 0.7315531677595573, 0.7476832019892754, 0.7647802327410318, 0.780978874914581, 0.7980557670089183, 0.8144725210004253, 0.8314480371773243, 0.8476999273116235, 0.8648751233267831, 0.8839880670129787, 0.8981639695848571, 0.9147455874335719, 0.9315565810829867, 0.9502042878448265, 0.964849182011676, 0.9834296461485792, 0.9980513296759455, 1.016416754006059, 1.0314548638416454, 1.0499264427489834, 1.0648621526634088, 1.0825732415542006, 1.0981192549515981, 1.1158129358518636, 1.1314828531467356, 1.1490461448265705, 1.1648321153625147, 1.1821605699078646, 1.1980526950064814, 1.2149674539105035, 1.2313613385922508, 1.2481699429044966, 1.2648184620338725, 1.2813471732661128, 1.2978062525507994, 1.3143875290697906, 1.3312179787026253, 1.3476640873413999, 1.3644631343340734, 1.3825251135858707, 1.397911383130122, 1.4157381839177106, 1.4312620106647955, 1.4492448006640188, 1.4646402861835668, 1.4819533807458356, 1.4978431165218353, 1.5153296082717134, 1.5312490400101524, 1.5483419747615699, 1.5645385689422255, 1.581416805202025, 1.597869057834032]
8	images/0077.jpg	images/0368.jpg	left	1.145	[0.0, 0.0, 0.0, 0.0, 0.0, 0.0, 0.0, 0.0, 0.0, 0.0, 0.0, 0.0, 0.0, 0.0, 0.0, 0.0, 0.0, 3.0, 7.0, 14.0, 23.0, 33.0, 43.0, 55.0, 70.0, 82.0, 95.0, 113.0, 120.0, 144.0, 156.0, 167.0, 174.0, 181.0, 183.0, 183.0, 181.0, 167.0, 143.0, 105.0, 51.0, -62.0, -146.0, -238.0, -327.0, -419.0, -509.0, -592.0, -653.0, -694.0, -721.0, -739.0, -749.0, -756.0, -757.0, -757.0, -757.0, -757.0, -754.0, -749.0, -745.0, -741.0, -733.0, -727.0, -719.0, -710.0, -705.0, -704.0, -704.0]	[-490.0, -490.0, -490.0, -490.0, -490.0, -490.0, -490.0, -490.0, -490.0, -490.0, -490.0, -490.0, -490.0, -490.0, -490.0, -490.0, -490.0, -488.0, -482.0, -473.0, -463.0, -451.0, -440.0, -425.0, -409.0, -393.0, -378.0, -354.0, -344.0, -318.0, -301.0, -285.0, -270.0, -251.0, -233.0, -213.0, -192.0, -166.0, -141.0, -116.0, -92.0, -50.0, -27.0, -3.0, 22.0, 49.0, 76.0, 98.0, 118.0, 131.0, 141.0, 153.0, 161.0, 170.0, 173.0, 176.0, 180.0, 184.0, 189.0, 198.0, 202.0, 210.0, 218.0, 228.0, 241.0, 256.0, 266.0, 269.0, 269.0]	[0.003644412907306105, 0.00880673382198438, 0.023565291907289065, 0.040692359951208346, 0.05691421277879272, 0.0739835955464514, 0.09008598180662375, 0.10729599378828425, 0.12348541997198481, 0.1406036133557791, 0.15676812223682646, 0.17385149965411983, 0.19015527241572272, 0.20714887924259529, 0.22353559592738748, 0.24059098404541146, 0.25696302340656985, 0.2737682143924758, 0.2903750908881193, 0.30716935922100674, 0.3235205772652989, 0.3406070266937604, 0.3569114821148105, 0.37383818766102195, 0.3907515812315978, 0.4071922285365872, 0.42602835113939364, 0.440652423989377, 0.45907177893968765, 0.4738221450097626, 0.4918476016318891, 0.5071884738717927, 0.5249787520297104, 0.5405578747304389, 0.5581471077312017, 0.5739259102556389, 0.5909212237602333, 0.6070761753071565, 0.6241349767515203, 0.6404745894687949, 0.6572162925149314, 0.6737589983968064, 0.6901491284224903, 0.7067812635505106, 0.7258634872705443, 0.7405868880450726, 0.758112633091514, 0.7734446306712925, 0.7912314954883186, 0.8069208687666105, 0.8236618891532999, 0.8402831016283017, 0.8572886551264673, 0.873575702556991, 0.890520498767728, 0.9067730715614744, 0.9238219743419904, 0.9403561469080159, 0.9573709163814783, 0.973395478707971, 0.9906601039838279, 1.006918479441083, 1.023798763708328, 1.0400977577955928, 1.0571534872433404, 1.073685953131644, 1.0904754428047454, 1.1067106076225173, 1.1238933129498037]
9	images/0497.jpg	images/0085.jpg	right	1.154	[0.0, 0.0, 0.0, 0.0, 0.0, 0.0, 0.0, 0.0, 0.0, 0.0, 0.0, 0.0, 0.0, 0.0, 0.0, 0.0, 0.0, 0.0, 0.0, 0.0, 0.0, 0.0, 0.0, 0.0, 0.0, 0.0, 0.0, 0.0, 0.0, 0.0, 25.0, 58.0, 83.0, 103.0, 127.0, 152.0, 170.0, 188.0, 207.0, 227.0, 259.0, 286.0, 315.0, 349.0, 381.0, 405.0, 425.0, 437.0, 447.0, 457.0, 469.0, 480.0, 498.0, 511.0, 526.0, 538.0, 551.0, 561.0, 571.0, 578.0, 583.0, 587.0, 593.0, 599.0, 608.0, 613.0, 617.0, 618.0, 618.0]	[-490.0, -490.0, -490.0, -490.0, -490.0, -490.0, -490.0, -490.0, -490.0, -490.0, -490.0, -490.0, -490.0, -490.0, -490.0, -490.0, -490.0, -490.0, -490.0, -490.0, -490.0, -490.0, -490.0, -490.0, -490.0, -490.0, -490.0, -490.0, -490.0, -490.0, -510.0, -519.0, -519.0, -516.0, -507.0, -492.0, -480.0, -463.0, -440.0, -416.0, -374.0, -335.0, -298.0, -258.0, -220.0, -185.0, -159.0, -135.0, -120.0, -100.0, -80.0, -62.0, -30.0, -9.0, 10.0, 32.0, 60.0, 83.0, 108.0, 133.0, 156.0, 175.0, 193.0, 208.0, 230.0, 243.0, 250.0, 253.0, 254.0]	[0.0032761145557742566, 0.007263567153131589, 0.023569729237351567, 0.040095709802699275, 0.056885540805524215, 0.07342039603099693, 0.09039147487783339, 0.10670480495900847, 0.12354173992935102, 0.13981615802913439, 0.15683399951376487, 0.17338831072265748, 0.19028293096926063, 0.20637985589564778, 0.22351136128418148, 0.23968235548818484, 0.2568316101824166, 0.2730186470435001, 0.2901754110644106, 0.30635357325081713, 0.32349190530658234, 0.3397489154303912, 0.3568107888713712, 0.37308247631881386, 0.39027678697311785, 0.4064122825366212, 0.423500097298529, 0.43987486732658, 0.45685652749671135, 0.4730814523209119, 0.4901590270746965, 0.5064819144754438, 0.5235424225829775, 0.5398735019844025, 0.5569968153722584, 0.5730657509993762, 0.590128648429527, 0.6064498291816562, 0.6234260280180024, 0.6398499500064645, 0.656832292850595, 0.6731234362814575, 0.6901730217359727, 0.7064924958103802, 0.7234908812970389, 0.7400441685022088, 0.756789284889237, 0.7752765651093796, 0.7901829203910893, 0.8083059982600389, 0.8234560653363587, 0.8409251490957104, 0.8566995142900851, 0.8734186893561855, 0.8899788032285869, 0.9070826606330229, 0.9233963320439216, 0.939794995385455, 0.9565261171082966, 0.9746949336113175, 0.9900003072107211, 1.00825957696361, 1.023302124129259, 1.0410992289398564, 1.0566486556781456, 1.0746679682924878, 1.0897835607320303, 1.1078834279469447, 1.1232659428205807]
10	images/0534.jpg	images/0233.jpg	left	1.191	[0.0, 0.0, 0.0, 0.0, 0.0, 0.0, 0.0, 0.0, 0.0, 0.0, 0.0, 0.0, 0.0, 0.0, 0.0, 0.0, 0.0, 0.0, 0.0, 0.0, 0.0, 0.0, 0.0, 0.0, 0.0, 0.0, -2.0, -9.0, -25.0, -52.0, -85.0, -122.0, -162.0, -193.0, -215.0, -251.0, -261.0, -273.0, -279.0, -280.0, -282.0, -283.0, -288.0, -294.0, -305.0, -318.0, -331.0, -347.0, -370.0, -392.0, -434.0, -464.0, -491.0, -516.0, -539.0, -554.0, -566.0, -571.0, -575.0, -581.0, -588.0, -596.0, -599.0, -601.0, -606.0, -623.0, -636.0, -647.0, -652.0, -654.0, -655.0, -655.0]	[-490.0, -490.0, -490.0, -490.0, -490.0, -490.0, -490.0, -490.0, -490.0, -490.0, -490.0, -490.0, -490.0, -490.0, -490.0, -490.0, -490.0, -490.0, -490.0, -490.0, -490.0, -490.0, -490.0, -490.0, -490.0, -490.0, -478.0, -464.0, -442.0, -401.0, -358.0, -313.0, -263.0, -217.0, -177.0, -114.0, -95.0, -54.0, -25.0, 2.0, 27.0, 52.0, 78.0, 102.0, 123.0, 139.0, 153.0, 166.0, 178.0, 188.0, 203.0, 211.0, 218.0, 224.0, 230.0, 235.0, 238.0, 241.0, 243.0, 244.0, 248.0, 252.0, 253.0, 255.0, 258.0, 265.0, 271.0, 278.0, 282.0, 285.0, 287.0, 287.0]	[0.006641999672865495, 0.010481313729542308, 0.014095006641582586, 0.030180326255504042, 0.0463881844189018, 0.0636176523839822, 0.07972140397760086, 0.09693141595926136, 0.11329458066029474, 0.1302636115142377, 0.1466411122091813, 0.16377125224971678, 0.18009106766839977, 0.1968327707145363, 0.2133106233086437, 0.23015848093200475, 0.24637453109608032, 0.26360911906522233, 0.2796818093484035, 0.29684744802943897, 0.31301980756688863, 0.3301704275945667, 0.3463601951079909, 0.3635876150801778, 0.37978113726421725, 0.3968099014018662, 0.4131631674390519, 0.43016121159598697, 0.446799149402068, 0.46358522574882954, 0.48031566479767207, 0.49672866413311567, 0.5146479661780177, 0.5300902143353596, 0.5482378681772389, 0.5635254924709443, 0.5810908321436727, 0.5967293467983836, 0.6143161904619774, 0.6301229823002359, 0.6475691967498278, 0.6633920312451664, 0.6809522509283852, 0.6966962374863215, 0.7141905798926018, 0.7299106731516076, 0.7467636507644784, 0.763351071276702, 0.7796582573646447, 0.7963187231507618, 0.8165263218979817, 0.8298987264861353, 0.8480849509796826, 0.8630315835471265, 0.8820366660074797, 0.8962975604954408, 0.9133799139235634, 0.9298826838348759, 0.9478941458073677, 0.9632763193367282, 0.9813447839260334, 0.996546733615105, 1.0143690970726311, 1.0296956333331764, 1.0474009195604594, 1.0630257808952592, 1.0802494461968308, 1.0962808351760032, 1.1134239458770026, 1.129882342502242, 1.1467510214424692, 1.16297082627716]
11	images/0095.jpg	images/0210.jpg	left	1.039	[0.0, 0.0, 0.0, 0.0, 0.0, 0.0, 0.0, 0.0, 0.0, 0.0, 0.0, 0.0, 0.0, 0.0, 0.0, 0.0, 0.0, 0.0, 0.0, 0.0, 0.0, 0.0, 0.0, 0.0, 0.0, 0.0, 0.0, 0.0, 0.0, -10.0, -25.0, -59.0, -73.0, -102.0, -139.0, -183.0, -262.0, -317.0, -362.0, -402.0, -442.0, -482.0, -522.0, -557.0, -582.0, -607.0, -623.0, -640.0, -665.0, -678.0, -694.0, -706.0, -718.0, -727.0, -731.0, -732.0, -732.0, -732.0, -732.0, -732.0, -732.0, -732.0, -732.0]	[-490.0, -490.0, -490.0, -490.0, -490.0, -490.0, -490.0, -490.0, -490.0, -490.0, -490.0, -490.0, -490.0, -490.0, -490.0, -490.0, -490.0, -490.0, -490.0, -490.0, -490.0, -490.0, -490.0, -490.0, -490.0, -490.0, -490.0, -490.0, -486.0, -471.0, -450.0, -404.0, -384.0, -341.0, -291.0, -223.0, -112.0, -40.0, 25.0, 80.0, 140.0, 195.0, 245.0, 288.0, 318.0, 349.0, 371.0, 390.0, 414.0, 423.0, 433.0, 438.0, 442.0, 445.0, 446.0, 446.0, 446.0, 446.0, 446.0, 446.0, 446.0, 446.0, 446.0]	[0.006767951577785425, 0.011081035889219493, 0.01462202487164177, 0.031247674691258, 0.04687321868550498, 0.06436141709855292, 0.08008560634334572, 0.09729595965472981, 0.11316043678380083, 0.13027521685580723, 0.1466226802294841, 0.16368489500018768, 0.18005249704583548, 0.19704507986898534, 0.21333963664073963, 0.2303537234547548, 0.24678788542223629, 0.26367738567932975, 0.279838822549209, 0.2970187972241547, 0.31323075138789136, 0.33032129681669176, 0.34688892000121996, 0.3636821643449366, 0.3801893715863116, 0.39698261593002826, 0.41334066062700003, 0.4301967102510389, 0.4468035867466824, 0.4639391881210031, 0.4840826162690064, 0.4969686212716624, 0.5132150500721764, 0.5302547368628439, 0.5465632882842328, 0.5635527991253184, 0.5797865985950921, 0.5969744239264401, 0.6131201594835147, 0.6302154835721012, 0.64643870171858, 0.6636521270411322, 0.6797722626070026, 0.6969542852893937, 0.7131136741663795, 0.7302359635505127, 0.7464588403672678, 0.763574644428445, 0.7797801132692257, 0.7969379012938589, 0.8132324580656132, 0.8302182142360834, 0.8465701149398228, 0.8635923937545158, 0.8798579372087261, 0.896944045292912, 0.9132580580335343, 0.9302171902381815, 0.9493564165604766, 0.963576009758981, 0.9804672166792443, 0.9968901146785356, 1.0154036775347777]
12	images/0193.jpg	images/0554.jpg	right	1.114	[0.0, 0.0, 0.0, 0.0, 0.0, 0.0, 0.0, 0.0, 0.0, 0.0, 0.0, 0.0, 0.0, 0.0, 0.0, 0.0, 0.0, 0.0, 0.0, 0.0, 0.0, 0.0, 0.0, 0.0, 0.0, 0.0, -1.0, -5.0, -16.0, -28.0, -49.0, -77.0, -107.0, -137.0, -167.0, -188.0, -207.0, -213.0, -211.0, -195.0, -170.0, -122.0, -54.0, 27.0, 118.0, 207.0, 278.0, 356.0, 424.0, 517.0, 561.0, 584.0, 598.0, 607.0, 612.0, 619.0, 626.0, 633.0, 636.0, 640.0, 647.0, 653.0, 661.0, 670.0, 676.0, 680.0, 680.0]	[-490.0, -490.0, -490.0, -490.0, -490.0, -490.0, -490.0, -490.0, -490.0, -490.0, -490.0, -490.0, -490.0, -490.0, -490.0, -490.0, -490.0, -490.0, -490.0, -490.0, -490.0, -490.0, -490.0, -490.0, -490.0, -490.0, -491.0, -475.0, -448.0, -423.0, -391.0, -352.0, -306.0, -255.0, -200.0, -146.0, -99.0, -62.0, -19.0, 12.0, 45.0, 83.0, 117.0, 153.0, 186.0, 213.0, 236.0, 256.0, 275.0, 293.0, 306.0, 313.0, 317.0, 320.0, 322.0, 325.0, 326.0, 329.0, 330.0, 332.0, 334.0, 336.0, 338.0, 341.0, 342.0, 344.0, 344.0]	[0.006706852960633114, 0.010859510759473778, 0.014198089236742817, 0.03040253407380078, 0.046553048290661536, 0.06378354025946464, 0.0799282518128166, 0.0971485037880484, 0.11323006873135455, 0.13043359539005905, 0.1465800136065809, 0.16360638840706088, 0.17990811316121835, 0.1981636282580439, 0.21336728461028542, 0.2304097020678455, 0.24666364020959008, 0.26374462828971446, 0.2828145640232833, 0.29714440779935103, 0.31607781030470505, 0.33038922208652366, 0.3486853558133589, 0.3637405322951963, 0.3815294451196678, 0.3971816130942898, 0.41477460075111594, 0.4303363154758699, 0.4481006523128599, 0.4637845642573666, 0.48082015506224707, 0.49708774650935084, 0.5132669326994801, 0.5299533397919731, 0.5466339442209573, 0.5633493646309944, 0.5801900542574003, 0.5969368773075985, 0.6132863886887208, 0.6300007850950351, 0.6466144882433582, 0.6633336633094586, 0.6810392908664653, 0.6968597360391868, 0.7146442115190439, 0.729941734476597, 0.7475790954194963, 0.7635152524890145, 0.7803562834451441, 0.7969259546516696, 0.8137372896308079, 0.8302287955593783, 0.8471606211096514, 0.8635900044318987, 0.8804515153751709, 0.8968853360129287, 0.9136946229991736, 0.9301977342547616, 0.9470923545013648, 0.963538804469863, 0.9803484327858314, 0.9965928135934519, 1.0137738122721203, 1.0301267369795823, 1.0471411651233211, 1.063545972458087, 1.0804030460712966]
13	images/0243.jpg	images/0211.jpg	right	1.268	[0.0, 0.0, 0.0, 0.0, 0.0, 0.0, 0.0, 0.0, 0.0, 0.0, 0.0, 0.0, 0.0, 0.0, 0.0, 0.0, 0.0, 0.0, 0.0, 0.0, 0.0, 0.0, 0.0, 0.0, 0.0, 0.0, 0.0, 0.0, 0.0, 0.0, 0.0, 0.0, 0.0, 0.0, 3.0, 20.0, 51.0, 102.0, 168.0, 249.0, 339.0, 471.0, 511.0, 620.0, 677.0, 720.0, 744.0, 754.0, 761.0, 761.0, 761.0, 761.0, 761.0, 761.0, 761.0, 761.0, 761.0, 761.0, 762.0, 762.0, 762.0, 762.0, 762.0, 762.0, 762.0, 762.0, 762.0, 762.0, 762.0, 762.0, 762.0, 762.0, 762.0, 762.0, 762.0, 762.0]	[-490.0, -490.0, -490.0, -490.0, -490.0, -490.0, -490.0, -490.0, -490.0, -490.0, -490.0, -490.0, -490.0, -490.0, -490.0, -490.0, -490.0, -490.0, -490.0, -490.0, -490.0, -490.0, -490.0, -490.0, -490.0, -490.0, -490.0, -481.0, -463.0, -445.0, -425.0, -390.0, -364.0, -332.0, -291.0, -244.0, -191.0, -132.0, -63.0, 6.0, 74.0, 173.0, 200.0, 261.0, 287.0, 306.0, 315.0, 322.0, 326.0, 326.0, 326.0, 326.0, 326.0, 326.0, 326.0, 326.0, 326.0, 326.0, 328.0, 331.0, 331.0, 331.0, 331.0, 331.0, 331.0, 331.0, 331.0, 331.0, 331.0, 331.0, 331.0, 331.0, 331.0, 331.0, 331.0, 331.0]	[0.0008372899610549212, 0.005228198206168599, 0.018072901919367723, 0.03524775659025181, 0.051177428336814046, 0.06842908295220695, 0.0846103171352297, 0.10166945990931708, 0.11798142465704586, 0.13483679160708562, 0.1511921056517167, 0.1683833443239564, 0.18456491983670276, 0.20163839860470034, 0.220678638361278, 0.2349972181400517, 0.25413712713634595, 0.2693807194737019, 0.287518815981457, 0.3016298652801197, 0.32073529963963665, 0.33500029014248867, 0.3530895760341082, 0.36840860296797473, 0.387047093725414, 0.40164761459163856, 0.4184125282918103, 0.4349388501868816, 0.4526789523806656, 0.4683198563725455, 0.48601490260625724, 0.5016390812670579, 0.5191528796567582, 0.5350415914290352, 0.5521898221340962, 0.5682529550977051, 0.5853179005353013, 0.6015820786560653, 0.6179373927006964, 0.6345138905599015, 0.6546805293473881, 0.668063173929113, 0.6880625595222227, 0.7014916253974661, 0.7202628947125049, 0.7348012929724064, 0.7514569800987374, 0.7683437496889383, 0.7883226553094573, 0.801430185456411, 0.8205584891256876, 0.8347309783712262, 0.8535565196361858, 0.8679686246759957, 0.8863685236428864, 0.9013550921808928, 0.9195628206507536, 0.9348118742927909, 0.9530817253689747, 0.9682741177384742, 0.9857872334687272, 1.0014394014433492, 1.0188269066129578, 1.0348282582854154, 1.0521413528476842, 1.067881584749557, 1.0850868180568796, 1.101390932148206, 1.1184582669229712, 1.134809826296987, 1.15156723067048, 1.1681638671725523, 1.1849946581496624, 1.2014226761239115, 1.2184927415510174, 1.2345490478619467]
14	images/0525.jpg	images/0238.jpg	right	1.543	[0.0, 0.0, 0.0, 0.0, 0.0, 0.0, 0.0, 0.0, 0.0, 0.0, 0.0, 0.0, 0.0, 0.0, 0.0, 0.0, 0.0, 0.0, 0.0, 0.0, 0.0, 0.0, 0.0, 0.0, 0.0, 0.0, 0.0, -3.0, -14.0, -44.0, -74.0, -117.0, -163.0, -210.0, -257.0, -291.0, -323.0, -357.0, -387.0, -408.0, -435.0, -457.0, -486.0, -499.0, -509.0, -512.0, -512.0, -512.0, -512.0, -504.0, -472.0, -401.0, -301.0, -125.0, 10.0, 142.0, 259.0, 359.0, 446.0, 532.0, 552.0, 592.0, 602.0, 624.0, 627.0, 630.0, 630.0, 630.0, 630.0, 630.0, 630.0, 630.0, 630.0, 630.0, 630.0, 630.0, 630.0, 630.0, 630.0, 630.0, 630.0, 630.0, 630.0, 630.0, 630.0, 630.0, 630.0, 630.0, 630.0, 630.0, 630.0, 630.0, 630.0]	[-490.0, -490.0, -490.0, -490.0, -490.0, -490.0, -490.0, -490.0, -490.0, -490.0, -490.0, -490.0, -490.0, -490.0, -490.0, -490.0, -490.0, -490.0, -490.0, -490.0, -490.0, -490.0, -490.0, -490.0, -478.0, -457.0, -432.0, -402.0, -361.0, -273.0, -205.0, -133.0, -53.0, 25.0, 98.0, 145.0, 191.0, 241.0, 280.0, 304.0, 334.0, 356.0, 381.0, 393.0, 403.0, 406.0, 406.0, 406.0, 407.0, 410.0, 411.0, 411.0, 411.0, 411.0, 411.0, 411.0, 411.0, 411.0, 411.0, 417.0, 418.0, 419.0, 422.0, 424.0, 426.0, 427.0, 427.0, 427.0, 427.0, 427.0, 427.0, 427.0, 427.0, 427.0, 427.0, 427.0, 427.0, 427.0, 427.0, 427.0, 427.0, 427.0, 427.0, 427.0, 427.0, 427.0, 427.0, 427.0, 427.0, 427.0, 427.0, 427.0, 427.0]	[0.011575456810533069, 0.01511815244157333, 0.02267219399800524, 0.039391369064105675, 0.05585556835285388, 0.07286555916653015, 0.08916762526496314, 0.10595813892723527, 0.12251347413985059, 0.13945792900631204, 0.15582723771512974, 0.17291027380269952, 0.1891833265835885, 0.20608306681970134, 0.22256330876552965, 0.2394251610385254, 0.2558644430100685, 0.2729764924151823, 0.28919800389849115, 0.3060373281914508, 0.32226088768220507, 0.3422029293287778, 0.35560093390813563, 0.3728508818458067, 0.3891679665975971, 0.40607794682728127, 0.42251927679171786, 0.4393705477559706, 0.4558395257045049, 0.4728273298678687, 0.48891367347096093, 0.5060554188530659, 0.5225557994272094, 0.5394971823116066, 0.5556265338818775, 0.5727942205703584, 0.5892536411847686, 0.6061172001209343, 0.62259471139987, 0.639274633169407, 0.6556849018234061, 0.6728126525413245, 0.688904457478202, 0.7061878560634796, 0.7222011544072302, 0.739368158421712, 0.7555681659287075, 0.7726761193334823, 0.788912308140425, 0.8060192375414772, 0.8222008130687755, 0.839309790477273, 0.8555551952740643, 0.8727225406182697, 0.8888945588259958, 0.90604995751346, 0.9222332397039281, 0.9394292570359539, 0.9555186726356624, 0.9726095593941864, 0.9888815881713526, 1.0059451682755025, 1.0223032129870262, 1.0393459717743099, 1.0559323682828108, 1.0727402899501612, 1.091188658203464, 1.106040741520701, 1.124429035175126, 1.1394166277168551, 1.1575554068986094, 1.172892183152726, 1.1898584833397763, 1.205938000275637, 1.222938433769741, 1.2392893104843097, 1.2557842297392199, 1.272283927668468, 1.2913548873912077, 1.3058246777072782, 1.3251782611914678, 1.3389445641223574, 1.357182329884381, 1.3725272981246235, 1.3907186426076805, 1.4058902136603137, 1.4237750410538865, 1.4389892787439749, 1.457199055206729, 1.4723453676124336, 1.4907217145955656, 1.5056881444907049, 1.5231094416230917]
15	images/0558.jpg	images/0129.jpg	left	1.205	[0.0, 0.0, 0.0, 0.0, 0.0, 0.0, 0.0, 0.0, 0.0, 0.0, 0.0, 0.0, 0.0, 0.0, 0.0, 0.0, 0.0, 0.0, 0.0, 0.0, 0.0, 0.0, 0.0, -1.0, -4.0, -8.0, -10.0, -16.0, -23.0, -31.0, -46.0, -63.0, -87.0, -103.0, -114.0, -125.0, -134.0, -137.0, -141.0, -143.0, -144.0, -147.0, -152.0, -161.0, -174.0, -201.0, -229.0, -261.0, -307.0, -364.0, -420.0, -473.0, -507.0, -545.0, -582.0, -611.0, -620.0, -641.0, -652.0, -663.0, -670.0, -679.0, -683.0, -686.0, -687.0, -688.0, -688.0, -688.0, -688.0, -688.0, -688.0, -688.0, -688.0]	[-490.0, -490.0, -490.0, -490.0, -490.0, -490.0, -490.0, -490.0, -490.0, -490.0, -490.0, -490.0, -490.0, -490.0, -490.0, -490.0, -490.0, -490.0, -490.0, -490.0, -490.0, -491.0, -476.0, -464.0, -455.0, -446.0, -435.0, -420.0, -405.0, -388.0, -367.0, -342.0, -309.0, -286.0, -265.0, -243.0, -220.0, -200.0, -178.0, -157.0, -135.0, -120.0, -105.0, -84.0, -63.0, -32.0, -7.0, 19.0, 51.0, 85.0, 121.0, 151.0, 170.0, 191.0, 213.0, 231.0, 238.0, 255.0, 267.0, 275.0, 282.0, 289.0, 294.0, 297.0, 300.0, 300.0, 300.0, 300.0, 300.0, 300.0, 300.0, 300.0, 300.0]	[0.005721765788621269, 0.01067928689008113, 0.015503346774494275, 0.040258525652461685, 0.043775962651125155, 0.06203250173712149, 0.07789834419963881, 0.09520939076901414, 0.11125340907892678, 0.12834873315296136, 0.14473510850802995, 0.1615976434404729, 0.1780591120623285, 0.1951926654437557, 0.21142134492401965, 0.22828456254501361, 0.24452962601208128, 0.26164372341008857, 0.27805877073842566, 0.2950271189183695, 0.3114469449064927, 0.32809102670580614, 0.3448125911090756, 0.3615904754551593, 0.37818574662378523, 0.3950609108869685, 0.41127047572808806, 0.42834873315587174, 0.44478699112369213, 0.46155600080965087, 0.4780935867020162, 0.49502780158945825, 0.511496438193717, 0.5283166478475323, 0.5445326980116079, 0.5618676378799137, 0.577939304173924, 0.5949175510177156, 0.6110916172183352, 0.628252135895309, 0.6443978714523837, 0.6615194781770697, 0.6777525949873962, 0.6949407616630197, 0.7110977612028364, 0.7282350692548789, 0.7445641006488586, 0.7615918407827849, 0.7780451174185146, 0.7948980950313853, 0.8116247794241644, 0.8281944506161381, 0.8466721735167084, 0.8615396168315783, 0.879817659893888, 0.8948929750331445, 0.912582559933071, 0.9282333625887986, 0.9459659554559039, 0.9616307527467143, 0.9792500230541918, 0.9950646655488526, 1.0122466882312438, 1.0281275493471185, 1.0454331345681567, 1.0614962675317656, 1.078177554634749, 1.0944854233821388, 1.1111605664918898, 1.1278503869107226, 1.1462953418376856, 1.1613651956431568, 1.181534565097536]
16	images/0064.jpg	images/0399.jpg	right	0.944	[0.0, 0.0, 0.0, 0.0, 0.0, 0.0, 0.0, 0.0, 0.0, 0.0, 0.0, 0.0, 0.0, 0.0, 0.0, 0.0, 0.0, 0.0, 0.0, 0.0, 0.0, 5.0, 21.0, 41.0, 62.0, 83.0, 104.0, 137.0, 172.0, 209.0, 238.0, 266.0, 291.0, 325.0, 356.0, 383.0, 431.0, 447.0, 480.0, 515.0, 548.0, 588.0, 647.0, 677.0, 699.0, 719.0, 734.0, 742.0, 747.0, 747.0, 747.0, 747.0, 747.0, 747.0, 747.0, 747.0, 747.0]	[-490.0, -490.0, -490.0, -490.0, -490.0, -490.0, -490.0, -490.0, -490.0, -490.0, -490.0, -490.0, -490.0, -490.0, -490.0, -490.0, -490.0, -490.0, -490.0, -490.0, -490.0, -489.0, -470.0, -447.0, -428.0, -406.0, -382.0, -352.0, -324.0, -287.0, -256.0, -224.0, -190.0, -150.0, -115.0, -81.0, -25.0, -3.0, 35.0, 71.0, 102.0, 134.0, 180.0, 201.0, 218.0, 232.0, 243.0, 250.0, 255.0, 256.0, 256.0, 256.0, 256.0, 256.0, 256.0, 256.0, 256.0]	[0.006463482495746575, 0.015031624512630515, 0.030848656344460323, 0.04629090450180229, 0.06425048384699039, 0.07955039612716064, 0.09656892027123831, 0.11272660248505417, 0.12913379914243706, 0.1458601422054926, 0.1646184408600675, 0.17933774563425686, 0.1975260181206977, 0.2126552638655994, 0.23067048049415462, 0.24604343804821838, 0.262747935790685, 0.2793954309163382, 0.2992169820063282, 0.3126829118555179, 0.32957548409467563, 0.34605845670739654, 0.3629155303206062, 0.37918380444170907, 0.39625284586509224, 0.41261703456984833, 0.4294679641898256, 0.4459936034254497, 0.46279060242522974, 0.47926367637410294, 0.4961381579632871, 0.5126846185157774, 0.5295577347860672, 0.5460960033378797, 0.5628301970573375, 0.5884533858625218, 0.596006403415231, 0.6124228160770144, 0.6294314415572444, 0.6456543183739996, 0.6627749011095148, 0.6790022152563324, 0.6960702326905448, 0.7123115415015491, 0.729401745586074, 0.74565943836933, 0.7627646611072123, 0.7789735432743328, 0.7961944779235637, 0.812294474846567, 0.8294283695577178, 0.8457010810088832, 0.8627960637531942, 0.8789759326173225, 0.8960739873582497, 0.9123060801648535, 0.9295294041367015]
17	images/0255.jpg	images/0450.jpg	right	1.124	[0.0, 0.0, 0.0, 0.0, 0.0, 0.0, 0.0, 0.0, 0.0, 0.0, 0.0, 0.0, 0.0, 0.0, 0.0, 0.0, 0.0, 0.0, 0.0, 0.0, 0.0, 6.0, 12.0, 54.0, 71.0, 130.0, 183.0, 240.0, 296.0, 346.0, 389.0, 432.0, 470.0, 495.0, 513.0, 534.0, 542.0, 550.0, 554.0, 556.0, 556.0, 556.0, 554.0, 553.0, 553.0, 553.0, 553.0, 555.0, 567.0, 575.0, 582.0, 592.0, 602.0, 610.0, 619.0, 624.0, 632.0, 633.0, 640.0, 646.0, 654.0, 661.0, 668.0, 674.0, 679.0, 682.0, 683.0, 683.0]	[-490.0, -490.0, -490.0, -490.0, -490.0, -490.0, -490.0, -490.0, -490.0, -490.0, -490.0, -490.0, -490.0, -490.0, -490.0, -490.0, -490.0, -490.0, -490.0, -490.0, -490.0, -479.0, -474.0, -432.0, -418.0, -370.0, -333.0, -291.0, -250.0, -210.0, -171.0, -135.0, -101.0, -74.0, -48.0, -14.0, 7.0, 26.0, 41.0, 58.0, 74.0, 87.0, 99.0, 111.0, 121.0, 130.0, 138.0, 151.0, 172.0, 186.0, 202.0, 215.0, 230.0, 246.0, 259.0, 269.0, 283.0, 285.0, 293.0, 299.0, 308.0, 314.0, 319.0, 323.0, 325.0, 327.0, 328.0, 328.0]	[0.006585679730051197, 0.010784758807858452, 0.016936262894887477, 0.029736251963186078, 0.04705275985179469, 0.06294283697206993, 0.0815349064359907, 0.0964825630071573, 0.11397656408371404, 0.12977516393584665, 0.1473565462656552, 0.16292167431674898, 0.18047267801011913, 0.19629244050884154, 0.21312766880146228, 0.22936829495301936, 0.246156760622398, 0.2626230079040397, 0.2819735193916131, 0.2961357686435804, 0.3143438384431647, 0.32951097216573544, 0.34752823678718414, 0.3628005010832567, 0.37967293469409924, 0.3959070755081484, 0.4160508449858753, 0.429344060306903, 0.4468254320527194, 0.4627069758280413, 0.48000402773323003, 0.4961733152740635, 0.5130761275213445, 0.5294597722095205, 0.5463380084693199, 0.5628261010715505, 0.579770555938012, 0.5961569312930806, 0.6131068474933272, 0.6295969880884513, 0.6465793309325818, 0.6626308585691731, 0.6798971904936479, 0.6962163232383318, 0.712876789024449, 0.729644774706685, 0.7462161525763804, 0.7627219944843091, 0.779728230641922, 0.7958763555361656, 0.8130795408505946, 0.8292075270874193, 0.846376237765071, 0.8625479146430735, 0.8796818093542242, 0.8959900194313377, 0.9129706556122983, 0.9293106096592965, 0.9463287924736505, 0.9655468667478999, 0.9797224279755028, 0.9990330035070656, 1.012954612961039, 1.0313586079137167, 1.0463963764195796, 1.0644928303081542, 1.0797272066411097, 1.097827073870576]
18	images/0561.jpg	images/0109.jpg	left	1.174	[0.0, 0.0, 0.0, 0.0, 0.0, 0.0, 0.0, 0.0, 0.0, 0.0, 0.0, 0.0, 0.0, 0.0, 0.0, 0.0, 0.0, 0.0, 0.0, 0.0, 0.0, 0.0, 0.0, 0.0, 0.0, 0.0, 0.0, 0.0, 0.0, 0.0, 12.0, 71.0, 171.0, 266.0, 362.0, 406.0, 426.0, 438.0, 443.0, 443.0, 429.0, 404.0, 351.0, 318.0, 277.0, 222.0, 157.0, 87.0, 1.0, -82.0, -171.0, -304.0, -374.0, -439.0, -488.0, -530.0, -561.0, -585.0, -607.0, -624.0, -636.0, -642.0, -645.0, -650.0, -650.0, -650.0, -650.0, -650.0, -650.0, -650.0, -651.0]	[-490.0, -490.0, -490.0, -490.0, -490.0, -490.0, -490.0, -490.0, -490.0, -490.0, -490.0, -490.0, -490.0, -490.0, -490.0, -490.0, -490.0, -490.0, -490.0, -490.0, -490.0, -490.0, -490.0, -490.0, -490.0, -490.0, -490.0, -490.0, -490.0, -490.0, -490.0, -490.0, -490.0, -490.0, -468.0, -447.0, -427.0, -400.0, -370.0, -334.0, -292.0, -243.0, -178.0, -145.0, -118.0, -90.0, -62.0, -31.0, 1.0, 37.0, 75.0, 131.0, 162.0, 190.0, 212.0, 228.0, 244.0, 253.0, 263.0, 269.0, 274.0, 277.0, 278.0, 280.0, 280.0, 280.0, 280.0, 280.0, 280.0, 280.0, 281.0]	[0.005721083129174076, 0.010298359222360887, 0.014138697282760404, 0.028620775585295632, 0.04462963659898378, 0.061770357977366075, 0.07792701618745923, 0.0949322283413494, 0.11120835311885457, 0.12753328851249535, 0.14417566364863887, 0.16370776430994738, 0.17775737366173416, 0.1960552140517393, 0.21108649722009432, 0.22879383144027088, 0.24445999407907948, 0.26163962740974966, 0.2776297150994651, 0.2948861483746441, 0.31102437460504007, 0.32800535211572424, 0.34437943948432803, 0.3613453983271029, 0.3778177896165289, 0.39466564723988995, 0.41104724392062053, 0.4281924026290653, 0.4444367834221339, 0.46129385704989545, 0.47783963492838666, 0.4945915779680945, 0.5110475852561649, 0.5281517839903245, 0.5445405486680102, 0.5613030730310129, 0.577601043129107, 0.5945622233266477, 0.6108646307402523, 0.6279036348714726, 0.6441347036889056, 0.6612853237165837, 0.677436179263168, 0.6945369646709878, 0.7108008014620282, 0.7279189948603744, 0.7443343835184351, 0.7612112544447882, 0.7775140032026684, 0.794576217973372, 0.8108059214573586, 0.8287347808218328, 0.8442644102469785, 0.8612191051070113, 0.877493181891623, 0.8945642713224515, 0.9109701026463881, 0.9279701948107686, 0.9442551942483988, 0.9623792961210711, 0.9776321044337237, 0.9945659779914422, 1.0108834040584043, 1.0280500667431625, 1.0443497435044264, 1.061224566437886, 1.0801313449628651, 1.0946304899262032, 1.112608842595364, 1.1279794108122587, 1.1463246964849532]
19	images/0344.jpg	images/0332.jpg	right	1.573	[0.0, 4.0, 5.0, 5.0, 5.0, 5.0, 5.0, 5.0, 5.0, 5.0, 5.0, 5.0, 5.0, 5.0, 5.0, 5.0, 5.0, 5.0, 5.0, 5.0, -1.0, -13.0, -36.0, -55.0, -88.0, -129.0, -174.0, -233.0, -297.0, -364.0, -432.0, -490.0, -541.0, -572.0, -613.0, -644.0, -675.0, -703.0, -719.0, -733.0, -740.0, -743.0, -743.0, -743.0, -743.0, -743.0, -743.0, -743.0, -743.0, -743.0, -743.0, -743.0, -742.0, -725.0, -700.0, -664.0, -611.0, -504.0, -456.0, -307.0, -201.0, -98.0, 0.0, 92.0, 173.0, 249.0, 317.0, 367.0, 410.0, 449.0, 472.0, 494.0, 506.0, 522.0, 537.0, 555.0, 565.0, 568.0, 569.0, 571.0, 574.0, 582.0, 602.0, 614.0, 621.0, 630.0, 644.0, 662.0, 678.0, 692.0, 696.0, 698.0, 698.0, 698.0]	[-490.0, -491.0, -491.0, -491.0, -491.0, -491.0, -491.0, -491.0, -491.0, -491.0, -491.0, -491.0, -491.0, -491.0, -491.0, -491.0, -491.0, -491.0, -491.0, -490.0, -477.0, -462.0, -428.0, -400.0, -355.0, -290.0, -215.0, -131.0, -41.0, 44.0, 120.0, 184.0, 241.0, 276.0, 322.0, 357.0, 394.0, 421.0, 435.0, 447.0, 456.0, 459.0, 459.0, 459.0, 459.0, 459.0, 459.0, 459.0, 459.0, 459.0, 459.0, 459.0, 457.0, 446.0, 436.0, 423.0, 411.0, 397.0, 391.0, 378.0, 374.0, 372.0, 372.0, 372.0, 372.0, 372.0, 372.0, 373.0, 378.0, 389.0, 396.0, 401.0, 406.0, 410.0, 411.0, 414.0, 416.0, 417.0, 417.0, 418.0, 418.0, 418.0, 413.0, 410.0, 408.0, 406.0, 403.0, 398.0, 395.0, 392.0, 392.0, 392.0, 392.0, 392.0]	[0.006490789135568775, 0.012212554924190044, 0.028806802089093253, 0.045693913009017706, 0.061910304517368786, 0.07830179986194707, 0.0949738709605299, 0.11329560466401745, 0.12859346893674228, 0.14552665982046165, 0.16188402187253814, 0.1787776181154186, 0.19513975882728118, 0.21192754182266071, 0.22850267434841953, 0.2453979772690218, 0.2618652485543862, 0.27885987938498147, 0.29507934287539683, 0.3120889923593495, 0.328501309020794, 0.34537817994714715, 0.36186968587571755, 0.3787779594567837, 0.39488648971018847, 0.41208592035400216, 0.42853851431573275, 0.4454252839059336, 0.4618307739146985, 0.47871583684172947, 0.49494758831860963, 0.5120227737497771, 0.5283135758509161, 0.5453187880048063, 0.5615539528080262, 0.5786922848637914, 0.5948578177340096, 0.6120135577511974, 0.6282019599457271, 0.645385006617289, 0.6615048008534359, 0.6787458741455339, 0.6948547457286622, 0.7120425710600102, 0.7281988879403798, 0.7453331239958061, 0.76156351013924, 0.778654396883212, 0.7949499776441371, 0.8120292590756435, 0.8283197198470589, 0.8454519078950398, 0.8640060893958434, 0.8786830688623013, 0.8970140185556374, 0.912036768408143, 0.9303052541508805, 0.9453006973490119, 0.9630309008935001, 0.9787271008244716, 0.99631018981745, 1.0120272110798396, 1.0295857240998885, 1.045448153221514, 1.0618044912698679, 1.0783352504950017, 1.0951428308180766, 1.1115882567828521, 1.1285224716702942, 1.145168601462501, 1.1617109660146525, 1.1782830265437951, 1.1984960866248002, 1.2119606511405436, 1.229331430979073, 1.2450262655911501, 1.2624021654191893, 1.2784195597632788, 1.298027777695097, 1.3118613232218195, 1.3287624287913786, 1.3448893910390325, 1.3620249924133532, 1.37849840769195, 1.3953790332889184, 1.4118804378667846, 1.428765159464092, 1.44517952411843, 1.4621867842797656, 1.4784536930674221, 1.4954363772412762, 1.5118241179152392, 1.5289648392936215, 1.54526417471061]
20	images/0261.jpg	images/0424.jpg	left	0.945	[0.0, 0.0, 0.0, 0.0, 0.0, 0.0, 0.0, 0.0, 0.0, 0.0, 0.0, 0.0, 0.0, 0.0, 0.0, 1.0, -5.0, -9.0, -15.0, -23.0, -35.0, -56.0, -87.0, -161.0, -216.0, -273.0, -330.0, -379.0, -430.0, -476.0, -516.0, -562.0, -596.0, -620.0, -636.0, -643.0, -649.0, -651.0, -652.0, -653.0, -653.0, -653.0, -653.0, -653.0, -653.0, -656.0, -658.0, -660.0, -662.0, -663.0, -666.0, -668.0, -670.0, -672.0, -672.0, -672.0, -672.0]	[-490.0, -490.0, -490.0, -490.0, -490.0, -490.0, -490.0, -490.0, -490.0, -490.0, -490.0, -490.0, -490.0, -490.0, -490.0, -480.0, -455.0, -436.0, -420.0, -396.0, -354.0, -296.0, -226.0, -110.0, -36.0, 26.0, 78.0, 122.0, 166.0, 207.0, 241.0, 280.0, 308.0, 326.0, 336.0, 341.0, 347.0, 349.0, 349.0, 350.0, 350.0, 350.0, 350.0, 350.0, 350.0, 350.0, 350.0, 350.0, 349.0, 348.0, 344.0, 341.0, 337.0, 334.0, 334.0, 334.0, 334.0]	[0.016379719352698885, 0.02117886191990692, 0.03248039894970134, 0.04937536052602809, 0.06571360792440828, 0.08270482541411184, 0.09911031542287674, 0.11587386378960218, 0.13230085776012857, 0.14946990978205577, 0.16566206663264893, 0.18256180686876178, 0.19905160613416228, 0.21597353303513955, 0.23242168966680765, 0.2492777392762946, 0.265802354508196, 0.28264987080183346, 0.29903180882683955, 0.3158137891732622, 0.3323182657477446, 0.34907840078813024, 0.36567025863041636, 0.3825013909226982, 0.3988437343214173, 0.41585952779860236, 0.432111076588626, 0.4491569073870778, 0.4654415654804325, 0.48256795086490456, 0.4986908171122195, 0.5157663438731106, 0.53201482068107, 0.5491835313587217, 0.5653504295623861, 0.5824546282965457, 0.5987529397243634, 0.6158134478318971, 0.6321585218829568, 0.6491644167108461, 0.6655033467686735, 0.6824641856219387, 0.7015535773389274, 0.7158434851444326, 0.7337812191690318, 0.7491541767230956, 0.7667304390488425, 0.7824815936037339, 0.8000513706210768, 0.8158110585063696, 0.8332958435785258, 0.8492545286280802, 0.8660085196606815, 0.8824361963197589, 0.8988034570211312, 0.9154366161528742, 0.9323346497403691]
21	images/0494.jpg	images/0190.jpg	right	2.173	[0.0, 0.0, 0.0, 0.0, 0.0, 0.0, 0.0, 0.0, 0.0, 0.0, 0.0, 0.0, 0.0, 0.0, 0.0, 0.0, 0.0, 0.0, 0.0, 0.0, 0.0, 0.0, 0.0, 0.0, 0.0, 0.0, 0.0, 0.0, 0.0, 0.0, -2.0, -10.0, -19.0, -31.0, -35.0, -41.0, -41.0, -38.0, -22.0, -2.0, 21.0, 63.0, 101.0, 140.0, 188.0, 232.0, 285.0, 332.0, 375.0, 418.0, 445.0, 483.0, 518.0, 562.0, 595.0, 622.0, 650.0, 676.0, 699.0, 717.0, 732.0, 741.0, 746.0, 748.0, 748.0, 748.0, 748.0, 748.0, 748.0, 748.0, 748.0, 748.0, 748.0, 748.0, 748.0, 748.0, 748.0, 748.0, 748.0, 748.0, 748.0, 748.0, 748.0, 748.0, 748.0, 748.0, 748.0, 748.0, 748.0, 748.0, 748.0, 748.0, 748.0, 748.0, 748.0, 748.0, 748.0, 748.0, 748.0, 748.0, 748.0, 748.0, 748.0, 748.0, 748.0, 748.0, 748.0, 748.0, 748.0, 748.0, 748.0, 748.0, 748.0, 748.0, 748.0, 748.0, 748.0, 748.0, 748.0, 748.0, 748.0, 748.0, 748.0, 748.0, 748.0, 748.0, 748.0, 748.0, 748.0, 748.0, 748.0]	[-490.0, -490.0, -490.0, -490.0, -490.0, -490.0, -490.0, -490.0, -490.0, -490.0, -490.0, -490.0, -490.0, -490.0, -490.0, -490.0, -490.0, -490.0, -490.0, -490.0, -490.0, -490.0, -490.0, -490.0, -490.0, -490.0, -490.0, -480.0, -462.0, -410.0, -362.0, -313.0, -265.0, -214.0, -169.0, -122.0, -84.0, -51.0, -18.0, 16.0, 41.0, 80.0, 105.0, 125.0, 150.0, 175.0, 205.0, 227.0, 244.0, 264.0, 274.0, 291.0, 306.0, 324.0, 337.0, 344.0, 352.0, 360.0, 367.0, 372.0, 376.0, 380.0, 380.0, 380.0, 381.0, 381.0, 381.0, 381.0, 381.0, 381.0, 381.0, 381.0, 381.0, 381.0, 381.0, 381.0, 381.0, 381.0, 381.0, 381.0, 381.0, 381.0, 381.0, 381.0, 381.0, 381.0, 381.0, 381.0, 381.0, 381.0, 381.0, 381.0, 381.0, 381.0, 381.0, 381.0, 381.0, 381.0, 381.0, 381.0, 381.0, 381.0, 381.0, 381.0, 381.0, 381.0, 381.0, 381.0, 381.0, 381.0, 381.0, 381.0, 381.0, 381.0, 381.0, 381.0, 381.0, 381.0, 381.0, 381.0, 381.0, 381.0, 381.0, 381.0, 381.0, 381.0, 381.0, 381.0, 381.0, 381.0, 381.0]	[0.007364260382018983, 0.011194358448847197, 0.018280773729202338, 0.02965603869233746, 0.04784635917167179, 0.06279094374622218, 0.08038632074021734, 0.09624772587267216, 0.11250268800358754, 0.12913516447588336, 0.1488433929916937, 0.1624035307468148, 0.18163730633386876, 0.19602654204936698, 0.21459096354374196, 0.22942017756577116, 0.24608781133429147, 0.2625895572564332, 0.2808846669795457, 0.29594428079144564, 0.3144428250088822, 0.3294249562168261, 0.34851059326319955, 0.36255201061430853, 0.3808273230242776, 0.3959371128003113, 0.41416293192014564, 0.42933143097616266, 0.44730227430409286, 0.4626486078777816, 0.48085599500336684, 0.49594598745170515, 0.5141346012678696, 0.5293153883103514, 0.5473872662259964, 0.5625400639692089, 0.5803289767791284, 0.5957623502763454, 0.6136130443774164, 0.6291126364958473, 0.6464970696542878, 0.6625868265982717, 0.6795080708252499, 0.6959910434234189, 0.7129740689269966, 0.729366246945574, 0.7463861364230979, 0.7623536961182253, 0.77953776679351, 0.7957893155980855, 0.8128064744087169, 0.8293259696365567, 0.846157443273114, 0.862654069205746, 0.8795486894523492, 0.8959603234397946, 0.9128662076836918, 0.9291723697679117, 0.9462574538629269, 0.9623717867798405, 0.9795565401145723, 0.9957514276175061, 1.0129692902701208, 1.0290109192428645, 1.0461574432847556, 1.0623506241245195, 1.079554150783224, 1.0956855503463885, 1.1127928210771643, 1.1290938631718745, 1.1461342326365411, 1.1625175359804416, 1.1795271854643943, 1.1957097849954152, 1.2128023784025572, 1.232117049919907, 1.2461308193014702, 1.2644726916478248, 1.2794821295101428, 1.2976813246496022, 1.312806474408717, 1.3307756110734772, 1.34621717655682, 1.3636500790162245, 1.379481105512241, 1.3964965576597024, 1.4127074878197163, 1.4290546098782215, 1.4457147343200631, 1.4625509866164066, 1.4792070150724612, 1.4969583812635392, 1.5123542081273627, 1.5304182353720535, 1.5459253368026111, 1.5639603507588618, 1.5793503749591764, 1.596692824154161, 1.6125706132734194, 1.629855718521867, 1.6459888247482013, 1.6633285432908451, 1.6792933723336319, 1.6966020295658382, 1.712653215872706, 1.7301021609746385, 1.745992920754361, 1.763251743352157, 1.779235004389193, 1.7963999604107812, 1.8126108905707952, 1.8295765080983983, 1.8460181793925585, 1.862790602419409, 1.879271868354408, 1.8962862964981468, 1.9123709334380692, 1.929713041317882, 1.9460632353584515, 1.9629482982854825, 1.9791476231330307, 1.996189016586868, 2.012413600066793, 2.0298410412069643, 2.045962542106281, 2.0628359997062944, 2.0795060228265356, 2.0962101792392787, 2.1123507947922917, 2.129585041417158, 2.1459451341215754]
22	images/0020.jpg	images/0303.jpg	left	1.601	[0.0, 0.0, 0.0, 0.0, 0.0, 0.0, 0.0, 0.0, 0.0, 0.0, 0.0, 0.0, 0.0, 0.0, 0.0, 0.0, 0.0, 0.0, 0.0, 0.0, 0.0, 0.0, -8.0, -19.0, -23.0, -36.0, -48.0, -70.0, -99.0, -134.0, -169.0, -227.0, -245.0, -296.0, -321.0, -342.0, -361.0, -376.0, -389.0, -400.0, -410.0, -419.0, -426.0, -440.0, -445.0, -464.0, -477.0, -489.0, -503.0, -518.0, -535.0, -549.0, -564.0, -579.0, -592.0, -603.0, -614.0, -623.0, -636.0, -640.0, -643.0, -644.0, -644.0, -645.0, -645.0, -645.0, -645.0, -645.0, -645.0, -645.0, -645.0, -645.0, -645.0, -645.0, -645.0, -645.0, -645.0, -645.0, -645.0, -645.0, -645.0, -645.0, -645.0, -645.0, -645.0, -645.0, -645.0, -645.0, -645.0, -645.0, -645.0, -645.0, -645.0, -645.0, -645.0, -645.0, -645.0]	[-490.0, -490.0, -490.0, -490.0, -490.0, -490.0, -490.0, -490.0, -490.0, -490.0, -490.0, -490.0, -490.0, -490.0, -490.0, -490.0, -490.0, -490.0, -490.0, -490.0, -484.0, -470.0, -445.0, -417.0, -406.0, -385.0, -360.0, -320.0, -272.0, -220.0, -178.0, -118.0, -100.0, -44.0, -18.0, 6.0, 27.0, 47.0, 61.0, 73.0, 86.0, 95.0, 104.0, 116.0, 120.0, 132.0, 139.0, 146.0, 155.0, 160.0, 167.0, 174.0, 180.0, 190.0, 197.0, 204.0, 212.0, 220.0, 232.0, 237.0, 245.0, 249.0, 254.0, 257.0, 263.0, 267.0, 272.0, 275.0, 277.0, 277.0, 278.0, 278.0, 278.0, 278.0, 278.0, 278.0, 278.0, 278.0, 278.0, 278.0, 278.0, 278.0, 278.0, 278.0, 278.0, 278.0, 278.0, 278.0, 278.0, 278.0, 278.0, 278.0, 278.0, 278.0, 278.0, 278.0, 278.0]	[0.006522874449728988, 0.010528759026783518, 0.014494366303551942, 0.029868006517062895, 0.04628441917884629, 0.06316402077209204, 0.07966201202361844, 0.09661568289448041, 0.1129781649360666, 0.12985162253607996, 0.14632401381095406, 0.1631196474772878, 0.17972311064659152, 0.19654536829330027, 0.21299489025841467, 0.2298543531942414, 0.2461120459920494, 0.26312886347295716, 0.27948247085441835, 0.2965440029511228, 0.3129641702835215, 0.3298017879133113, 0.35593561094719917, 0.3629602449509548, 0.3793490096286405, 0.3964835870137904, 0.41267130653432105, 0.42981100390898064, 0.4460178380686557, 0.4630674235231709, 0.47933194297365844, 0.49646652035880834, 0.5127252371457871, 0.5297867692570435, 0.5460195447376464, 0.5631445647886721, 0.5797630466113333, 0.5965416136314161, 0.6149087446246995, 0.6298772225127323, 0.6483549454133026, 0.6631397861347068, 0.6851380180305569, 0.6965139656531392, 0.7147759660729207, 0.7297645826038206, 0.7484099000284914, 0.7631752847664757, 0.7808078670495888, 0.7966440135351149, 0.8139509641041514, 0.8298847318365006, 0.8472981783124851, 0.8630087142373668, 0.8797729452635394, 0.8960941260011168, 0.9128761063475395, 0.9294314415601548, 0.9460680140327895, 0.9627049278351478, 0.9796316333959112, 0.9960845686873654, 1.0141690759191988, 1.0296048387390329, 1.0468172400578624, 1.0629704849416157, 1.0798040065710666, 1.0962753738567699, 1.1130583781923633, 1.1293304069840815, 1.1467868614126928, 1.1629766289406689, 1.1798811478365678, 1.1963910857593874, 1.213219828729052, 1.2297277186444262, 1.2464960456709377, 1.262961951608304, 1.279843601208995, 1.2960087927494897, 1.313187402090989, 1.329639654722996, 1.3465527069492964, 1.3626615785324248, 1.3798859265079955, 1.3963743604399497, 1.4132044687430607, 1.4294823001837358, 1.446777304096031, 1.463101215500501, 1.4798852438398171, 1.496420781724737, 1.5131856954249088, 1.529477862859494, 1.5465189149836078, 1.5627899197570514, 1.579918353148969]
23	images/0423.jpg	images/0411.jpg	left	1.243	[0.0, 0.0, 0.0, 0.0, 0.0, 0.0, 0.0, 0.0, 0.0, 0.0, 0.0, 0.0, 0.0, 0.0, 0.0, 0.0, 0.0, 0.0, 0.0, 0.0, 0.0, 1.0, 15.0, 44.0, 58.0, 87.0, 105.0, 122.0, 140.0, 162.0, 184.0, 213.0, 237.0, 264.0, 293.0, 354.0, 376.0, 431.0, 460.0, 480.0, 501.0, 517.0, 532.0, 540.0, 548.0, 553.0, 556.0, 556.0, 556.0, 548.0, 532.0, 507.0, 466.0, 403.0, 322.0, 236.0, 141.0, 36.0, -67.0, -175.0, -336.0, -431.0, -512.0, -568.0, -609.0, -633.0, -646.0, -650.0, -650.0, -650.0, -650.0, -650.0, -650.0, -650.0, -650.0]	[-490.0, -490.0, -490.0, -490.0, -490.0, -490.0, -490.0, -490.0, -490.0, -490.0, -490.0, -490.0, -490.0, -490.0, -490.0, -490.0, -490.0, -490.0, -490.0, -490.0, -490.0, -490.0, -473.0, -443.0, -432.0, -407.0, -393.0, -377.0, -363.0, -343.0, -323.0, -297.0, -274.0, -251.0, -229.0, -185.0, -171.0, -132.0, -109.0, -95.0, -80.0, -67.0, -54.0, -44.0, -33.0, -24.0, -16.0, -6.0, -2.0, 11.0, 18.0, 28.0, 41.0, 60.0, 82.0, 104.0, 131.0, 159.0, 187.0, 217.0, 259.0, 286.0, 310.0, 331.0, 348.0, 357.0, 363.0, 365.0, 365.0, 365.0, 365.0, 365.0, 365.0, 365.0, 365.0]	[0.015438664151588455, 0.01960292726289481, 0.03051056594995316, 0.047399042203323916, 0.06362738035386428, 0.08086401631589979, 0.09702511185605545, 0.11408152397780214, 0.130254566174699, 0.14737173556932248, 0.16360894837998785, 0.18070768578036223, 0.1969117892876966, 0.2141340892558219, 0.23034945676045027, 0.24745502082805615, 0.2665481672011083, 0.2807281657733256, 0.29908266743586864, 0.31414330525149126, 0.33199980201607104, 0.3475471807469148, 0.36576514919579495, 0.38069539779098704, 0.3983883960318053, 0.4141395505866967, 0.43148029313306324, 0.44729766629461665, 0.4642134491878096, 0.4807199737697374, 0.49757261006743647, 0.514015646695043, 0.5302818728087004, 0.5469361946015852, 0.5657709518709453, 0.5806366885080934, 0.5998769494326552, 0.6138739934831392, 0.6315277384128422, 0.6471464557544095, 0.6651278804201866, 0.6805305339366896, 0.6979347644228255, 0.7138501001754776, 0.731134522749926, 0.7471816130564548, 0.7671113667165628, 0.7805687632353511, 0.7978685458074324, 0.813837470850558, 0.8307297017599922, 0.847205506375758, 0.864168051892193, 0.8805472592503065, 0.8974640661472222, 0.914003700032481, 0.93078533904918, 0.9472027757146861, 0.9641004679579055, 0.9805691045767162, 0.997378391562961, 1.013770910911262, 1.0307652003975818, 1.047143725096248, 1.0640799879765837, 1.0802755581535166, 1.097509122118936, 1.1140129160339711, 1.1306177445221692, 1.1470549785008188, 1.1641414279147284, 1.1804714833269827, 1.1974080875370419, 1.2138914014649345, 1.2307201444345992]
24	images/0028.jpg	images/0460.jpg	left	1.168	[0.0, 0.0, 0.0, 0.0, 0.0, 0.0, 0.0, 0.0, 0.0, 0.0, 0.0, 0.0, 0.0, 0.0, 0.0, 0.0, 0.0, 0.0, 0.0, 0.0, 0.0, 0.0, 0.0, 0.0, 0.0, 5.0, 10.0, 17.0, 23.0, 29.0, 34.0, 39.0, 44.0, 52.0, 57.0, 57.0, 57.0, 52.0, 40.0, 30.0, 11.0, -18.0, -54.0, -91.0, -137.0, -199.0, -265.0, -370.0, -441.0, -524.0, -595.0, -664.0, -716.0, -752.0, -773.0, -792.0, -800.0, -803.0, -803.0, -803.0, -803.0, -803.0, -802.0, -797.0, -794.0, -790.0, -788.0, -786.0, -786.0, -786.0]	[-490.0, -490.0, -490.0, -490.0, -490.0, -490.0, -490.0, -490.0, -490.0, -490.0, -490.0, -490.0, -490.0, -490.0, -490.0, -490.0, -490.0, -490.0, -490.0, -490.0, -490.0, -490.0, -490.0, -490.0, -489.0, -481.0, -471.0, -459.0, -446.0, -430.0, -415.0, -395.0, -376.0, -341.0, -317.0, -290.0, -264.0, -238.0, -212.0, -190.0, -159.0, -122.0, -90.0, -58.0, -28.0, 9.0, 47.0, 99.0, 134.0, 168.0, 198.0, 227.0, 250.0, 269.0, 281.0, 292.0, 298.0, 301.0, 301.0, 301.0, 301.0, 301.0, 303.0, 304.0, 305.0, 308.0, 308.0, 309.0, 309.0, 309.0]	[0.0009741645335452631, 0.005884922997211106, 0.01823469379451126, 0.03516959134140052, 0.051810601144097745, 0.06855947218718939, 0.08754100266378373, 0.10182203580916394, 0.11928122090466786, 0.13505763410648797, 0.15283562427794095, 0.16846560560225043, 0.1861565558356233, 0.201869481097674, 0.21899962113820948, 0.23506548476871103, 0.2513794975093333, 0.26810072058287915, 0.28684161124692764, 0.3013506548741134, 0.3200813055591425, 0.3349944874935318, 0.35270728304749355, 0.36823793646181, 0.38504722344805487, 0.4016803825943498, 0.4195437060116092, 0.43496649818553124, 0.4519870703225024, 0.4682509071135428, 0.48510354339668993, 0.5016913052531891, 0.5185398455359973, 0.5349009622441372, 0.5520618222653866, 0.5682741177588468, 0.5852400766161736, 0.6016001693205908, 0.6186456587747671, 0.635009164820076, 0.6517385798797477, 0.6680956005875487, 0.6851270953775384, 0.7013759135152213, 0.7185217548831133, 0.7347357570542954, 0.7519935556629207, 0.7679826193489134, 0.7851813673332799, 0.8013718175207032, 0.8185951414925512, 0.8346852397662587, 0.8517887558264192, 0.8679583846969763, 0.8850892074115109, 0.9013192522252211, 0.9183954616601113, 0.934771255691885, 0.9518713584257057, 0.96807716859621, 0.9851192447240464, 1.0014602227747673, 1.0185016162431566, 1.037469493385288, 1.0517791985039366, 1.0700487082503969, 1.0851151487295283, 1.1028265789500438, 1.1184671415976482, 1.1363789343158714]
25	images/0367.jpg	images/0036.jpg	right	1.245	[0.0, 0.0, 0.0, 0.0, 0.0, 0.0, 0.0, 0.0, 0.0, 0.0, 0.0, 0.0, 0.0, 0.0, 0.0, 0.0, 0.0, 0.0, 0.0, 0.0, 0.0, 0.0, 0.0, 0.0, 0.0, 0.0, 0.0, 0.0, 0.0, 0.0, 3.0, 14.0, 24.0, 38.0, 59.0, 74.0, 91.0, 108.0, 128.0, 149.0, 169.0, 187.0, 206.0, 227.0, 253.0, 264.0, 294.0, 318.0, 348.0, 383.0, 419.0, 447.0, 474.0, 500.0, 525.0, 549.0, 566.0, 583.0, 609.0, 621.0, 630.0, 640.0, 645.0, 646.0, 650.0, 650.0, 651.0, 651.0, 651.0, 651.0, 651.0, 651.0, 651.0, 651.0, 651.0]	[-490.0, -490.0, -490.0, -490.0, -490.0, -490.0, -490.0, -490.0, -490.0, -490.0, -490.0, -490.0, -490.0, -490.0, -490.0, -490.0, -490.0, -490.0, -490.0, -490.0, -490.0, -490.0, -490.0, -490.0, -490.0, -490.0, -490.0, -490.0, -490.0, -490.0, -490.0, -476.0, -465.0, -448.0, -425.0, -413.0, -401.0, -388.0, -372.0, -354.0, -337.0, -321.0, -299.0, -275.0, -242.0, -228.0, -186.0, -157.0, -120.0, -78.0, -35.0, 2.0, 36.0, 68.0, 95.0, 125.0, 148.0, 169.0, 197.0, 213.0, 228.0, 244.0, 256.0, 264.0, 273.0, 278.0, 284.0, 288.0, 291.0, 292.0, 292.0, 292.0, 292.0, 292.0, 292.0]	[0.00931600273179356, 0.017813488811952993, 0.028726930162520148, 0.04618782193574589, 0.0620649283810053, 0.07864961822633632, 0.09515136414847802, 0.11171693934011273, 0.12844157573999837, 0.14695206661417615, 0.16216391496709548, 0.18080650172487367, 0.19522304408019409, 0.21457901690155268, 0.22872044483665377, 0.24741832754807547, 0.26213046432530973, 0.2804610726889223, 0.2950516948912991, 0.31322392472065985, 0.3285886902740458, 0.34672712814062834, 0.36196389379620086, 0.3799972010747297, 0.3952779987012036, 0.4131754554400686, 0.4286316982470453, 0.4466380402154755, 0.46202533374889754, 0.479674641348538, 0.49513327349268366, 0.5130467728740769, 0.5284507917240262, 0.545817134247045, 0.5620082670939155, 0.5790506845514756, 0.5951203028380405, 0.6122453228890663, 0.6285951756144641, 0.6456826490320964, 0.6619427311525214, 0.6787721567961853, 0.6950697855500039, 0.7147455874219304, 0.7286631008901168, 0.7455556731292745, 0.762003488431219, 0.7788957193552051, 0.7953578706365079, 0.8123269014904508, 0.828678119534743, 0.8456553423893638, 0.8619519471394597, 0.878812434093561, 0.8951964201114606, 0.9122978881787276, 0.9285678689630004, 0.9455130065034609, 0.9619659417949151, 0.9787974154314725, 0.9952660520502832, 1.0120739737030817, 1.0287808607827174, 1.045578201112221, 1.0616799047129462, 1.0787933194369543, 1.0950687615550123, 1.1121173230058048, 1.1283169891830767, 1.1454450812307186, 1.1616543047275627, 1.1787496288161492, 1.1949861589528155, 1.2121490669815103, 1.2283623864786932]
26	images/0512.jpg	images/0492.jpg	right	1.297	[0.0, 0.0, 0.0, 0.0, 0.0, 0.0, 0.0, 0.0, 0.0, 0.0, 0.0, 0.0, 0.0, 0.0, 0.0, 0.0, 0.0, 0.0, 0.0, 0.0, 0.0, 0.0, 0.0, 0.0, 0.0, -2.0, -11.0, -24.0, -38.0, -54.0, -73.0, -96.0, -143.0, -167.0, -195.0, -218.0, -237.0, -249.0, -257.0, -266.0, -274.0, -282.0, -290.0, -297.0, -304.0, -305.0, -305.0, -302.0, -290.0, -268.0, -235.0, -183.0, -117.0, -35.0, 54.0, 142.0, 227.0, 344.0, 414.0, 471.0, 519.0, 549.0, 572.0, 587.0, 595.0, 599.0, 603.0, 604.0, 607.0, 608.0, 610.0, 612.0, 614.0, 620.0, 622.0, 625.0, 627.0, 627.0]	[-490.0, -490.0, -490.0, -490.0, -490.0, -490.0, -490.0, -490.0, -490.0, -490.0, -490.0, -490.0, -490.0, -490.0, -490.0, -490.0, -490.0, -490.0, -490.0, -490.0, -490.0, -490.0, -490.0, -490.0, -490.0, -490.0, -474.0, -458.0, -439.0, -418.0, -394.0, -367.0, -322.0, -297.0, -265.0, -234.0, -208.0, -188.0, -167.0, -144.0, -115.0, -88.0, -60.0, -35.0, -1.0, 19.0, 35.0, 49.0, 62.0, 75.0, 86.0, 101.0, 115.0, 126.0, 137.0, 154.0, 170.0, 205.0, 224.0, 241.0, 249.0, 254.0, 260.0, 265.0, 268.0, 270.0, 273.0, 275.0, 281.0, 286.0, 290.0, 292.0, 294.0, 298.0, 300.0, 303.0, 305.0, 305.0]	[0.0013851295079803094, 0.0063969225593609735, 0.019048431757255457, 0.035950220000813715, 0.05224136343167629, 0.06933634619053919, 0.08560291363392025, 0.10278937363182195, 0.11911533304373734, 0.13589014539320488, 0.15441258292412385, 0.16937628215237055, 0.18737136012350675, 0.2026347497740062, 0.22156610428646673, 0.23595124400162604, 0.2535155596851837, 0.2694274821114959, 0.2872870508726919, 0.30262997110548895, 0.3202615293994313, 0.335909942703438, 0.35289672287763096, 0.36929094888910186, 0.38650164353020955, 0.4027030163852032, 0.4192692742362851, 0.43573688685137313, 0.45232396603387315, 0.46897897048620507, 0.4856455802655546, 0.5024661312490935, 0.5190692530741217, 0.5355812389898347, 0.5524250006128568, 0.5689557598379906, 0.5858101027988596, 0.60245828058396, 0.6189122398791369, 0.6355266257014591, 0.6525431018526433, 0.669388911468559, 0.6857421775202965, 0.7022411927755456, 0.719141274355934, 0.7357198202080326, 0.7524768832372501, 0.7691796743165469, 0.7858087374625029, 0.8024575979216024, 0.8192805382277584, 0.8356542842666386, 0.8524205632857047, 0.8690957063954556, 0.8858080547943246, 0.9023272086924408, 0.9191095303831389, 0.9357406415219884, 0.9524724459042773, 0.9693759408110054, 0.9858892920601647, 1.0027344190166332, 1.0191460530186305, 1.0358863907313207, 1.0522096194617916, 1.069170116999885, 1.0856114469643217, 1.1026385044388007, 1.1191272797004785, 1.1359140387066873, 1.152457768592285, 1.1694950660457835, 1.1857500281766988, 1.2027013097103918, 1.2188968798873248, 1.2359945932985283, 1.252379261990427, 1.2693738928210223]
27	images/0187.jpg	images/0468.jpg	left	1.081	[0.0, 0.0, 0.0, 0.0, 0.0, 0.0, 0.0, 0.0, 0.0, 0.0, 0.0, 0.0, 0.0, 0.0, 0.0, 0.0, 0.0, 0.0, 0.0, 0.0, 0.0, 0.0, 0.0, 0.0, 0.0, 0.0, -8.0, -14.0, -22.0, -32.0, -50.0, -90.0, -136.0, -189.0, -249.0, -307.0, -364.0, -415.0, -464.0, -514.0, -543.0, -567.0, -579.0, -592.0, -603.0, -609.0, -611.0, -614.0, -618.0, -620.0, -625.0, -630.0, -634.0, -638.0, -640.0, -640.0, -640.0, -641.0, -641.0, -641.0, -641.0, -641.0, -641.0, -641.0, -641.0]	[-490.0, -490.0, -490.0, -490.0, -490.0, -490.0, -490.0, -490.0, -490.0, -490.0, -490.0, -490.0, -490.0, -490.0, -490.0, -490.0, -490.0, -490.0, -490.0, -490.0, -490.0, -490.0, -490.0, -490.0, -490.0, -490.0, -468.0, -453.0, -438.0, -423.0, -400.0, -370.0, -340.0, -299.0, -256.0, -214.0, -174.0, -132.0, -88.0, -32.0, 5.0, 38.0, 61.0, 93.0, 124.0, 154.0, 176.0, 199.0, 221.0, 241.0, 272.0, 290.0, 304.0, 312.0, 316.0, 319.0, 320.0, 321.0, 322.0, 324.0, 325.0, 325.0, 325.0, 325.0, 325.0]	[0.002802685630740598, 0.00725537515245378, 0.023026327035040595, 0.03885359886044171, 0.05584106169408187, 0.07231242897978518, 0.08848308183951303, 0.10513057696516626, 0.12175827477767598, 0.1384822285035625, 0.15753304958343506, 0.1719478852901375, 0.1900682324921945, 0.20532479547546245, 0.22535558370873332, 0.2387027296499582, 0.2567592475825222, 0.27193969329528045, 0.290150835091481, 0.3052841768367216, 0.32290754312998615, 0.33854230312863365, 0.35593526961747557, 0.3717007601662772, 0.3892650758352829, 0.4053602941130521, 0.42239383691048715, 0.4384856418473646, 0.45554137128056027, 0.47193320796941407, 0.48892510813311674, 0.5053439101175172, 0.5223559489386389, 0.5386081804026617, 0.5555516112799523, 0.5719762159278616, 0.5888510388613213, 0.6052302462194348, 0.6222477463597897, 0.6386651830252958, 0.6556847311585443, 0.6720042052329518, 0.6889800627541263, 0.705028859723825, 0.7223440022789873, 0.7384067939128727, 0.7555376166274073, 0.771948909285129, 0.7888367028790526, 0.8053534674399998, 0.8221176984807244, 0.8384562871942762, 0.8555379579629516, 0.8718253467231989, 0.8889189641340636, 0.9051179476518882, 0.9222665196866728, 0.9383832419262035, 0.9554618406837108, 0.9716836935112951, 0.9888947294966783, 1.0050373930571368, 1.0221716290980112, 1.038353545955033, 1.055550245946506]
28	images/0573.jpg	images/0363.jpg	right	1.785	[0.0, 0.0, 0.0, 0.0, 0.0, 0.0, 0.0, 0.0, 0.0, 0.0, 0.0, 0.0, 0.0, 0.0, 0.0, 0.0, 0.0, 0.0, 0.0, 0.0, 0.0, 0.0, 0.0, 0.0, 0.0, 0.0, 0.0, 0.0, 0.0, 0.0, 0.0, 0.0, 4.0, 10.0, 18.0, 33.0, 50.0, 81.0, 102.0, 128.0, 154.0, 188.0, 227.0, 265.0, 302.0, 332.0, 362.0, 391.0, 434.0, 452.0, 468.0, 485.0, 501.0, 517.0, 528.0, 540.0, 552.0, 563.0, 573.0, 584.0, 594.0, 600.0, 604.0, 609.0, 614.0, 620.0, 624.0, 628.0, 630.0, 631.0, 631.0, 631.0, 631.0, 631.0, 631.0, 631.0, 631.0, 631.0, 631.0, 631.0, 631.0, 631.0, 631.0, 631.0, 631.0, 631.0, 631.0, 631.0, 631.0, 631.0, 631.0, 631.0, 631.0, 631.0, 631.0, 631.0, 631.0, 631.0, 631.0, 630.0, 629.0, 628.0, 626.0, 625.0, 625.0, 625.0, 625.0, 625.0]	[-490.0, -490.0, -490.0, -490.0, -490.0, -490.0, -490.0, -490.0, -490.0, -490.0, -490.0, -490.0, -490.0, -490.0, -490.0, -490.0, -490.0, -490.0, -490.0, -490.0, -490.0, -490.0, -490.0, -490.0, -490.0, -490.0, -490.0, -490.0, -490.0, -490.0, -490.0, -487.0, -483.0, -478.0, -472.0, -459.0, -444.0, -414.0, -390.0, -360.0, -328.0, -288.0, -242.0, -201.0, -156.0, -119.0, -75.0, -27.0, 36.0, 67.0, 93.0, 122.0, 151.0, 171.0, 184.0, 198.0, 209.0, 217.0, 224.0, 227.0, 230.0, 232.0, 233.0, 234.0, 236.0, 237.0, 237.0, 237.0, 238.0, 239.0, 239.0, 239.0, 239.0, 239.0, 239.0, 239.0, 239.0, 239.0, 239.0, 239.0, 239.0, 239.0, 239.0, 239.0, 239.0, 239.0, 239.0, 239.0, 239.0, 239.0, 239.0, 239.0, 239.0, 239.0, 239.0, 239.0, 239.0, 249.0, 257.0, 268.0, 278.0, 287.0, 295.0, 300.0, 302.0, 302.0, 302.0, 302.0]	[0.007486798946047202, 0.011189238459337503, 0.0157071225985419, 0.03179312487191055, 0.048270977480569854, 0.0650645631540101, 0.08137447989429347, 0.09839300403837115, 0.11467356614593882, 0.1315470237605041, 0.14804876966809388, 0.16498776321532205, 0.18162672502512578, 0.19839539338136092, 0.21491147528286092, 0.23177674089674838, 0.24821090286422987, 0.2649727445677854, 0.28162023969343863, 0.29834248675615527, 0.3149131819518516, 0.3317770822177408, 0.34828770280000754, 0.3650498858332867, 0.381585082388483, 0.3983452174143167, 0.41487631798372604, 0.4317637702333741, 0.4482272868481232, 0.46505193383200094, 0.48171990894479677, 0.4983646734035574, 0.5147015554684913, 0.5317436315817758, 0.5481911055539967, 0.5649857152166078, 0.5815157917822944, 0.5983383907587267, 0.614754120746511, 0.6316381596698193, 0.6481648229091661, 0.6650843604729744, 0.6816065863677068, 0.6982957241270924, 0.7147244247753406, 0.7316070983652025, 0.7481409295869526, 0.7649328085972229, 0.781252624001354, 0.7981861562147969, 0.8147582167439396, 0.8316651249915594, 0.8481498042528983, 0.8650263338495279, 0.8812164427072275, 0.8981407589308219, 0.9147271554393228, 0.9316647836531047, 0.9481125989550492, 0.9649382699280977, 0.9814034932060167, 0.9982981134526199, 1.014799518045038, 1.03168048497173, 1.0481248869473347, 1.0650393045070814, 1.0815704050619388, 1.0983039161219494, 1.114778355389717, 1.131688335633953, 1.148082561645424, 1.1649734272359638, 1.1812266826891573, 1.1980800016463036, 1.2148244353593327, 1.2317217862728285, 1.248141270931228, 1.2650488618382951, 1.2814618611591868, 1.2982574948255206, 1.314545566259767, 1.331888356799027, 1.3480924603063613, 1.3650829951366177, 1.3814516211714363, 1.3983697934017982, 1.4148787073063431, 1.4317296369263204, 1.4481347856053617, 1.4650335018523037, 1.4812710559926927, 1.4981632869021269, 1.5147834753879579, 1.5317760582256597, 1.5482484495005338, 1.5649440725828754, 1.581396666544606, 1.5983097187854582, 1.6148053206998156, 1.631696527620079, 1.6482603961630957, 1.665162184406654, 1.6814857544668484, 1.6982800228142878, 1.7145984728849726, 1.7317316849221243, 1.7481856442173012, 1.765021555183921]
29	images/0112.jpg	images/0170.jpg	left	1.65	[0.0, 0.0, 0.0, 0.0, 0.0, 0.0, 0.0, 0.0, 0.0, 0.0, 0.0, 0.0, 0.0, 0.0, 0.0, 0.0, 0.0, 0.0, 0.0, 0.0, 0.0, 0.0, 0.0, 0.0, 0.0, 0.0, 0.0, 2.0, 27.0, 55.0, 75.0, 80.0, 102.0, 118.0, 134.0, 157.0, 190.0, 229.0, 259.0, 283.0, 299.0, 312.0, 333.0, 382.0, 404.0, 419.0, 432.0, 449.0, 467.0, 481.0, 492.0, 504.0, 513.0, 523.0, 529.0, 537.0, 539.0, 539.0, 539.0, 532.0, 515.0, 487.0, 430.0, 348.0, 243.0, 185.0, 69.0, -34.0, -163.0, -232.0, -292.0, -345.0, -384.0, -413.0, -433.0, -441.0, -441.0, -441.0, -441.0, -446.0, -452.0, -461.0, -471.0, -491.0, -518.0, -559.0, -602.0, -636.0, -659.0, -671.0, -674.0, -674.0, -674.0, -674.0, -674.0, -674.0, -674.0, -674.0, -674.0, -674.0]	[-490.0, -490.0, -490.0, -490.0, -490.0, -490.0, -490.0, -490.0, -490.0, -490.0, -490.0, -490.0, -490.0, -490.0, -490.0, -490.0, -490.0, -490.0, -490.0, -490.0, -490.0, -490.0, -490.0, -490.0, -490.0, -490.0, -490.0, -490.0, -488.0, -479.0, -465.0, -457.0, -416.0, -383.0, -347.0, -312.0, -267.0, -222.0, -178.0, -138.0, -103.0, -75.0, -47.0, 1.0, 26.0, 47.0, 73.0, 101.0, 131.0, 155.0, 177.0, 197.0, 213.0, 229.0, 244.0, 263.0, 270.0, 279.0, 284.0, 288.0, 291.0, 292.0, 292.0, 292.0, 292.0, 292.0, 281.0, 266.0, 249.0, 244.0, 244.0, 248.0, 254.0, 263.0, 268.0, 271.0, 271.0, 271.0, 271.0, 277.0, 279.0, 283.0, 288.0, 294.0, 302.0, 313.0, 324.0, 334.0, 338.0, 342.0, 343.0, 343.0, 343.0, 343.0, 343.0, 343.0, 343.0, 343.0, 343.0, 343.0]	[0.008463694117381237, 0.01368506565631833, 0.018241520432638936, 0.03341309148527216, 0.0501831251749536, 0.06652819922601338, 0.08344671280065086, 0.10019831449608319, 0.1168127003184054, 0.13333697422058322, 0.15018551451794337, 0.16667667910223827, 0.18348016343952622, 0.1998539094638545, 0.21675569770741276, 0.23340216882934328, 0.25016230386972893, 0.266647665790515, 0.283442275467678, 0.3001249278895557, 0.31687106828030664, 0.33339363550476264, 0.3501674238650594, 0.3667183217330603, 0.38356583802669775, 0.3998945280909538, 0.4168106523284223, 0.4333629155298695, 0.45015650120330974, 0.46669886575546116, 0.483514638064662, 0.5000204799871426, 0.5168222576467087, 0.5333362915553153, 0.550092330595362, 0.5665892978431657, 0.5834985954134027, 0.5998248961550416, 0.6169212442327989, 0.6332536889531184, 0.6501452372176573, 0.6665828125260305, 0.6834357901389012, 0.6999877120106248, 0.7167604763671989, 0.7332332089717966, 0.7502073598298011, 0.7666043164936127, 0.7835337527212687, 0.7997187415749067, 0.8167382897227071, 0.8332482276309747, 0.8501189545640955, 0.8665452658897266, 0.8834187234897399, 0.8999057920882478, 0.9167857350112172, 0.9331379770592321, 0.9501571838627569, 0.9666067058278713, 0.9835958753392333, 0.999694848258514, 1.0166802630992606, 1.0332127290021162, 1.0501281705655856, 1.0665845191833796, 1.0834456887969282, 1.0999474347190699, 1.116775836359011, 1.1332366223068675, 1.1500844799302286, 1.1667579163768096, 1.1835180514026433, 1.199899648083374, 1.2167444337101188, 1.2332403769687517, 1.2501803945197025, 1.2665715485345572, 1.2834030221711146, 1.2997170349117368, 1.3167604763730196, 1.3332728036039043, 1.350114517234033, 1.3665783751930576, 1.383509176739608, 1.3996774402767187, 1.4167219057271723, 1.433046841135365, 1.4501121279026847, 1.4665872498444514, 1.4834456887911074, 1.5000109226675704, 1.5167785670200828, 1.5332673422817606, 1.5500889172544703, 1.5665807645273162, 1.5834852834232152, 1.5997477548808092, 1.6167010844219476, 1.6331758650194388]
30	images/0212.jpg	images/0050.jpg	right	2.54	[0.0, 0.0, 0.0, 0.0, 0.0, 0.0, 0.0, 0.0, 0.0, 0.0, 0.0, 0.0, 0.0, 0.0, 0.0, 0.0, 0.0, 0.0, 0.0, 0.0, 0.0, 2.0, 2.0, 2.0, 4.0, 8.0, 10.0, 21.0, 38.0, 64.0, 102.0, 135.0, 167.0, 199.0, 237.0, 271.0, 308.0, 345.0, 398.0, 433.0, 463.0, 493.0, 517.0, 543.0, 561.0, 580.0, 593.0, 605.0, 617.0, 626.0, 631.0, 636.0, 637.0, 640.0, 642.0, 645.0, 646.0, 647.0, 647.0, 647.0, 647.0, 647.0, 647.0, 647.0, 647.0, 638.0, 622.0, 600.0, 565.0, 523.0, 492.0, 476.0, 469.0, 467.0, 456.0, 438.0, 409.0, 360.0, 284.0, 192.0, 92.0, -19.0, -133.0, -244.0, -347.0, -431.0, -494.0, -561.0, -591.0, -610.0, -615.0, -617.0, -617.0, -617.0, -617.0, -617.0, -617.0, -618.0, -618.0, -618.0, -618.0, -618.0, -618.0, -618.0, -618.0, -618.0, -618.0, -618.0, -618.0, -618.0, -618.0, -618.0, -618.0, -618.0, -618.0, -618.0, -618.0, -618.0, -618.0, -618.0, -618.0, -618.0, -618.0, -618.0, -618.0, -618.0, -618.0, -618.0, -617.0, -589.0, -532.0, -448.0, -358.0, -255.0, -64.0, 72.0, 204.0, 315.0, 404.0, 483.0, 543.0, 582.0, 600.0, 605.0, 607.0, 607.0, 611.0, 614.0, 615.0, 615.0, 615.0, 615.0, 615.0]	[-490.0, -490.0, -490.0, -490.0, -490.0, -490.0, -490.0, -490.0, -490.0, -490.0, -490.0, -490.0, -490.0, -490.0, -490.0, -490.0, -490.0, -490.0, -490.0, -490.0, -489.0, -470.0, -451.0, -432.0, -414.0, -393.0, -373.0, -341.0, -318.0, -292.0, -265.0, -237.0, -211.0, -185.0, -158.0, -133.0, -103.0, -72.0, -25.0, 4.0, 31.0, 59.0, 88.0, 124.0, 156.0, 190.0, 212.0, 236.0, 257.0, 275.0, 288.0, 306.0, 315.0, 327.0, 341.0, 351.0, 357.0, 361.0, 362.0, 363.0, 363.0, 363.0, 363.0, 363.0, 364.0, 364.0, 359.0, 353.0, 348.0, 345.0, 339.0, 335.0, 333.0, 332.0, 331.0, 328.0, 328.0, 328.0, 328.0, 328.0, 328.0, 328.0, 328.0, 328.0, 328.0, 328.0, 336.0, 347.0, 355.0, 360.0, 362.0, 362.0, 362.0, 362.0, 362.0, 362.0, 362.0, 362.0, 362.0, 362.0, 362.0, 362.0, 362.0, 362.0, 362.0, 362.0, 362.0, 362.0, 362.0, 362.0, 362.0, 362.0, 362.0, 362.0, 362.0, 362.0, 362.0, 362.0, 362.0, 362.0, 362.0, 362.0, 362.0, 362.0, 362.0, 362.0, 362.0, 362.0, 362.0, 362.0, 362.0, 362.0, 362.0, 362.0, 362.0, 362.0, 362.0, 362.0, 375.0, 386.0, 394.0, 401.0, 406.0, 407.0, 409.0, 409.0, 410.0, 411.0, 411.0, 411.0, 411.0, 411.0, 411.0]	[0.006623567693168297, 0.010876236061449163, 0.014358857093611732, 0.029794961257721297, 0.04646805636002682, 0.06338213259004988, 0.07988729183853138, 0.09668599750148132, 0.11305291687313002, 0.1300823636702262, 0.14641207773820497, 0.16324184471159242, 0.17978625725663733, 0.1966603975306498, 0.2131583887821762, 0.23003730771597475, 0.2462871498428285, 0.2632756366801914, 0.2797497346182354, 0.29685154402977787, 0.3128856636758428, 0.3299123798205983, 0.34623799788823817, 0.36326061803265475, 0.37977669993415475, 0.3966132935602218, 0.4129679249454057, 0.42994651311892085, 0.44645645102718845, 0.4633933965815231, 0.4799231318029342, 0.49670442948990967, 0.5128392423794139, 0.5299362731311703, 0.5462485792086227, 0.563360287269461, 0.5797992279112805, 0.5965924722549971, 0.6131846714270068, 0.6301939795812359, 0.6464899016718846, 0.6632711993443081, 0.6795456174586434, 0.6967293468042044, 0.7128447037102887, 0.7298140758939553, 0.7464291443902766, 0.7633234233071562, 0.7797418839618331, 0.7966119282355066, 0.8129013650031993, 0.8298738091834821, 0.8465267656429205, 0.8632551566988695, 0.8795753134327242, 0.8967812294285977, 0.9128300263982965, 0.9299239851388847, 0.9464540617045714, 0.9633357112907106, 0.9797712386061903, 0.9966682481899625, 1.0131682874343824, 1.0299929344182601, 1.0465090163197601, 1.0633551672799513, 1.0798726145148976, 1.0967866907449206, 1.1128515303716995, 1.129935590462992, 1.1464800030080369, 1.163319668645272, 1.1797524652938591, 1.1966095389070688, 1.2128522130369674, 1.2298666411952581, 1.2464387017098488, 1.263326836633496, 1.2798207318992354, 1.2967726960923756, 1.3129044369998155, 1.3298185132298386, 1.3464127604092937, 1.3633019193221116, 1.3797435906308237, 1.396609880233882, 1.413100020829006, 1.4299420757888583, 1.4461751925991848, 1.4633101113140583, 1.4797507586190477, 1.4967423174530268, 1.5129098983306903, 1.5299673344416078, 1.5461639286222635, 1.5632336527196458, 1.5797763586015208, 1.5966416242154082, 1.6131092368159443, 1.6300151210598415, 1.646198061920586, 1.6630749328469392, 1.67980673724378, 1.6967528987734113, 1.7131542927818373, 1.7300001024123048, 1.7463482484599808, 1.7633763299236307, 1.779721745318966, 1.7966644935222575, 1.8133502179553034, 1.829954705113778, 1.8464008137525525, 1.8632698340225033, 1.8797166253207251, 1.896655960197677, 1.91306145019189, 1.9299652864428936, 1.9464281203836435, 1.963326495300862, 1.9796879533387255, 1.9966566428629449, 2.013121866140864, 2.029961531778099, 2.046446893713437, 2.0633637006103527, 2.0797514412843157, 2.0967341254581697, 2.112883274341584, 2.1299434411193943, 2.1462076192401582, 2.16325345003861, 2.179501585502294, 2.196601346906391, 2.213144735462265, 2.2299745024356525, 2.2465148189803585, 2.2633459512871923, 2.2794930521777133, 2.2967010161519283, 2.3128634770255303, 2.329960166447563, 2.3464066164160613, 2.363389641919639, 2.379720038647065, 2.3965917895839084, 2.412954612955218, 2.4299949824198848, 2.4464311923948117, 2.463363700604532, 2.479788305252441, 2.4966269468859537, 2.5128549437067704]
31	images/0081.jpg	images/0393.jpg	left	0.766	[0.0, 0.0, 0.0, 0.0, 0.0, 0.0, 0.0, 0.0, 0.0, 0.0, 0.0, 0.0, 0.0, 0.0, 0.0, 0.0, -11.0, -29.0, -56.0, -90.0, -133.0, -221.0, -289.0, -359.0, -432.0, -503.0, -559.0, -604.0, -639.0, -661.0, -679.0, -698.0, -709.0, -717.0, -721.0, -723.0, -725.0, -725.0, -725.0, -725.0, -722.0, -719.0, -716.0, -716.0, -715.0, -715.0]	[-490.0, -490.0, -490.0, -490.0, -490.0, -490.0, -490.0, -490.0, -490.0, -490.0, -490.0, -490.0, -490.0, -490.0, -490.0, -490.0, -478.0, -453.0, -419.0, -378.0, -332.0, -253.0, -193.0, -131.0, -67.0, 2.0, 62.0, 115.0, 165.0, 200.0, 229.0, 259.0, 275.0, 287.0, 297.0, 302.0, 306.0, 310.0, 315.0, 320.0, 329.0, 336.0, 341.0, 344.0, 346.0, 346.0]	[0.005635749868815765, 0.011117899863165803, 0.027390611299779266, 0.044291375554166734, 0.0605077670479659, 0.07743447259417735, 0.09382357861613855, 0.11093835867359303, 0.1271830808109371, 0.14422413293505087, 0.16071256686700508, 0.17761981644434854, 0.19410108237934764, 0.21097692931653, 0.22726977941056248, 0.24429683688504156, 0.26077707881631795, 0.2776607764099026, 0.2940020957903471, 0.31090559071162716, 0.32746229124313686, 0.3443613488198025, 0.360797900124453, 0.3776990057085641, 0.39405329574947245, 0.4110120866098441, 0.4271916141442489, 0.44427089556120336, 0.46070915354357567, 0.4776672617299482, 0.4941123463650001, 0.5109059320384404, 0.5274619499105029, 0.544263727570069, 0.5607494308351306, 0.5776443924260093, 0.5939256371930242, 0.6110346146015218, 0.6271578221640084, 0.6442220849421574, 0.6607180282007903, 0.6775966057903133, 0.6940727517358027, 0.7109202680294402, 0.7274302059377078, 0.7443374555150513]
