trialIndex	stimulus	isAnimate	left_option	right_option	response	response_time	xTrajectory	yTrajectory	tTrajectory
0	蟋蟀	True	animate	inanimate	left	1.423	[0.0, 0.0, 0.0, 0.0, 0.0, 0.0, 0.0, 0.0, 0.0, 0.0, 0.0, 0.0, 0.0, 1.0, 2.0, 2.0, 2.0, 3.0, 3.0, 3.0, 3.0, 3.0, -2.0, -6.0, -10.0, -23.0, -35.0, -37.0, -50.0, -56.0, -61.0, -66.0, -72.0, -76.0, -80.0, -84.0, -86.0, -88.0, -89.0, -89.0, -89.0, -90.0, -90.0, -91.0, -92.0, -93.0, -95.0, -99.0, -101.0, -110.0, -120.0, -128.0, -133.0, -139.0, -146.0, -157.0, -162.0, -175.0, -186.0, -200.0, -202.0, -216.0, -228.0, -248.0, -277.0, -312.0, -353.0, -388.0, -431.0, -473.0, -511.0, -559.0, -579.0, -623.0, -648.0, -666.0, -678.0, -690.0, -703.0, -716.0, -723.0, -726.0, -726.0, -726.0, -726.0, -726.0]	[-490.0, -490.0, -490.0, -490.0, -490.0, -490.0, -490.0, -490.0, -490.0, -490.0, -490.0, -488.0, -483.0, -479.0, -476.0, -475.0, -473.0, -471.0, -466.0, -458.0, -448.0, -433.0, -405.0, -380.0, -364.0, -322.0, -292.0, -280.0, -243.0, -221.0, -204.0, -188.0, -168.0, -156.0, -144.0, -133.0, -125.0, -117.0, -112.0, -109.0, -105.0, -103.0, -100.0, -96.0, -92.0, -89.0, -84.0, -76.0, -73.0, -60.0, -49.0, -40.0, -30.0, -20.0, -10.0, 11.0, 19.0, 43.0, 60.0, 91.0, 102.0, 134.0, 159.0, 189.0, 218.0, 247.0, 276.0, 299.0, 323.0, 347.0, 364.0, 386.0, 394.0, 407.0, 415.0, 418.0, 420.0, 420.0, 420.0, 420.0, 420.0, 420.0, 420.0, 420.0, 420.0, 420.0]	[0.01402025471907109, 0.018818031952832825, 0.026155668354476802, 0.04434633016353473, 0.06086616673565004, 0.07761367244529538, 0.09414170100353658, 0.11111141453147866, 0.12603483645943925, 0.1443770501355175, 0.1609299960109638, 0.17622171630500816, 0.19420279962650966, 0.2110441719123628, 0.22646662275656126, 0.24441152477811556, 0.26089825204689987, 0.2761227297160076, 0.2940959623811068, 0.31080933478369843, 0.3257429967052303, 0.3442862555530155, 0.3606562469212804, 0.37598995116422884, 0.39396113583643455, 0.4109506466629682, 0.4258215033041779, 0.44410876237088814, 0.4609542306570802, 0.4760373964527389, 0.49438609546632506, 0.5105888336402131, 0.5262253003020305, 0.5442057009495329, 0.5609050787024898, 0.5760292044578819, 0.5941758343105903, 0.6107465295062866, 0.6267195505351992, 0.6442190129455412, 0.6617853766219923, 0.6759937058232026, 0.6944359300978249, 0.7107796388154384, 0.7262020896450849, 0.7441210503602633, 0.7610873505473137, 0.7759896098286845, 0.7945553966565058, 0.8108014841272961, 0.826278548251139, 0.8441073970316211, 0.861257334399852, 0.8760783564212034, 0.897356716930517, 0.9107499428355368, 0.9264014281507116, 0.944185562300845, 0.9638299615471624, 0.9759841485065408, 0.9967921520728851, 1.010714102871134, 1.0299451477912953, 1.044162010322907, 1.0632664206932532, 1.0759759565116838, 1.096264792533475, 1.1107424335059477, 1.128899644681951, 1.144059269077843, 1.1626527038752101, 1.1760077004873892, 1.1960616993746953, 1.2106482255912852, 1.2286972341826186, 1.2438179466116708, 1.2621881496015703, 1.2757489700306905, 1.2952715133724269, 1.3105065723793814, 1.3273479446652345, 1.3441835143021308, 1.361573067464633, 1.3760575351043371, 1.3943949701206293, 1.4107714468118502]
1	警察	True	inanimate	animate	right	1.285	[0.0, 0.0, 0.0, 0.0, 0.0, 0.0, 0.0, 0.0, 0.0, 0.0, 0.0, 0.0, 0.0, 0.0, 0.0, 0.0, 0.0, 0.0, 0.0, 0.0, 0.0, 0.0, 0.0, 0.0, 0.0, 0.0, 0.0, 0.0, 2.0, 3.0, 3.0, 3.0, 3.0, 3.0, 3.0, 3.0, 9.0, 20.0, 34.0, 48.0, 66.0, 94.0, 123.0, 169.0, 196.0, 211.0, 246.0, 262.0, 279.0, 286.0, 288.0, 288.0, 278.0, 263.0, 252.0, 252.0, 251.0, 261.0, 280.0, 303.0, 334.0, 379.0, 433.0, 491.0, 550.0, 607.0, 648.0, 690.0, 711.0, 719.0, 738.0, 747.0, 752.0, 754.0, 755.0, 755.0, 755.0]	[-490.0, -490.0, -490.0, -490.0, -490.0, -490.0, -490.0, -490.0, -490.0, -490.0, -490.0, -490.0, -490.0, -490.0, -490.0, -490.0, -490.0, -490.0, -490.0, -490.0, -490.0, -490.0, -490.0, -490.0, -490.0, -490.0, -490.0, -491.0, -491.0, -483.0, -480.0, -463.0, -442.0, -416.0, -382.0, -341.0, -292.0, -242.0, -187.0, -146.0, -109.0, -69.0, -27.0, 37.0, 75.0, 95.0, 140.0, 165.0, 194.0, 216.0, 239.0, 252.0, 272.0, 289.0, 298.0, 299.0, 299.0, 301.0, 305.0, 307.0, 313.0, 320.0, 328.0, 336.0, 344.0, 359.0, 371.0, 384.0, 394.0, 397.0, 407.0, 415.0, 418.0, 420.0, 421.0, 421.0, 421.0]	[0.013786100229481235, 0.018228891101898625, 0.02529721574683208, 0.044042543740943074, 0.0606275749305496, 0.07580904463247862, 0.09402394109929446, 0.11079056144808419, 0.1257276367105078, 0.14412753567739855, 0.16069038020214066, 0.1759148578858003, 0.1937986612902023, 0.21065812424058095, 0.22554536486859433, 0.2440363997448003, 0.2604040017904481, 0.27585512459336314, 0.29371981335862074, 0.310804897439084, 0.3254702715930762, 0.34407087438739836, 0.36037806047534104, 0.3758134819654515, 0.3938273332605604, 0.4107871481246548, 0.42547505025868304, 0.4440268424223177, 0.46061392160481773, 0.47582850062462967, 0.49648392833478283, 0.5107178575126454, 0.5256095354707213, 0.5440558557311306, 0.5605217616830487, 0.5757960739865666, 0.5953978065954288, 0.610847222735174, 0.628538855642546, 0.64402786642313, 0.6616604487062432, 0.6758616099250503, 0.6948151510878233, 0.7106622202263679, 0.726601790622226, 0.7438165812782245, 0.7610426359024132, 0.7757981219765497, 0.7978444818290882, 0.8105915642954642, 0.8255733541736845, 0.8435581921658013, 0.8616549873840995, 0.8757882233185228, 0.8948513323848601, 0.9104563964065164, 0.9267178438603878, 0.9436595680745086, 0.961699702005717, 0.975684458084288, 0.994440367401694, 1.0105884922959376, 1.0266321692761267, 1.0438401332503418, 1.0607081295311218, 1.0757356580288615, 1.0939338291645981, 1.1104041724465787, 1.125812969970866, 1.143552389490651, 1.16080711610266, 1.1756933327415027, 1.1938502025732305, 1.2104420604155166, 1.2257767886621878, 1.243799173287698, 1.2608351054223021]
2	病人	True	inanimate	animate	right	1.116	[0.0, 0.0, 0.0, 0.0, 0.0, 0.0, 0.0, 0.0, 0.0, 0.0, 0.0, 0.0, 0.0, 0.0, 0.0, 0.0, 0.0, 0.0, 0.0, 8.0, 12.0, 14.0, 15.0, 15.0, 15.0, 13.0, 8.0, 3.0, -2.0, -5.0, -7.0, -10.0, -11.0, -11.0, -4.0, 16.0, 23.0, 40.0, 64.0, 100.0, 157.0, 294.0, 348.0, 471.0, 547.0, 576.0, 644.0, 664.0, 677.0, 688.0, 695.0, 701.0, 704.0, 704.0, 704.0, 705.0, 709.0, 715.0, 721.0, 722.0, 724.0, 726.0, 726.0, 727.0, 727.0, 727.0, 727.0]	[-490.0, -490.0, -490.0, -490.0, -490.0, -490.0, -490.0, -490.0, -490.0, -490.0, -490.0, -490.0, -490.0, -490.0, -490.0, -490.0, -490.0, -490.0, -490.0, -463.0, -435.0, -423.0, -387.0, -363.0, -337.0, -314.0, -289.0, -269.0, -250.0, -235.0, -220.0, -196.0, -183.0, -175.0, -151.0, -124.0, -115.0, -95.0, -69.0, -32.0, 15.0, 103.0, 134.0, 211.0, 264.0, 291.0, 355.0, 379.0, 401.0, 421.0, 438.0, 454.0, 468.0, 484.0, 487.0, 491.0, 493.0, 497.0, 498.0, 498.0, 499.0, 500.0, 500.0, 500.0, 500.0, 500.0, 500.0]	[0.0004372476105345413, 0.005608101870166138, 0.013437940520816483, 0.03320487831661012, 0.04833787874667905, 0.0659469090460334, 0.08172571158502251, 0.0996020056627458, 0.11341199920570944, 0.1318555887992261, 0.1482365028350614, 0.16368762563797645, 0.18162945566291455, 0.1984872119501233, 0.2133177912910469, 0.23180438885174226, 0.24838430003728718, 0.2636982069670921, 0.2817065969284158, 0.29846980396541767, 0.31335806859715376, 0.3318146288365824, 0.3481784762116149, 0.36347634048433974, 0.38143045849574264, 0.39856913188123144, 0.4131928634014912, 0.4317586502293125, 0.44809996960975695, 0.4635398284299299, 0.4813929118681699, 0.49836569737817626, 0.5131679460901069, 0.5317487515712855, 0.5535370636353036, 0.5633073806384346, 0.581436261170893, 0.5984725346206687, 0.6132095887151081, 0.6316821916261688, 0.648066518973792, 0.6635521164280362, 0.6813591199024813, 0.6983319054124877, 0.7132259727077326, 0.7317340742447414, 0.7480573029752122, 0.7635944417270366, 0.7817130822659237, 0.7985442145582056, 0.8159747276949929, 0.8317344155802857, 0.8500093866459792, 0.8635729377419921, 0.8826886120950803, 0.8983281507535139, 0.9159774583531544, 0.9320112366694957, 0.9490174728271086, 0.9635831777268322, 0.9820178926747758, 0.9983366840751842, 1.0136069003783632, 1.0312176373554394, 1.0500814079132397, 1.0633688205853105, 1.0834125794790452]
3	家庭	True	animate	inanimate	right	1.673	[0.0, 0.0, 0.0, 0.0, 0.0, 0.0, 0.0, 0.0, 0.0, 0.0, -1.0, -1.0, -1.0, -2.0, -3.0, -3.0, -4.0, -4.0, -4.0, -4.0, -4.0, -4.0, -4.0, -4.0, -4.0, -4.0, -4.0, -4.0, -4.0, -4.0, -4.0, -4.0, -4.0, -4.0, -4.0, -4.0, -1.0, 5.0, 12.0, 29.0, 46.0, 63.0, 80.0, 93.0, 100.0, 105.0, 109.0, 111.0, 112.0, 113.0, 113.0, 113.0, 113.0, 102.0, 96.0, 49.0, -5.0, -71.0, -135.0, -207.0, -263.0, -295.0, -308.0, -309.0, -298.0, -261.0, -239.0, -127.0, -31.0, 69.0, 217.0, 266.0, 364.0, 457.0, 560.0, 583.0, 633.0, 651.0, 660.0, 668.0, 672.0, 673.0, 674.0, 674.0, 674.0, 676.0, 678.0, 679.0, 684.0, 687.0, 693.0, 697.0, 705.0, 711.0, 718.0, 722.0, 727.0, 730.0, 730.0, 730.0]	[-490.0, -490.0, -490.0, -490.0, -490.0, -490.0, -490.0, -490.0, -490.0, -490.0, -490.0, -481.0, -477.0, -470.0, -467.0, -465.0, -464.0, -464.0, -464.0, -464.0, -464.0, -464.0, -464.0, -464.0, -464.0, -464.0, -464.0, -464.0, -464.0, -464.0, -464.0, -464.0, -464.0, -464.0, -461.0, -454.0, -445.0, -433.0, -417.0, -390.0, -368.0, -349.0, -334.0, -323.0, -315.0, -309.0, -305.0, -302.0, -301.0, -300.0, -299.0, -296.0, -281.0, -266.0, -257.0, -209.0, -164.0, -115.0, -64.0, -5.0, 41.0, 74.0, 93.0, 105.0, 132.0, 151.0, 160.0, 194.0, 213.0, 227.0, 248.0, 252.0, 254.0, 256.0, 266.0, 269.0, 281.0, 288.0, 295.0, 302.0, 309.0, 317.0, 327.0, 340.0, 350.0, 354.0, 360.0, 362.0, 369.0, 377.0, 383.0, 390.0, 398.0, 404.0, 409.0, 413.0, 417.0, 418.0, 419.0, 419.0]	[0.01634678071422968, 0.02155484026297927, 0.030468411321635358, 0.04787844447128009, 0.06558236536511686, 0.0809020749584306, 0.0989285555697279, 0.11599281834787689, 0.13069710446870886, 0.14940761649631895, 0.16568510660727043, 0.18101061886409298, 0.19929514726391062, 0.21589110109198373, 0.23086742965097073, 0.24915298203995917, 0.26911106634361204, 0.2809126562788151, 0.30148957738128956, 0.315937522391323, 0.3308220323524438, 0.34922227264905814, 0.36734398518456146, 0.3810908321320312, 0.4003785383392824, 0.41587096244620625, 0.433607992643374, 0.4492420699680224, 0.4666411804500967, 0.48103656017337926, 0.4993460058758501, 0.5158224931510631, 0.5311974986980204, 0.5491342087334488, 0.5655680293712066, 0.5807730510714464, 0.5988244489999488, 0.6155938000156311, 0.6335707873367937, 0.6490335154812783, 0.6676337769458769, 0.6809430349239847, 0.7027033576887334, 0.7155374800640857, 0.7320388846565038, 0.7488754782825708, 0.766713884397177, 0.7808529229951091, 0.7992081073316513, 0.8156470479734708, 0.8309756322269095, 0.8488833289447939, 0.8658475811389508, 0.8808457550039748, 0.8992272219766164, 0.9156163279985776, 0.9310602828190895, 0.9490089394967072, 0.9658192504866747, 0.9808361976756714, 0.9990442674752558, 1.0155777573672822, 1.0310811041417764, 1.0489099529222585, 1.0657919438526733, 1.0808983202878153, 1.0989780488598626, 1.1154985680914251, 1.13113230408635, 1.1488515849778196, 1.1656752079434227, 1.1805832698883023, 1.1990538247919176, 1.2153811495372793, 1.2308554829942295, 1.2487068597547477, 1.265679645279306, 1.2806402725109365, 1.299174315368873, 1.3184309602656867, 1.330931600256008, 1.349341056557023, 1.365831197152147, 1.3808788643073058, 1.398739798401948, 1.4161935221782187, 1.4308742563152919, 1.4522891500382684, 1.4653871228656499, 1.4810986827797024, 1.4987869023607345, 1.5183661069895606, 1.5308367096731672, 1.550471892915084, 1.56537961353024, 1.5822325911576627, 1.5988821342762094, 1.616908273557783, 1.6306657018285478, 1.6521652461378835]
4	鳄鱼	True	inanimate	animate	right	1.173	[0.0, 0.0, 0.0, 0.0, 0.0, 0.0, 0.0, 0.0, 0.0, 0.0, 0.0, 0.0, 0.0, 0.0, 0.0, 0.0, 0.0, 0.0, 0.0, 0.0, 0.0, 0.0, 0.0, 0.0, 0.0, 0.0, 0.0, 0.0, 0.0, 0.0, 0.0, 0.0, 0.0, 0.0, 0.0, 0.0, 0.0, 0.0, 0.0, 5.0, 12.0, 28.0, 52.0, 81.0, 122.0, 173.0, 260.0, 316.0, 372.0, 423.0, 468.0, 509.0, 539.0, 565.0, 583.0, 601.0, 614.0, 626.0, 639.0, 649.0, 658.0, 669.0, 680.0, 689.0, 704.0, 716.0, 731.0, 742.0, 752.0, 757.0, 762.0]	[-490.0, -490.0, -490.0, -490.0, -490.0, -490.0, -490.0, -490.0, -490.0, -490.0, -490.0, -490.0, -490.0, -490.0, -490.0, -490.0, -490.0, -490.0, -490.0, -490.0, -490.0, -490.0, -490.0, -490.0, -490.0, -490.0, -490.0, -490.0, -490.0, -490.0, -490.0, -490.0, -486.0, -482.0, -469.0, -457.0, -448.0, -435.0, -420.0, -404.0, -384.0, -359.0, -326.0, -292.0, -252.0, -212.0, -148.0, -103.0, -55.0, -17.0, 22.0, 60.0, 93.0, 125.0, 148.0, 176.0, 199.0, 224.0, 254.0, 277.0, 297.0, 318.0, 337.0, 353.0, 371.0, 386.0, 399.0, 409.0, 415.0, 418.0, 422.0]	[0.015757298533571884, 0.022868289801408537, 0.029364198926487006, 0.048231382825179026, 0.06455290490703192, 0.08024125418160111, 0.09785506315529346, 0.11497632853570394, 0.12981953720736783, 0.14813512691762298, 0.16465155014884658, 0.18034877408354077, 0.19802368167438544, 0.21528489360935055, 0.2298823424935108, 0.25115694833220914, 0.26480412602541037, 0.2801883475622162, 0.2978509671520442, 0.3153934375150129, 0.32987585716182366, 0.3504660902544856, 0.3646631554729538, 0.3835317047050921, 0.39798203903774265, 0.4171547160076443, 0.4298072492238134, 0.45103202044265345, 0.46465974213788286, 0.4837603978376137, 0.49802197501412593, 0.5184446135826875, 0.5298608385055559, 0.55033945570176, 0.5645242329192115, 0.5830907024210319, 0.5980332390026888, 0.6162935327447485, 0.6297512705932604, 0.6500424959522206, 0.6647368834092049, 0.6815093064360553, 0.6980038843612419, 0.715139144405839, 0.7298157825425733, 0.7481501455622492, 0.7646611074742395, 0.7799623850878561, 0.7977902098791674, 0.8147722113790223, 0.8297925718943588, 0.8482303588243667, 0.8644290010124678, 0.8799797930696514, 0.8978851004649187, 0.9146885847876547, 0.9298137345467694, 0.9480501349898987, 0.9645337902475148, 0.979939515775186, 0.9979915963631356, 1.0148210220067995, 1.0298113452154212, 1.0482433294819202, 1.0643218224286102, 1.079918353119865, 1.097667329973774, 1.11473398207454, 1.1295300867932383, 1.1480112230201485, 1.1643136304337531]
5	狐狸	True	inanimate	animate	right	1.25	[0.0, 0.0, 0.0, 0.0, 0.0, 0.0, 0.0, 0.0, 0.0, 0.0, 0.0, 0.0, 0.0, 0.0, 0.0, 0.0, 0.0, 0.0, 0.0, 0.0, 0.0, 0.0, 0.0, 0.0, 0.0, 0.0, 0.0, 0.0, 0.0, 0.0, 0.0, 0.0, 0.0, 0.0, 0.0, 0.0, 0.0, 0.0, 0.0, 0.0, 0.0, 7.0, 16.0, 53.0, 94.0, 137.0, 189.0, 255.0, 320.0, 378.0, 428.0, 465.0, 515.0, 546.0, 563.0, 609.0, 634.0, 650.0, 663.0, 673.0, 682.0, 686.0, 691.0, 697.0, 704.0, 706.0, 707.0, 714.0, 723.0, 737.0, 751.0, 763.0, 775.0, 783.0, 787.0, 787.0]	[-490.0, -490.0, -490.0, -490.0, -490.0, -490.0, -490.0, -490.0, -490.0, -490.0, -490.0, -490.0, -490.0, -490.0, -490.0, -490.0, -490.0, -490.0, -490.0, -490.0, -490.0, -490.0, -490.0, -490.0, -490.0, -490.0, -490.0, -490.0, -490.0, -490.0, -490.0, -490.0, -490.0, -490.0, -490.0, -490.0, -490.0, -490.0, -490.0, -490.0, -490.0, -485.0, -480.0, -455.0, -426.0, -392.0, -351.0, -305.0, -260.0, -216.0, -168.0, -116.0, -38.0, 6.0, 31.0, 102.0, 144.0, 175.0, 197.0, 222.0, 243.0, 256.0, 266.0, 278.0, 298.0, 310.0, 320.0, 350.0, 375.0, 401.0, 424.0, 446.0, 463.0, 476.0, 483.0, 484.0]	[0.014295027795014903, 0.018459632236044854, 0.026879635712248273, 0.04416986096475739, 0.06175636328407563, 0.07602886311360635, 0.09417958895210177, 0.11080728676461149, 0.12643385476258118, 0.14407428771664854, 0.16053541499422863, 0.17577627666469198, 0.19436049547221046, 0.21080796942987945, 0.22566483142145444, 0.24382886925013736, 0.2622250135609647, 0.27586160991631914, 0.2956213797297096, 0.3107103481743252, 0.32844259971170686, 0.34403981307696085, 0.3622253548819572, 0.3757714980019955, 0.39698705323098693, 0.41055879631312564, 0.4259160525398329, 0.4440811143722385, 0.4619219098094618, 0.47586195125768427, 0.4971276824362576, 0.5107936334388796, 0.5260512204258703, 0.5438571998965926, 0.5618485232116655, 0.5758500045922119, 0.5953827879275195, 0.6106966948573245, 0.6272667073790217, 0.6438985011918703, 0.6607920974493027, 0.6756021968030836, 0.6950295082351658, 0.7104837030346971, 0.7264335134241264, 0.7441060316778021, 0.7609992866055109, 0.7758643405832117, 0.7940126770990901, 0.8107226361753419, 0.8259215138677973, 0.8439674504625145, 0.8608132600929821, 0.8758605859184172, 0.8943028101784876, 0.9106171642633853, 0.926133140354068, 0.9439012318616733, 0.9608183800883126, 0.9756871887366287, 0.9940881116926903, 1.0106127269245917, 1.025977151148254, 1.0439735944673885, 1.06069038019632, 1.075901545889792, 1.0941338503325824, 1.1105813242902514, 1.1260699937411118, 1.143799514611601, 1.16075386814191, 1.175568746170029, 1.1936740747187287, 1.2107748601265484, 1.22583959394251, 1.2440073864272563]
6	衬衫	False	animate	inanimate	right	1.486	[0.0, 0.0, 0.0, 0.0, 0.0, 0.0, 0.0, 0.0, 0.0, 0.0, 0.0, 0.0, 0.0, 0.0, 0.0, 0.0, 0.0, 0.0, 0.0, 0.0, 0.0, 0.0, 0.0, 0.0, 0.0, 0.0, 0.0, 0.0, 2.0, 8.0, 13.0, 20.0, 28.0, 36.0, 47.0, 55.0, 67.0, 91.0, 109.0, 118.0, 157.0, 193.0, 224.0, 256.0, 281.0, 315.0, 347.0, 369.0, 392.0, 426.0, 436.0, 458.0, 465.0, 465.0, 459.0, 443.0, 416.0, 373.0, 315.0, 231.0, 147.0, 27.0, 2.0, -45.0, -53.0, -54.0, -52.0, -39.0, -25.0, -14.0, 3.0, 46.0, 68.0, 155.0, 235.0, 315.0, 397.0, 481.0, 560.0, 633.0, 696.0, 732.0, 755.0, 769.0, 770.0, 771.0, 771.0, 771.0, 771.0]	[-490.0, -490.0, -490.0, -490.0, -490.0, -490.0, -490.0, -490.0, -490.0, -490.0, -490.0, -490.0, -490.0, -490.0, -490.0, -490.0, -490.0, -490.0, -490.0, -490.0, -490.0, -490.0, -490.0, -490.0, -490.0, -490.0, -490.0, -490.0, -490.0, -487.0, -480.0, -470.0, -461.0, -451.0, -439.0, -425.0, -408.0, -375.0, -353.0, -343.0, -304.0, -266.0, -237.0, -203.0, -167.0, -120.0, -76.0, -37.0, 3.0, 64.0, 82.0, 127.0, 149.0, 168.0, 183.0, 193.0, 203.0, 215.0, 224.0, 235.0, 248.0, 252.0, 252.0, 252.0, 252.0, 253.0, 255.0, 259.0, 263.0, 266.0, 269.0, 269.0, 269.0, 269.0, 276.0, 282.0, 294.0, 307.0, 331.0, 351.0, 369.0, 381.0, 390.0, 396.0, 397.0, 397.0, 397.0, 397.0, 397.0]	[0.015308104280848056, 0.019951598980696872, 0.028512573015177622, 0.047138093112153, 0.0636449590238044, 0.07901894058159087, 0.09703006120980717, 0.11391478280711453, 0.12882318608171772, 0.14721659971110057, 0.16371049497683998, 0.17896705796010792, 0.19697032793192193, 0.2139919240726158, 0.22883410874055699, 0.24718622108048294, 0.26370503364887554, 0.2789633032953134, 0.2971184664638713, 0.31388542815693654, 0.3287129355012439, 0.3471814424119657, 0.3635797644237755, 0.37901825791050214, 0.39683550137851853, 0.4139212681329809, 0.4286122422636254, 0.44713570378371514, 0.46349067649862263, 0.478905959345866, 0.4970133358874591, 0.5138895241543651, 0.528644668898778, 0.5471650584222516, 0.5634640525240684, 0.5787165195069974, 0.5967931760824285, 0.6137608416029252, 0.6285781089536613, 0.6471479917818215, 0.6659018531063339, 0.6789670579601079, 0.6968030747375451, 0.7134567138564307, 0.7290843058581231, 0.7467667227610946, 0.7637016203225357, 0.7789400926412782, 0.7971508931077551, 0.8135679884289857, 0.8290604125359096, 0.8468766320002032, 0.8645836248906562, 0.8785779382887995, 0.8975502527609933, 0.9134870925045107, 0.9292693083698396, 0.946682072171825, 0.964079817320453, 0.9786608822178096, 0.9974741354963044, 1.0134184845519485, 1.0291491591342492, 1.0466868508374318, 1.066636743140407, 1.078818578083883, 1.0999914666754194, 1.1135802764183609, 1.131912932774867, 1.146665688182111, 1.1657093412650283, 1.1787841034383746, 1.1980571323365439, 1.2134829965070821, 1.2313487092615105, 1.2468779973423807, 1.264524232945405, 1.2787820554513019, 1.2972669463342754, 1.3135348791256547, 1.3291242418199545, 1.3466755868430482, 1.3670531694515375, 1.3788015114259906, 1.3974638955114642, 1.4135621857712977, 1.4288791646977188, 1.4470019012369448, 1.4639391881064512]
7	沙发	False	animate	inanimate	right	1.203	[0.0, 0.0, 0.0, 0.0, 0.0, 0.0, 0.0, 0.0, 0.0, 0.0, 0.0, 0.0, 0.0, 0.0, 0.0, 0.0, 0.0, 0.0, 0.0, 0.0, 0.0, 0.0, 0.0, 0.0, 0.0, 0.0, 0.0, 0.0, 0.0, 0.0, 0.0, 0.0, 0.0, 0.0, 0.0, 3.0, 12.0, 22.0, 32.0, 45.0, 63.0, 98.0, 112.0, 158.0, 186.0, 207.0, 219.0, 229.0, 235.0, 246.0, 263.0, 289.0, 328.0, 372.0, 401.0, 456.0, 538.0, 561.0, 633.0, 664.0, 693.0, 716.0, 734.0, 750.0, 764.0, 773.0, 779.0, 785.0, 786.0, 786.0, 787.0, 787.0, 787.0]	[-490.0, -490.0, -490.0, -490.0, -490.0, -490.0, -490.0, -490.0, -490.0, -490.0, -490.0, -490.0, -490.0, -490.0, -490.0, -490.0, -490.0, -490.0, -490.0, -490.0, -490.0, -490.0, -490.0, -490.0, -490.0, -490.0, -490.0, -490.0, -490.0, -490.0, -490.0, -490.0, -490.0, -490.0, -489.0, -484.0, -473.0, -462.0, -448.0, -433.0, -416.0, -386.0, -374.0, -337.0, -319.0, -303.0, -291.0, -276.0, -261.0, -238.0, -206.0, -170.0, -118.0, -57.0, -22.0, 40.0, 134.0, 164.0, 246.0, 290.0, 332.0, 363.0, 388.0, 412.0, 433.0, 450.0, 466.0, 479.0, 482.0, 482.0, 483.0, 483.0, 483.0]	[0.013007860907237045, 0.01743290245940443, 0.02405442214512732, 0.04277653949975502, 0.05922810945776291, 0.07453757905750535, 0.09248077441588975, 0.10950168789713643, 0.12413497673696838, 0.14276903017889708, 0.15914960285590496, 0.17449696043331642, 0.19261594230192713, 0.20938631732133217, 0.22419061402615625, 0.24286323809064925, 0.25929637606895994, 0.2745467950589955, 0.2949035563506186, 0.30951090388407465, 0.32437356853915844, 0.3427741501654964, 0.36057739896932617, 0.37457888036442455, 0.3942993968666997, 0.4094122586393496, 0.42709911287238356, 0.44278473149461206, 0.4603500711673405, 0.4745450883929152, 0.49361058678186964, 0.5093542320246343, 0.5267676784860669, 0.5428727954131318, 0.5597708290006267, 0.5745543043885846, 0.592585563659668, 0.6092610480991425, 0.6241503367200494, 0.6423758145101601, 0.6625434773013694, 0.6743962671898771, 0.693605125459726, 0.7092398854438215, 0.7270946755452314, 0.7425990463234484, 0.7632237540528877, 0.7742013660172233, 0.792749062195071, 0.8090610269427998, 0.8248152534943074, 0.8425021077273414, 0.8593270960409427, 0.8745256324036745, 0.892601264975383, 0.9091473841981497, 0.9244530991418287, 0.9424587584362598, 0.9593943386571482, 0.9745013977662893, 0.9927040062320884, 1.0091883441637037, 1.0245039577566786, 1.0425109823991079, 1.0591775921639055, 1.0741597233864013, 1.0925828329927754, 1.108902989741182, 1.1245657390390988, 1.1425437503639841, 1.1594117466302123, 1.17430513126601, 1.1927313128690002]
8	警察	True	animate	inanimate	left	1.5	[0.0, 0.0, 0.0, 0.0, 0.0, 0.0, 0.0, 0.0, 0.0, 0.0, 0.0, 0.0, 0.0, 0.0, 0.0, 0.0, 0.0, 0.0, 0.0, 0.0, 0.0, 0.0, 0.0, 0.0, 0.0, 0.0, 0.0, 0.0, 0.0, 0.0, 0.0, 0.0, 0.0, 0.0, 0.0, 5.0, 15.0, 22.0, 31.0, 40.0, 54.0, 65.0, 76.0, 92.0, 113.0, 132.0, 149.0, 170.0, 193.0, 218.0, 242.0, 255.0, 285.0, 314.0, 336.0, 360.0, 396.0, 437.0, 472.0, 502.0, 518.0, 528.0, 529.0, 523.0, 457.0, 378.0, 325.0, 153.0, 31.0, -89.0, -205.0, -321.0, -419.0, -508.0, -585.0, -599.0, -626.0, -635.0, -640.0, -644.0, -646.0, -651.0, -661.0, -677.0, -697.0, -706.0, -711.0, -711.0, -711.0, -711.0, -711.0]	[-490.0, -490.0, -490.0, -490.0, -490.0, -490.0, -490.0, -490.0, -490.0, -490.0, -490.0, -490.0, -490.0, -490.0, -490.0, -490.0, -490.0, -490.0, -490.0, -490.0, -490.0, -490.0, -490.0, -490.0, -490.0, -490.0, -490.0, -490.0, -490.0, -490.0, -490.0, -490.0, -490.0, -490.0, -490.0, -487.0, -470.0, -451.0, -430.0, -408.0, -376.0, -352.0, -327.0, -298.0, -263.0, -236.0, -205.0, -167.0, -130.0, -92.0, -52.0, -26.0, 26.0, 67.0, 97.0, 125.0, 165.0, 203.0, 234.0, 261.0, 282.0, 301.0, 322.0, 328.0, 356.0, 378.0, 388.0, 414.0, 418.0, 420.0, 420.0, 420.0, 420.0, 420.0, 420.0, 420.0, 420.0, 416.0, 415.0, 413.0, 412.0, 410.0, 409.0, 408.0, 408.0, 408.0, 408.0, 408.0, 408.0, 408.0, 408.0]	[0.01166130205092486, 0.01629899410181679, 0.021423427053377964, 0.040257160319015384, 0.05877857384621166, 0.07204141053080093, 0.09183975096675567, 0.1069567087397445, 0.12460294434276875, 0.14029812028456945, 0.1577695933810901, 0.1720642798463814, 0.19092054109205492, 0.20680618086771574, 0.22246961282507982, 0.24010902177542448, 0.25697053271869663, 0.27204414119478315, 0.28993135792552494, 0.3067334769293666, 0.321938839944778, 0.3399049046129221, 0.35790237193577923, 0.3718925893190317, 0.39117142086615786, 0.40669695429096464, 0.42334513209061697, 0.4400649898161646, 0.45832084624271374, 0.47177994942467194, 0.49117858886893373, 0.5067819462128682, 0.5225856660690624, 0.5400916137878085, 0.557027876668144, 0.5718413893628167, 0.5901467390795005, 0.6067116316116881, 0.6219774105848046, 0.6399629312363686, 0.6568479941633996, 0.6718908826587722, 0.6902245630190009, 0.7064849864691496, 0.7220275865402073, 0.7400438271724852, 0.756826490178355, 0.7718430960376281, 0.7901167017698754, 0.8068532848265022, 0.8221975703927455, 0.8398861313035013, 0.8567333062528633, 0.8716761841787957, 0.8901347924256697, 0.9064409545098897, 0.9220064238907071, 0.9396970327943563, 0.9567667568917386, 0.9716311282099923, 0.9901132884406252, 1.0064692851447035, 1.021896514648688, 1.039892616623547, 1.0567616369080497, 1.0716447815357242, 1.0896156248636544, 1.1065368690906325, 1.1220193945482606, 1.1396946434688289, 1.1564336158480728, 1.171728749468457, 1.1901088511076523, 1.2081650277104927, 1.222059330510092, 1.2411261942470446, 1.256795087538194, 1.2745631790457992, 1.2901382057607407, 1.3079428198980168, 1.3220265625423053, 1.340508040098939, 1.356688250292791, 1.3721021678065881, 1.3897224621032365, 1.409206093478133, 1.4217193627991946, 1.4410227703338023, 1.4563738825672772, 1.4733787533914438, 1.4899262379331049]
9	苹果	False	animate	inanimate	left	1.56	[0.0, 0.0, 0.0, 0.0, 0.0, 0.0, 0.0, 0.0, 0.0, 0.0, 0.0, 0.0, 0.0, 0.0, 0.0, 0.0, 0.0, 0.0, 0.0, 0.0, 0.0, 0.0, 0.0, 0.0, 0.0, 0.0, 0.0, 0.0, 0.0, 0.0, 0.0, 1.0, 4.0, 8.0, 12.0, 17.0, 24.0, 35.0, 39.0, 53.0, 58.0, 77.0, 82.0, 101.0, 111.0, 119.0, 123.0, 125.0, 125.0, 125.0, 125.0, 122.0, 118.0, 110.0, 95.0, 45.0, -10.0, -83.0, -171.0, -264.0, -349.0, -423.0, -502.0, -568.0, -627.0, -664.0, -676.0, -676.0, -674.0, -669.0, -655.0, -638.0, -615.0, -589.0, -560.0, -530.0, -508.0, -485.0, -468.0, -460.0, -467.0, -484.0, -586.0, -672.0, -736.0, -765.0, -777.0, -780.0, -781.0, -782.0, -782.0, -782.0, -782.0, -782.0]	[-490.0, -490.0, -490.0, -490.0, -490.0, -490.0, -490.0, -490.0, -490.0, -490.0, -490.0, -490.0, -490.0, -490.0, -490.0, -490.0, -490.0, -490.0, -490.0, -490.0, -490.0, -490.0, -490.0, -490.0, -490.0, -490.0, -490.0, -490.0, -490.0, -490.0, -490.0, -490.0, -489.0, -484.0, -480.0, -473.0, -465.0, -454.0, -449.0, -438.0, -433.0, -416.0, -411.0, -395.0, -380.0, -368.0, -358.0, -351.0, -344.0, -338.0, -334.0, -328.0, -321.0, -309.0, -294.0, -258.0, -219.0, -170.0, -121.0, -72.0, -25.0, 14.0, 51.0, 87.0, 121.0, 143.0, 153.0, 158.0, 162.0, 169.0, 178.0, 189.0, 199.0, 211.0, 223.0, 235.0, 250.0, 264.0, 275.0, 293.0, 316.0, 332.0, 406.0, 459.0, 498.0, 515.0, 522.0, 522.0, 523.0, 523.0, 523.0, 523.0, 523.0, 523.0]	[0.013985780053189956, 0.018341531002079137, 0.026054292407934554, 0.04442551940155681, 0.06127371835464146, 0.07621966827719007, 0.09459738059376832, 0.11105953187507112, 0.12648027605609968, 0.14423778622585814, 0.16172188863856718, 0.17624048958532512, 0.1948564523627283, 0.21107762253086548, 0.22664650523802266, 0.24439957809227053, 0.26166249669040553, 0.2762357109313598, 0.29485679369827267, 0.3109038840048015, 0.3265925746236462, 0.344344964803895, 0.3616232433996629, 0.37623571092262864, 0.39506500685820356, 0.4109666892909445, 0.42655332131835166, 0.4442016049288213, 0.4618331632227637, 0.4760643617337337, 0.49750622078136075, 0.5109670306264888, 0.5266437745740404, 0.544428591398173, 0.5644119343487546, 0.5760667510767234, 0.5977113619301235, 0.6108840866945684, 0.6294515801855596, 0.6444862766802544, 0.662799818397616, 0.6762032842816552, 0.6953367079549935, 0.7111090251710266, 0.7288532233651495, 0.7442302769050002, 0.7625233386206673, 0.7762357109313598, 0.794992985582212, 0.8108339107420761, 0.8266625479009235, 0.8443497434636811, 0.8612368543981574, 0.87624424425303, 0.8944390020624269, 0.9108386893931311, 0.9264075721148401, 0.9444050394231454, 0.9612542623799527, 0.9762654069054406, 0.9946178605750902, 1.0108223054121481, 1.0263782174733933, 1.0442551942105638, 1.0611375264707021, 1.0760189644497586, 1.0944413913966855, 1.1107707641203888, 1.1264939293760108, 1.144100570352748, 1.1611225078231655, 1.176048319088295, 1.1944475353811868, 1.2107878307724604, 1.2263649054802954, 1.2440944263507845, 1.2611733664525673, 1.2759367031831061, 1.2943854127661325, 1.3107301454874687, 1.3262106229522033, 1.3441302663268289, 1.3611545931344153, 1.3760394444252597, 1.3946243459067773, 1.4107366308162455, 1.4263570548209827, 1.4468110960297054, 1.4611149984993972, 1.4761623243248323, 1.494343428814318, 1.5124255467089824, 1.5264024521165993, 1.5455614757665899]
10	青蛙	True	animate	inanimate	left	1.36	[0.0, 0.0, 0.0, 0.0, 0.0, 0.0, 0.0, 0.0, 0.0, 0.0, 0.0, 0.0, 0.0, 0.0, 0.0, 0.0, 0.0, 0.0, 0.0, 0.0, 0.0, 0.0, 0.0, 0.0, 0.0, 0.0, 0.0, 0.0, 0.0, 0.0, 0.0, 0.0, 0.0, 0.0, 0.0, 0.0, 0.0, 1.0, 1.0, 1.0, 1.0, -3.0, -9.0, -20.0, -47.0, -61.0, -119.0, -165.0, -217.0, -279.0, -327.0, -385.0, -436.0, -495.0, -549.0, -599.0, -654.0, -668.0, -701.0, -724.0, -741.0, -752.0, -755.0, -755.0, -755.0, -757.0, -764.0, -776.0, -784.0, -786.0, -793.0, -795.0, -796.0, -796.0, -796.0, -791.0, -786.0, -780.0, -779.0, -778.0, -778.0, -778.0]	[-490.0, -490.0, -490.0, -490.0, -490.0, -490.0, -490.0, -490.0, -490.0, -490.0, -490.0, -490.0, -490.0, -490.0, -490.0, -490.0, -490.0, -490.0, -490.0, -490.0, -490.0, -490.0, -490.0, -490.0, -490.0, -490.0, -490.0, -490.0, -490.0, -490.0, -490.0, -490.0, -490.0, -490.0, -490.0, -490.0, -489.0, -486.0, -482.0, -476.0, -468.0, -455.0, -440.0, -419.0, -379.0, -362.0, -291.0, -240.0, -183.0, -115.0, -66.0, -8.0, 35.0, 87.0, 132.0, 172.0, 218.0, 228.0, 251.0, 266.0, 275.0, 280.0, 282.0, 282.0, 282.0, 284.0, 291.0, 304.0, 316.0, 323.0, 338.0, 348.0, 358.0, 371.0, 384.0, 397.0, 408.0, 421.0, 423.0, 426.0, 426.0, 426.0]	[0.010417484445497394, 0.014494024973828346, 0.018882543896324933, 0.037387232106993906, 0.05426205504045356, 0.06923121560248546, 0.08761780257918872, 0.1054251473833574, 0.11937781813321635, 0.13886008417466655, 0.1542241670686053, 0.17013574816519395, 0.18741539207985625, 0.20457454543793574, 0.21941024478292093, 0.23731930683425162, 0.25394324997614603, 0.2722103703854373, 0.2874986773385899, 0.305491365987109, 0.31925289024366066, 0.33858804174815305, 0.3540418952179607, 0.36942714075848926, 0.38734132281388156, 0.4048479532066267, 0.4192255835951073, 0.44024384833755903, 0.45410367650038097, 0.4694110981072299, 0.4872170775779523, 0.5042721243662527, 0.5193146715319017, 0.5375817919411929, 0.5540674952062545, 0.5694626393960789, 0.587218784246943, 0.6042984070081729, 0.6191969116189284, 0.6375527786294697, 0.6540449672174873, 0.66942031410872, 0.6873000215127831, 0.7042711003596196, 0.7192245596088469, 0.7375165973207913, 0.7538425567327067, 0.7692045916192001, 0.7874481600447325, 0.8043144496623427, 0.8191545863228384, 0.8374176107463427, 0.8540371165581746, 0.8694629807287129, 0.8870965870155487, 0.9041536817967426, 0.9189596851647366, 0.9374141974112717, 0.9537954527622787, 0.9693564848275855, 0.9871354989882093, 1.0041570951289032, 1.0189719731570221, 1.0374527680542087, 1.053744935474242, 1.0689987677906174, 1.0873327894805698, 1.1039741406129906, 1.119530735333683, 1.1370831043604994, 1.1541333724744618, 1.1692407729278784, 1.1874635200365447, 1.203941372645204, 1.2195102553523611, 1.2370540910487762, 1.2541934470937122, 1.2691615836520214, 1.2873914987721946, 1.3039789192844182, 1.3194798767217435, 1.3370339524117298]
11	钥匙	False	inanimate	animate	left	1.902	[0.0, 0.0, 0.0, 0.0, 0.0, 0.0, 0.0, 0.0, 0.0, 0.0, 0.0, 0.0, 0.0, 0.0, 0.0, 0.0, 0.0, 0.0, 0.0, 0.0, 0.0, 0.0, 0.0, 0.0, 0.0, 0.0, 0.0, 0.0, 0.0, 0.0, 0.0, 0.0, 2.0, 7.0, 13.0, 25.0, 36.0, 53.0, 61.0, 77.0, 92.0, 106.0, 122.0, 136.0, 149.0, 162.0, 177.0, 197.0, 216.0, 236.0, 256.0, 283.0, 300.0, 310.0, 319.0, 321.0, 322.0, 323.0, 323.0, 319.0, 300.0, 260.0, 211.0, 154.0, 66.0, -4.0, -43.0, -159.0, -221.0, -250.0, -262.0, -264.0, -261.0, -243.0, -208.0, -165.0, -49.0, 54.0, 149.0, 235.0, 313.0, 365.0, 403.0, 425.0, 437.0, 441.0, 443.0, 443.0, 443.0, 443.0, 440.0, 392.0, 280.0, 123.0, -50.0, -216.0, -346.0, -449.0, -574.0, -612.0, -691.0, -730.0, -744.0, -771.0, -784.0, -793.0, -799.0, -803.0, -806.0, -807.0, -809.0, -810.0, -810.0, -810.0, -810.0]	[-490.0, -490.0, -490.0, -490.0, -490.0, -490.0, -490.0, -490.0, -490.0, -490.0, -490.0, -490.0, -490.0, -490.0, -490.0, -490.0, -490.0, -490.0, -490.0, -490.0, -490.0, -490.0, -490.0, -490.0, -490.0, -490.0, -490.0, -490.0, -490.0, -490.0, -490.0, -490.0, -481.0, -461.0, -438.0, -415.0, -388.0, -348.0, -334.0, -299.0, -277.0, -257.0, -240.0, -223.0, -209.0, -194.0, -179.0, -164.0, -150.0, -134.0, -121.0, -102.0, -90.0, -80.0, -71.0, -68.0, -64.0, -62.0, -60.0, -54.0, -43.0, -22.0, 2.0, 29.0, 68.0, 98.0, 115.0, 159.0, 185.0, 198.0, 203.0, 206.0, 208.0, 212.0, 220.0, 223.0, 237.0, 252.0, 266.0, 284.0, 306.0, 324.0, 339.0, 350.0, 359.0, 363.0, 367.0, 367.0, 367.0, 367.0, 374.0, 392.0, 433.0, 486.0, 532.0, 540.0, 540.0, 540.0, 540.0, 540.0, 540.0, 534.0, 529.0, 517.0, 505.0, 495.0, 489.0, 483.0, 479.0, 477.0, 473.0, 472.0, 470.0, 469.0, 469.0]	[0.010415436438051984, 0.014640456836787052, 0.020055364206200466, 0.03636391562758945, 0.05275438698299695, 0.06822530711360741, 0.086109451847733, 0.10297915477713104, 0.11802067795360927, 0.1363106676726602, 0.1527902269444894, 0.16813314719183836, 0.18600705193239264, 0.202991101439693, 0.2178063207975356, 0.23633524365141056, 0.25280456292966846, 0.2681345125165535, 0.28624769172165543, 0.3030405947356485, 0.31777560082264245, 0.3363011103501776, 0.3526451603975147, 0.3681881018128479, 0.38595380398328416, 0.4029323921567993, 0.4176428222708637, 0.4362755103647942, 0.45259361910575535, 0.4679457553429529, 0.4859227426786674, 0.5029733521223534, 0.5177445395238465, 0.5363349023245974, 0.5550385876995279, 0.5680676112388028, 0.587839669038658, 0.6029682321241125, 0.6206055930815637, 0.6362314784055343, 0.6538657673663693, 0.6680884325614898, 0.6872522348712664, 0.7029559441434685, 0.720680345009896, 0.7361980277637485, 0.7538039860810386, 0.7680959418794373, 0.787118432315765, 0.802881192197674, 0.8202270547335502, 0.8360946038592374, 0.8535077090054983, 0.8681539685057942, 0.8869238724873867, 0.9027764029597165, 0.9188118879392277, 0.9360898251907201, 0.9529731814545812, 0.9680925285501871, 0.9859589239786146, 1.0026333844143664, 1.017951728674234, 1.035889462698833, 1.0540296072140336, 1.0679880806419533, 1.0895794435491553, 1.1025402004888747, 1.11824937108031, 1.1360730998712825, 1.1562400800030446, 1.1679334673535777, 1.186140854479163, 1.2024620352312922, 1.2180920165556017, 1.235818124099751, 1.252818557593855, 1.267937904689461, 1.2861903477751184, 1.3027637736377073, 1.3180868965573609, 1.3358959480246995, 1.3529383654822595, 1.3679071847145678, 1.3861528011475457, 1.402667859045323, 1.4180937232158612, 1.4358085667627165, 1.4528161682537757, 1.467769627503003, 1.4861937611130998, 1.5025794537941692, 1.518155163168558, 1.5358471374056535, 1.5529055975202937, 1.5676870249008061, 1.5861439264845103, 1.602466472555534, 1.6178264594491338, 1.6357720441301353, 1.6529219814983662, 1.6677037502231542, 1.685734668164514, 1.7028620775527088, 1.7176793449034449, 1.7362720970413648, 1.7523877952917246, 1.7681396325206151, 1.7859998839412583, 1.8030443493917119, 1.8179012113832869, 1.8369155098189367, 1.8524294379167259, 1.868309275028878, 1.886100918520242]
12	农民	True	animate	inanimate	left	1.443	[0.0, 0.0, 0.0, 0.0, 0.0, 0.0, 0.0, 0.0, 0.0, 0.0, 0.0, 0.0, 0.0, 0.0, 0.0, 0.0, 0.0, -1.0, -3.0, -7.0, -8.0, -8.0, -11.0, -13.0, -16.0, -20.0, -27.0, -38.0, -50.0, -53.0, -57.0, -60.0, -60.0, -60.0, -60.0, -60.0, -60.0, -58.0, -49.0, -34.0, -16.0, 0.0, 16.0, 43.0, 66.0, 93.0, 127.0, 150.0, 168.0, 179.0, 188.0, 189.0, 189.0, 179.0, 152.0, 85.0, 22.0, -48.0, -120.0, -195.0, -273.0, -355.0, -434.0, -504.0, -589.0, -616.0, -640.0, -672.0, -684.0, -695.0, -707.0, -721.0, -732.0, -740.0, -747.0, -754.0, -761.0, -770.0, -778.0, -787.0, -796.0, -800.0, -805.0, -806.0, -808.0, -808.0, -808.0]	[-490.0, -490.0, -490.0, -490.0, -490.0, -490.0, -490.0, -490.0, -490.0, -490.0, -490.0, -490.0, -490.0, -490.0, -490.0, -490.0, -490.0, -490.0, -490.0, -490.0, -491.0, -491.0, -493.0, -493.0, -495.0, -498.0, -501.0, -506.0, -509.0, -509.0, -509.0, -509.0, -509.0, -509.0, -509.0, -509.0, -509.0, -503.0, -490.0, -472.0, -452.0, -433.0, -416.0, -385.0, -364.0, -341.0, -312.0, -292.0, -273.0, -256.0, -240.0, -228.0, -217.0, -204.0, -187.0, -162.0, -143.0, -124.0, -110.0, -92.0, -72.0, -59.0, -35.0, -7.0, 34.0, 47.0, 62.0, 87.0, 100.0, 115.0, 133.0, 157.0, 177.0, 199.0, 222.0, 239.0, 264.0, 289.0, 309.0, 344.0, 370.0, 381.0, 407.0, 417.0, 420.0, 420.0, 420.0]	[0.010492919042007998, 0.014461256985669024, 0.01914912498614285, 0.03782959972159006, 0.05472729196480941, 0.06972819649672601, 0.08771064515167382, 0.10434278029424604, 0.12183063736301847, 0.13785007970000152, 0.15480067857424729, 0.16978144444874488, 0.18771781313989777, 0.2043397082888987, 0.22031068133946974, 0.23773436779447366, 0.25475596393516753, 0.26967358321417123, 0.2875000426574843, 0.30426120170159265, 0.3195768152945675, 0.3375432212924352, 0.3541637511079898, 0.36937252746429294, 0.3878362557152286, 0.4044455215334892, 0.41952868732914794, 0.43760158924851567, 0.4543391962943133, 0.46973946048819926, 0.48770552515634336, 0.5044182148994878, 0.5195491673221113, 0.5375152319902554, 0.5545982680778252, 0.5695356846554205, 0.5881574500963325, 0.6041697244363604, 0.6196966231946135, 0.6378203837230103, 0.6545235161320306, 0.6695588953007245, 0.6878004157479154, 0.7044543961965246, 0.71965327388898, 0.7380842341663083, 0.7545887107553426, 0.7693110875261482, 0.7878683410235681, 0.8041205724875908, 0.8196839938609628, 0.8374401387118269, 0.8544166788924485, 0.8692551089043263, 0.8877710610977374, 0.9041089671518421, 0.9196621485461947, 0.9374735893507022, 0.95449040683161, 0.9692919728695415, 0.9879400209611049, 1.0041615324444138, 1.0197229058394441, 1.0377104744839016, 1.054446716196253, 1.0693776474654442, 1.0878031464089872, 1.105962405577884, 1.11965907656122, 1.1390979933057679, 1.154454566858476, 1.171912045305362, 1.187829770380631, 1.205137062279391, 1.219681604532525, 1.2381197328068083, 1.2543869829241885, 1.2698951083584689, 1.2876259945624042, 1.3045861507562222, 1.319700036518043, 1.3414501192892203, 1.354317009652732, 1.3695090606779559, 1.3874099307431607, 1.404219559059129, 1.4196850178705063]
13	军队	True	inanimate	animate	right	1.721	[0.0, 0.0, 0.0, 0.0, 0.0, 0.0, 0.0, 0.0, 0.0, 0.0, 0.0, 0.0, 0.0, 0.0, 0.0, 0.0, 0.0, 0.0, 0.0, 0.0, 0.0, 0.0, 0.0, 0.0, 0.0, 0.0, 0.0, 0.0, 0.0, 0.0, 0.0, -7.0, -18.0, -30.0, -38.0, -45.0, -49.0, -50.0, -50.0, -46.0, -40.0, -32.0, -25.0, -20.0, -16.0, -16.0, -17.0, -37.0, -44.0, -80.0, -125.0, -180.0, -239.0, -303.0, -347.0, -388.0, -424.0, -459.0, -496.0, -545.0, -559.0, -590.0, -603.0, -609.0, -610.0, -610.0, -610.0, -597.0, -568.0, -522.0, -466.0, -357.0, -317.0, -169.0, -71.0, 31.0, 129.0, 227.0, 317.0, 395.0, 466.0, 515.0, 546.0, 575.0, 582.0, 597.0, 600.0, 600.0, 601.0, 601.0, 601.0, 601.0, 605.0, 612.0, 626.0, 650.0, 678.0, 713.0, 731.0, 731.0, 734.0, 734.0, 734.0]	[-490.0, -490.0, -490.0, -490.0, -490.0, -490.0, -490.0, -490.0, -490.0, -490.0, -490.0, -490.0, -490.0, -490.0, -490.0, -490.0, -490.0, -490.0, -490.0, -490.0, -490.0, -490.0, -490.0, -490.0, -490.0, -490.0, -490.0, -490.0, -490.0, -490.0, -490.0, -470.0, -449.0, -421.0, -393.0, -366.0, -339.0, -304.0, -279.0, -256.0, -231.0, -206.0, -184.0, -162.0, -143.0, -127.0, -112.0, -84.0, -76.0, -43.0, -9.0, 30.0, 69.0, 104.0, 134.0, 163.0, 187.0, 210.0, 231.0, 258.0, 266.0, 284.0, 291.0, 295.0, 295.0, 295.0, 296.0, 302.0, 307.0, 311.0, 318.0, 326.0, 326.0, 334.0, 336.0, 345.0, 361.0, 374.0, 389.0, 400.0, 410.0, 416.0, 422.0, 433.0, 437.0, 447.0, 449.0, 450.0, 451.0, 451.0, 451.0, 451.0, 451.0, 451.0, 450.0, 443.0, 435.0, 428.0, 426.0, 426.0, 425.0, 425.0, 425.0]	[0.014590622202376835, 0.018819738586898893, 0.026187412295257673, 0.045115694811102, 0.06086582537682261, 0.07636678281414788, 0.0944226180727128, 0.1124194027215708, 0.1259389218466822, 0.14474876179883722, 0.1610443425597623, 0.17631490019266494, 0.19437790344818495, 0.211139403807465, 0.2261611296562478, 0.24452996731270105, 0.2612218357389793, 0.2764033054554602, 0.2943103194993455, 0.31121586241351906, 0.3262403189291945, 0.3442548528837506, 0.3610641398699954, 0.37637326814001426, 0.39435981279530097, 0.4112243957351893, 0.4259279991965741, 0.44454464463342447, 0.46087094537506346, 0.47601043111353647, 0.49457109795184806, 0.5108004601061111, 0.5263505694892956, 0.544331652825349, 0.5613324276491767, 0.5762131829396822, 0.5945028313435614, 0.6110243745788466, 0.6264864200493321, 0.6443497434665915, 0.6614518942078575, 0.6761882656282978, 0.6944123780849623, 0.7107758841157192, 0.7263864094711607, 0.7442732848721789, 0.7610074785916368, 0.7761643723206362, 0.7943256794969784, 0.8107321934949141, 0.8263744628056884, 0.844267482199939, 0.8613017076713732, 0.8761653963156277, 0.8945468633028213, 0.9107325348304585, 0.9264676467282698, 0.9442452955554472, 0.9643760943872621, 0.976227177598048, 0.9949301803135313, 1.0109595212998101, 1.026555369317066, 1.044249391561607, 1.0641009799437597, 1.0761957749637077, 1.0945775832806248, 1.1106789455370745, 1.126463892069296, 1.144285572852823, 1.1644061316910665, 1.1762855455453973, 1.1975362580851652, 1.2106652922084322, 1.229166908422485, 1.2440848690312123, 1.2627619304257678, 1.27621454828477, 1.2955507237784332, 1.3108619000413455, 1.3274295232404256, 1.3442364209040534, 1.362331168129458, 1.3762285429402255, 1.3975321620819159, 1.4108898893609876, 1.4263133641943568, 1.4442452955554472, 1.461203062426648, 1.4761954336281633, 1.4944366127310786, 1.5106533455546014, 1.526363881479483, 1.544245295561268, 1.5610692598711466, 1.5759756151528563, 1.594461188709829, 1.6146520621405216, 1.6260010444675572, 1.644543961971067, 1.6611849717737641, 1.6759759564884007, 1.6944983940047678]
14	观众	True	inanimate	animate	right	1.132	[0.0, 0.0, 0.0, 0.0, 0.0, 0.0, 0.0, 0.0, 0.0, 0.0, 0.0, 0.0, 0.0, 0.0, 0.0, 0.0, 0.0, 0.0, 0.0, 0.0, 0.0, 0.0, 0.0, 0.0, 0.0, 0.0, 0.0, 0.0, 0.0, 0.0, 0.0, 0.0, 0.0, 0.0, -1.0, 6.0, 11.0, 30.0, 48.0, 67.0, 93.0, 121.0, 147.0, 176.0, 215.0, 258.0, 319.0, 407.0, 437.0, 516.0, 568.0, 610.0, 654.0, 693.0, 725.0, 764.0, 775.0, 794.0, 810.0, 826.0, 830.0, 836.0, 839.0, 842.0, 844.0, 844.0, 845.0, 845.0, 845.0]	[-490.0, -490.0, -490.0, -490.0, -490.0, -490.0, -490.0, -490.0, -490.0, -490.0, -490.0, -490.0, -490.0, -490.0, -490.0, -490.0, -490.0, -490.0, -490.0, -490.0, -490.0, -490.0, -490.0, -490.0, -490.0, -490.0, -490.0, -490.0, -490.0, -490.0, -490.0, -490.0, -490.0, -490.0, -483.0, -464.0, -455.0, -426.0, -401.0, -373.0, -337.0, -298.0, -262.0, -221.0, -178.0, -133.0, -80.0, -5.0, 18.0, 85.0, 133.0, 184.0, 233.0, 276.0, 310.0, 342.0, 352.0, 368.0, 382.0, 396.0, 400.0, 407.0, 413.0, 417.0, 425.0, 427.0, 430.0, 430.0, 430.0]	[0.012162720289779827, 0.016980636180960573, 0.022487020818516612, 0.04127467412035912, 0.05775969472597353, 0.07304766033485066, 0.09138270602852572, 0.10805033981159795, 0.12533954104583245, 0.1413006154325558, 0.15875809386488982, 0.17305346300418023, 0.1923756438482087, 0.20792780123883858, 0.22542965297179762, 0.24117637021117844, 0.25937420000263955, 0.2730254736961797, 0.29231693455949426, 0.30803634514450096, 0.3255798395111924, 0.3411889995331876, 0.35885639778280165, 0.37310056696878746, 0.39198686550662387, 0.4078393959789537, 0.42388989962637424, 0.44114496756810695, 0.4580464144819416, 0.4731384549231734, 0.4908891384548042, 0.5075673535466194, 0.5255859835015144, 0.54108182094933, 0.5583426915545715, 0.5729244391113752, 0.5915714631992159, 0.6077404093957739, 0.624002880853368, 0.6410029730177484, 0.6582798862800701, 0.6729101031232858, 0.6913533513870789, 0.7076711187983165, 0.7231857295555528, 0.7409794210398104, 0.7578545853029937, 0.772940481765545, 0.7911280715779867, 0.8076666814595228, 0.8230543163372204, 0.8409773730381858, 0.8580232038220856, 0.8729817830608226, 0.8934894135600189, 0.9076178708346561, 0.9231232656165957, 0.9409589410497574, 0.9579406012344407, 0.972745580598712, 0.9911185142555041, 1.0078380306513282, 1.0229973137174966, 1.0452764627116267, 1.05759790285083, 1.0728333031875081, 1.0912594848050503, 1.1074478869850282, 1.1231116602866678]
15	海鸥	True	inanimate	animate	right	1.322	[0.0, 0.0, 0.0, 0.0, 0.0, 0.0, 0.0, 0.0, 0.0, 0.0, 0.0, 0.0, 0.0, 0.0, 0.0, 0.0, 0.0, 0.0, 0.0, 0.0, 0.0, 0.0, 0.0, 0.0, 0.0, 0.0, 0.0, 0.0, 0.0, 0.0, 3.0, 5.0, 7.0, 8.0, 12.0, 15.0, 19.0, 25.0, 39.0, 45.0, 63.0, 76.0, 90.0, 108.0, 128.0, 154.0, 180.0, 222.0, 238.0, 265.0, 315.0, 331.0, 382.0, 419.0, 456.0, 483.0, 509.0, 531.0, 546.0, 563.0, 568.0, 583.0, 589.0, 592.0, 599.0, 603.0, 605.0, 606.0, 607.0, 609.0, 612.0, 625.0, 632.0, 657.0, 666.0, 683.0, 698.0, 703.0, 703.0, 703.0]	[-490.0, -490.0, -490.0, -490.0, -490.0, -490.0, -490.0, -490.0, -490.0, -490.0, -490.0, -490.0, -490.0, -490.0, -490.0, -490.0, -490.0, -490.0, -490.0, -490.0, -490.0, -490.0, -490.0, -490.0, -490.0, -490.0, -490.0, -490.0, -490.0, -490.0, -481.0, -478.0, -473.0, -468.0, -461.0, -455.0, -447.0, -437.0, -418.0, -411.0, -382.0, -358.0, -341.0, -312.0, -283.0, -246.0, -210.0, -152.0, -128.0, -87.0, -25.0, -3.0, 58.0, 103.0, 148.0, 183.0, 209.0, 240.0, 262.0, 291.0, 299.0, 324.0, 339.0, 346.0, 362.0, 370.0, 375.0, 377.0, 379.0, 381.0, 382.0, 386.0, 387.0, 392.0, 395.0, 398.0, 401.0, 403.0, 403.0, 403.0]	[0.015924210398225114, 0.020159812120255083, 0.030143803596729413, 0.0487457717244979, 0.0652311336598359, 0.08057814989297185, 0.09837593737756833, 0.11545180546818301, 0.1304240380268311, 0.1483798627014039, 0.16516116038837936, 0.18024261952086817, 0.1985042785963742, 0.21539480285719037, 0.23019432088767644, 0.24872085441893432, 0.2650816297827987, 0.2801869822287699, 0.2986776757898042, 0.3151913683541352, 0.33064112583815586, 0.34858397986681666, 0.3654284241638379, 0.3803934887255309, 0.39867357978073414, 0.41523642432002816, 0.4306404431699775, 0.4485017185943434, 0.4654983974323841, 0.48038597939012107, 0.4986868917767424, 0.5152374483150197, 0.5306933497922728, 0.5483542627334828, 0.5653519655606942, 0.5804013393790228, 0.5985670838854276, 0.6151865896972595, 0.6306585338315926, 0.6483907853689743, 0.6653768828691682, 0.6803183954471024, 0.6986261345009552, 0.7152156030060723, 0.7307066617795499, 0.7483180814306252, 0.7652823336102301, 0.780375056740013, 0.7986158944986528, 0.8152531496452866, 0.8306380538415397, 0.8483788387093227, 0.8653628882166231, 0.8803528700809693, 0.898639787817956, 0.9149384405754972, 0.9306390778365312, 0.9482310415041866, 0.9653727868717397, 0.9802863101504045, 0.9985844918701332, 1.015018312507891, 1.0305564752488863, 1.0481883748725522, 1.0653034962597303, 1.080137147611822, 1.0986326198180905, 1.1150742911268026, 1.1306455631711287, 1.1482286521641072, 1.165250248304801, 1.1803306834335672, 1.1985285132395802, 1.2151872723625274, 1.2305271205987083, 1.2484075106767705, 1.2658148131595226, 1.2804139687068528, 1.2994074458256364, 1.315165768377483]
16	枕头	False	animate	inanimate	right	1.382	[0.0, 0.0, 0.0, 0.0, 0.0, 0.0, 0.0, 0.0, 0.0, 0.0, 0.0, 0.0, 0.0, 0.0, 0.0, 0.0, 0.0, 0.0, 0.0, 0.0, 0.0, 0.0, 0.0, 0.0, 0.0, 0.0, 0.0, 0.0, 0.0, 0.0, 0.0, 0.0, 0.0, 0.0, 0.0, 0.0, 0.0, 0.0, 0.0, 0.0, 0.0, 0.0, 0.0, 0.0, 0.0, 0.0, 0.0, 4.0, 10.0, 21.0, 26.0, 32.0, 42.0, 55.0, 64.0, 88.0, 111.0, 143.0, 185.0, 230.0, 282.0, 336.0, 397.0, 453.0, 514.0, 585.0, 601.0, 640.0, 662.0, 675.0, 685.0, 689.0, 691.0, 692.0, 694.0, 696.0, 700.0, 709.0, 714.0, 724.0, 727.0, 730.0, 731.0]	[-490.0, -490.0, -490.0, -490.0, -490.0, -490.0, -490.0, -490.0, -490.0, -490.0, -490.0, -490.0, -490.0, -490.0, -490.0, -490.0, -490.0, -490.0, -490.0, -490.0, -490.0, -490.0, -490.0, -490.0, -490.0, -490.0, -490.0, -490.0, -490.0, -490.0, -490.0, -490.0, -490.0, -490.0, -490.0, -490.0, -490.0, -490.0, -490.0, -490.0, -490.0, -490.0, -490.0, -490.0, -490.0, -490.0, -489.0, -480.0, -468.0, -444.0, -436.0, -417.0, -399.0, -366.0, -351.0, -311.0, -280.0, -240.0, -191.0, -138.0, -79.0, -21.0, 42.0, 101.0, 162.0, 242.0, 259.0, 315.0, 345.0, 368.0, 385.0, 396.0, 402.0, 405.0, 406.0, 410.0, 415.0, 425.0, 429.0, 438.0, 442.0, 446.0, 446.0]	[0.014047220000065863, 0.018374640319962054, 0.024929600054747425, 0.04367219739651773, 0.060156193998409435, 0.07528919441392645, 0.09327266707259696, 0.11038369245943613, 0.12540746631566435, 0.14365137607092038, 0.16004116475232877, 0.17544689027999993, 0.19331089637125842, 0.2103434151649708, 0.225287317080074, 0.24358652280352544, 0.26026610322878696, 0.2754615675949026, 0.2936030774581013, 0.31031918051303364, 0.3250313173048198, 0.3436035894555971, 0.3600357034301851, 0.37544177028757986, 0.39323580310156103, 0.4103000658651581, 0.42504360528255347, 0.44360461345058866, 0.45998109014180955, 0.4753304957121145, 0.4933344483433757, 0.510269345890265, 0.5250077653181506, 0.5436066614493029, 0.5599906474672025, 0.575355754350312, 0.59337199498259, 0.6103181565267732, 0.6250374613009626, 0.6436203147750348, 0.6599172608694062, 0.6753851090034004, 0.6932791524013737, 0.7102150739374338, 0.7250405332888477, 0.7435643361532129, 0.7600718847243115, 0.7755998074862873, 0.7963753844232997, 0.8102645672333892, 0.825262058438966, 0.8435872054687934, 0.8615737501095282, 0.8754025169764645, 0.8946728152077412, 0.910255692579085, 0.9280725947028259, 0.9435540961567312, 0.9614013769314624, 0.9755533861898584, 0.99448235136515, 1.010144076673896, 1.0275407978188014, 1.043536346842302, 1.0605821776262019, 1.0754253862978658, 1.0931098512082826, 1.1097675863275072, 1.1252272424608236, 1.1431984271330293, 1.1615577074699104, 1.1754141223063925, 1.1948677163745742, 1.2099583914969116, 1.2256617594248382, 1.2433694349892903, 1.2604910417139763, 1.2750157866394147, 1.293544368163566, 1.3097836289816769, 1.3254255569627276, 1.343216176450369, 1.3603074045240646]
17	番茄	False	animate	inanimate	left	1.73	[0.0, 0.0, 0.0, 0.0, 0.0, 0.0, 0.0, 0.0, 0.0, 0.0, 0.0, 0.0, 0.0, 0.0, 0.0, 0.0, 0.0, 0.0, 0.0, 0.0, 0.0, 0.0, 0.0, 0.0, 0.0, 0.0, 0.0, 0.0, 0.0, 0.0, 0.0, 0.0, 0.0, 0.0, 4.0, 7.0, 9.0, 16.0, 24.0, 29.0, 33.0, 40.0, 45.0, 54.0, 60.0, 68.0, 71.0, 75.0, 76.0, 86.0, 95.0, 107.0, 123.0, 143.0, 171.0, 216.0, 233.0, 277.0, 289.0, 311.0, 316.0, 324.0, 325.0, 329.0, 332.0, 337.0, 343.0, 350.0, 357.0, 365.0, 366.0, 359.0, 351.0, 315.0, 276.0, 214.0, 131.0, 53.0, -17.0, -79.0, -123.0, -168.0, -215.0, -251.0, -276.0, -358.0, -418.0, -478.0, -539.0, -593.0, -638.0, -663.0, -678.0, -690.0, -700.0, -719.0, -730.0, -763.0, -776.0, -780.0, -780.0, -780.0, -780.0, -780.0]	[-490.0, -490.0, -490.0, -490.0, -490.0, -490.0, -490.0, -490.0, -490.0, -490.0, -490.0, -490.0, -490.0, -490.0, -490.0, -490.0, -490.0, -490.0, -490.0, -490.0, -490.0, -490.0, -490.0, -490.0, -490.0, -490.0, -490.0, -490.0, -490.0, -490.0, -490.0, -490.0, -490.0, -490.0, -486.0, -479.0, -476.0, -463.0, -450.0, -438.0, -427.0, -415.0, -401.0, -386.0, -371.0, -352.0, -339.0, -325.0, -320.0, -294.0, -275.0, -256.0, -232.0, -206.0, -173.0, -121.0, -101.0, -49.0, -34.0, 0.0, 8.0, 28.0, 38.0, 46.0, 53.0, 60.0, 67.0, 77.0, 88.0, 103.0, 108.0, 129.0, 137.0, 159.0, 181.0, 207.0, 241.0, 272.0, 292.0, 307.0, 316.0, 323.0, 330.0, 330.0, 331.0, 331.0, 335.0, 335.0, 338.0, 342.0, 345.0, 346.0, 348.0, 348.0, 349.0, 351.0, 353.0, 359.0, 361.0, 361.0, 361.0, 361.0, 361.0, 361.0]	[0.0120364270551363, 0.016745116372476332, 0.02234195427445229, 0.04120947950286791, 0.0576839187706355, 0.07297461506095715, 0.09078503186174203, 0.1077803453663364, 0.1227423379314132, 0.14117875952797476, 0.15770371608959977, 0.1730295696761459, 0.19103761830774602, 0.20782096398761496, 0.22287409247655887, 0.24118251418985892, 0.2575105215946678, 0.27295891374524217, 0.2910208929970395, 0.30789537460077554, 0.3225488020980265, 0.3412593141256366, 0.357691086770501, 0.3729227324365638, 0.3952701480302494, 0.40776088937127497, 0.42256279673893005, 0.44112585289985873, 0.45752212691877503, 0.4728401298489189, 0.4909772023675032, 0.5078011666773818, 0.522565868741367, 0.5411111755820457, 0.5574330389936222, 0.5729411644279025, 0.5935559734934941, 0.6077963880088646, 0.6225836180674378, 0.640788615855854, 0.6578515133005567, 0.6725711594044697, 0.69131375674624, 0.7076564414601307, 0.7230430523341056, 0.740977373032365, 0.7582365369744366, 0.772766060574213, 0.7913277514016954, 0.8076704361155862, 0.8233277240942698, 0.8409886370209279, 0.8607968761207303, 0.872850711166393, 0.8941055196919478, 0.9076625854650047, 0.9232246415194822, 0.9409309517359361, 0.9603176445234567, 0.9725493140867911, 0.9938276745961048, 1.0073721110384213, 1.0256907727452926, 1.0409237837448018, 1.0588523017795524, 1.0727476285828743, 1.0920732227677945, 1.1075345855642809, 1.1254064423264936, 1.1408889677695697, 1.158518136726343, 1.1727455805958016, 1.1914502899599029, 1.2075687188771553, 1.2230956176208565, 1.2408763384446502, 1.2580337851395598, 1.27256023674272, 1.2910065570031293, 1.3075199082522886, 1.322935191099532, 1.3408773624541936, 1.35771293209109, 1.3725557994184783, 1.391050247635576, 1.4075185429101111, 1.4229532817407744, 1.4408633677958278, 1.4580361744738184, 1.4728500284982147, 1.4910256716539152, 1.5075243455794407, 1.5229112977831392, 1.5409043277613819, 1.5577003027574392, 1.5729015697870636, 1.5911089569272008, 1.6075813482020749, 1.623001751038828, 1.6407036239397712, 1.6577829053567257, 1.672572524737916, 1.6909993890149053, 1.707330127072055]
18	骆驼	True	inanimate	animate	right	1.696	[0.0, 0.0, 0.0, 0.0, 0.0, 0.0, 0.0, 0.0, 0.0, 0.0, 0.0, 0.0, 0.0, 0.0, 0.0, 0.0, 0.0, 0.0, 0.0, 0.0, 0.0, 0.0, 0.0, 0.0, 0.0, 0.0, 0.0, 0.0, 0.0, 0.0, 0.0, 0.0, 0.0, 0.0, 0.0, 0.0, 0.0, 0.0, 0.0, 0.0, 0.0, 0.0, 0.0, 0.0, 0.0, 0.0, 0.0, 0.0, 0.0, 0.0, 0.0, -3.0, -5.0, -9.0, -10.0, -16.0, -25.0, -45.0, -81.0, -128.0, -165.0, -209.0, -275.0, -298.0, -344.0, -357.0, -360.0, -361.0, -354.0, -330.0, -279.0, -209.0, -119.0, -22.0, 79.0, 180.0, 307.0, 375.0, 406.0, 473.0, 504.0, 525.0, 536.0, 545.0, 549.0, 555.0, 568.0, 571.0, 579.0, 581.0, 582.0, 583.0, 587.0, 603.0, 631.0, 656.0, 672.0, 681.0, 687.0, 688.0, 690.0, 690.0]	[-490.0, -490.0, -490.0, -490.0, -490.0, -490.0, -490.0, -490.0, -490.0, -490.0, -490.0, -490.0, -490.0, -490.0, -490.0, -490.0, -490.0, -490.0, -490.0, -490.0, -490.0, -490.0, -490.0, -490.0, -490.0, -490.0, -490.0, -490.0, -490.0, -490.0, -490.0, -490.0, -490.0, -490.0, -490.0, -490.0, -490.0, -490.0, -490.0, -490.0, -490.0, -490.0, -490.0, -490.0, -490.0, -490.0, -490.0, -490.0, -490.0, -490.0, -490.0, -484.0, -458.0, -438.0, -427.0, -389.0, -356.0, -312.0, -253.0, -193.0, -141.0, -89.0, -26.0, -2.0, 38.0, 57.0, 63.0, 71.0, 77.0, 86.0, 96.0, 105.0, 118.0, 131.0, 149.0, 170.0, 206.0, 236.0, 250.0, 292.0, 315.0, 334.0, 354.0, 374.0, 390.0, 401.0, 413.0, 416.0, 422.0, 423.0, 423.0, 424.0, 424.0, 424.0, 424.0, 421.0, 421.0, 421.0, 421.0, 421.0, 421.0, 421.0]	[0.00990104753873311, 0.01761551562231034, 0.021648024179739878, 0.03647348353115376, 0.052785106949158944, 0.06792868868797086, 0.08807041017280426, 0.10279073893616442, 0.12079127824108582, 0.1363492383097764, 0.15370158616860863, 0.16811778719420545, 0.18688257118628826, 0.2030228454095777, 0.21833914167655166, 0.23614887580333743, 0.2537121674831724, 0.2682287204370368, 0.2869156804808881, 0.30304776271805167, 0.31871870401664637, 0.336101430511917, 0.3528178749111248, 0.36815362716151867, 0.3868480965466006, 0.402924541500397, 0.4186610187316546, 0.43614034248457756, 0.4534967863437487, 0.4678634940792108, 0.48621424108569045, 0.5028170215809951, 0.5182282084278995, 0.5362953076837584, 0.5532264505745843, 0.5679058193782112, 0.5864903795154532, 0.602976765454514, 0.6183388003410073, 0.636146145145176, 0.6531486266321735, 0.6678587154165143, 0.6865852701012045, 0.7030214800761314, 0.7182022671186132, 0.7361666251235874, 0.7528431335667847, 0.7683686669770395, 0.7861299318174133, 0.8031245626625605, 0.8180947472137632, 0.8363516276294831, 0.8530684133729665, 0.8682915257086279, 0.8862685130443424, 0.9030853093572659, 0.9178745874087326, 0.9362997450080002, 0.9529352934769122, 0.968421232275432, 0.986049035898759, 1.0030853093630867, 1.017934662013431, 1.0367544006294338, 1.0527209363353904, 1.0683386296732351, 1.0860818038636353, 1.1031443599786144, 1.1179390993493143, 1.1366178674070397, 1.1528339175711153, 1.168367642982048, 1.185995446605375, 1.2031047653435962, 1.2178517180873314, 1.2363601609686157, 1.2528632722096518, 1.2682795790606178, 1.2859715532977134, 1.3029924667644082, 1.317921350026154, 1.336417846250697, 1.352907304171822, 1.368376176309539, 1.3861504118103767, 1.4032918158482062, 1.4179199846985284, 1.4363591369619826, 1.4528970641840715, 1.4686591414065333, 1.4859237666678382, 1.5034498530440032, 1.5181555044982815, 1.5389123081113212, 1.552697043021908, 1.5684761868906207, 1.5859251319925534, 1.6054698619846022, 1.6181312698463444, 1.638713652282604, 1.6528660028707236, 1.6713635230989894]
19	啤酒	False	inanimate	animate	left	1.451	[0.0, 0.0, 0.0, 0.0, 0.0, 0.0, 0.0, 0.0, 0.0, 0.0, 0.0, 0.0, 0.0, 0.0, 0.0, 0.0, 0.0, 0.0, 0.0, 0.0, 0.0, 0.0, 0.0, 0.0, 0.0, 0.0, 0.0, 0.0, 0.0, 0.0, 0.0, 0.0, 0.0, 0.0, 0.0, 0.0, 0.0, 0.0, 0.0, 0.0, 0.0, 0.0, 0.0, 2.0, 6.0, 14.0, 27.0, 43.0, 64.0, 99.0, 141.0, 191.0, 243.0, 301.0, 359.0, 410.0, 466.0, 478.0, 490.0, 483.0, 448.0, 387.0, 317.0, 236.0, 156.0, 65.0, -36.0, -152.0, -333.0, -390.0, -558.0, -650.0, -723.0, -770.0, -792.0, -801.0, -802.0, -803.0, -807.0, -810.0, -814.0, -814.0, -814.0, -816.0, -818.0, -818.0, -819.0, -819.0]	[-490.0, -490.0, -490.0, -490.0, -490.0, -490.0, -490.0, -490.0, -490.0, -490.0, -490.0, -490.0, -490.0, -490.0, -490.0, -490.0, -490.0, -490.0, -490.0, -490.0, -490.0, -490.0, -490.0, -490.0, -490.0, -490.0, -490.0, -490.0, -490.0, -490.0, -490.0, -490.0, -490.0, -490.0, -490.0, -490.0, -490.0, -490.0, -490.0, -490.0, -490.0, -490.0, -490.0, -488.0, -479.0, -463.0, -440.0, -412.0, -375.0, -326.0, -263.0, -197.0, -119.0, -37.0, 45.0, 116.0, 219.0, 252.0, 317.0, 347.0, 388.0, 423.0, 453.0, 475.0, 492.0, 501.0, 501.0, 501.0, 501.0, 503.0, 519.0, 528.0, 538.0, 540.0, 540.0, 540.0, 540.0, 540.0, 540.0, 540.0, 540.0, 540.0, 540.0, 539.0, 537.0, 534.0, 534.0, 534.0]	[0.012389706767862663, 0.016485361935338005, 0.026109588390681893, 0.041015602328116074, 0.057877113271388225, 0.07316542023909278, 0.0912905461009359, 0.10782813199330121, 0.12322566552029457, 0.14102072232344653, 0.15809659042861313, 0.17301557502651121, 0.19133901539316867, 0.20789673992840108, 0.22330519610841293, 0.2410514423099812, 0.25804880379291717, 0.2730749669717625, 0.29144004997215234, 0.30790493192034774, 0.3232922254537698, 0.34105349029414356, 0.35807645176828373, 0.3727670845692046, 0.3915479112183675, 0.40770013209839817, 0.42342090801685117, 0.4445729752915213, 0.462532895966433, 0.47279541521857027, 0.4941929009510204, 0.5079363345575985, 0.5236366305034608, 0.5410306209814735, 0.5606446415768005, 0.5730660923145479, 0.5936177547846455, 0.6078899132699007, 0.6262147189700045, 0.6412917407578789, 0.6602882898878306, 0.6728380818385631, 0.6933501496678218, 0.707960569212446, 0.725740266032517, 0.7411910475202603, 0.7580085264926311, 0.7730121616914403, 0.7914417566353222, 0.8077086654229788, 0.8233976973715471, 0.8409480183909182, 0.8580030651646666, 0.8730493670009309, 0.8913065887463745, 0.9077960466820514, 0.9231556922459276, 0.9410480289661791, 0.957972686534049, 0.9730688229756197, 0.9914383433060721, 1.0078417853073915, 1.0233246520947432, 1.0408964771049796, 1.0579904358455678, 1.072759916583891, 1.0912325194803998, 1.10749806293461, 1.1230253030225867, 1.1408135331730591, 1.157910905254539, 1.1728056552092312, 1.1914144499896793, 1.207770105364034, 1.2233198734320467, 1.240944263729034, 1.2579692731960677, 1.272787905894802, 1.291274844785221, 1.3076096788427094, 1.3231990415370092, 1.3437206666858401, 1.3580105744913453, 1.372971884396975, 1.3913437940500444, 1.409462775918655, 1.4232608228194294, 1.4423126678884728]
20	火焰	False	animate	inanimate	right	1.395	[0.0, 0.0, 0.0, 0.0, 0.0, 0.0, 0.0, 0.0, 0.0, 0.0, 0.0, 0.0, 0.0, 0.0, 0.0, 0.0, 0.0, 0.0, 0.0, 0.0, 0.0, 0.0, 0.0, 0.0, 0.0, 0.0, 0.0, 0.0, 0.0, 0.0, 0.0, 0.0, 0.0, 0.0, 0.0, 0.0, 0.0, 0.0, 0.0, 0.0, 0.0, 0.0, 0.0, 0.0, 0.0, 0.0, 0.0, 0.0, 0.0, 11.0, 22.0, 42.0, 90.0, 140.0, 163.0, 257.0, 329.0, 399.0, 468.0, 535.0, 588.0, 635.0, 673.0, 708.0, 747.0, 768.0, 780.0, 798.0, 807.0, 811.0, 813.0, 813.0, 813.0, 813.0, 813.0, 813.0, 813.0, 813.0, 813.0, 813.0, 813.0, 813.0, 813.0, 813.0]	[-490.0, -490.0, -490.0, -490.0, -490.0, -490.0, -490.0, -490.0, -490.0, -490.0, -490.0, -490.0, -490.0, -490.0, -490.0, -490.0, -490.0, -490.0, -490.0, -490.0, -490.0, -490.0, -490.0, -490.0, -490.0, -490.0, -490.0, -490.0, -490.0, -490.0, -490.0, -490.0, -490.0, -490.0, -490.0, -490.0, -490.0, -490.0, -490.0, -490.0, -490.0, -490.0, -490.0, -490.0, -490.0, -490.0, -490.0, -490.0, -490.0, -478.0, -464.0, -440.0, -385.0, -326.0, -296.0, -187.0, -96.0, -8.0, 87.0, 182.0, 271.0, 346.0, 415.0, 474.0, 540.0, 540.0, 540.0, 540.0, 540.0, 540.0, 540.0, 540.0, 540.0, 540.0, 540.0, 540.0, 540.0, 540.0, 540.0, 540.0, 540.0, 540.0, 540.0, 540.0]	[0.01012462069047615, 0.014870856641209684, 0.02137154442607425, 0.03611508384346962, 0.053074216048116796, 0.06803279527230188, 0.0860951158683747, 0.10268253638059832, 0.11764930760546122, 0.13579866811051033, 0.1541791110939812, 0.16781741412705742, 0.18772327447368298, 0.20248934187111445, 0.21877161064185202, 0.23596045997692272, 0.2536831541947322, 0.2678938727331115, 0.28589680136065, 0.3024965098738903, 0.31850434686930384, 0.33577818813500926, 0.3534769890247844, 0.36784062477818225, 0.38658868343918584, 0.40245111257536337, 0.4176598889316665, 0.43596694531152025, 0.45341759707662277, 0.467793862146209, 0.48680201658862643, 0.5026412350707687, 0.5184999095508829, 0.5359328119957354, 0.5526956777030136, 0.5677757715020562, 0.587234144230024, 0.6024436032457743, 0.6202915666799527, 0.6359007267019479, 0.6537657567823771, 0.6677938621432986, 0.685984865296632, 0.702432339254301, 0.7188634292397182, 0.7359608013066463, 0.7530708027043147, 0.7677116008853773, 0.7862210677558323, 0.8026562537270365, 0.8179121340508573, 0.8359259853459662, 0.852900818848866, 0.867817414124147, 0.8860394785733661, 0.9024405312520685, 0.9179742566630011, 0.9357618041540263, 0.9527106963505503, 0.9677754301665118, 0.986115254519973, 1.0025559018104104, 1.0178800487337867, 1.035871713393135, 1.052801149606239, 1.067584624994197, 1.0856404602527618, 1.102392061962746, 1.1179373926861444, 1.1356126416067127, 1.152795346948551, 1.1674764224153478, 1.1860169505962403, 1.2022626967373071, 1.2175861609866843, 1.2358686413936084, 1.252561875138781, 1.267980571326916, 1.285863692057319, 1.3027757202944485, 1.3177257662027841, 1.3360857291991124, 1.3522867607098306, 1.368033819278935]
21	喇叭	False	inanimate	animate	left	1.419	[0.0, 0.0, 0.0, 0.0, 0.0, 0.0, 0.0, 0.0, 0.0, 0.0, 0.0, 0.0, 0.0, 0.0, 0.0, 0.0, 0.0, 0.0, 0.0, 0.0, 0.0, 0.0, 0.0, 0.0, 0.0, 0.0, 0.0, 0.0, 0.0, 0.0, 0.0, 0.0, 0.0, 0.0, 0.0, 0.0, 0.0, 0.0, 0.0, 0.0, 0.0, 0.0, 0.0, 0.0, 0.0, 0.0, 0.0, 8.0, 16.0, 26.0, 36.0, 45.0, 52.0, 58.0, 58.0, 49.0, 39.0, 6.0, -89.0, -172.0, -251.0, -332.0, -399.0, -458.0, -517.0, -571.0, -616.0, -661.0, -673.0, -695.0, -724.0, -742.0, -760.0, -777.0, -785.0, -789.0, -790.0, -790.0, -790.0, -790.0, -790.0, -790.0, -790.0, -790.0, -790.0, -790.0]	[-490.0, -490.0, -490.0, -490.0, -490.0, -490.0, -490.0, -490.0, -490.0, -490.0, -490.0, -490.0, -490.0, -490.0, -490.0, -490.0, -490.0, -490.0, -490.0, -490.0, -490.0, -490.0, -490.0, -490.0, -490.0, -490.0, -490.0, -490.0, -490.0, -490.0, -490.0, -490.0, -490.0, -490.0, -490.0, -490.0, -490.0, -490.0, -490.0, -490.0, -490.0, -490.0, -490.0, -490.0, -490.0, -490.0, -490.0, -481.0, -469.0, -454.0, -438.0, -425.0, -409.0, -386.0, -375.0, -342.0, -327.0, -295.0, -231.0, -185.0, -146.0, -108.0, -68.0, -30.0, 5.0, 41.0, 74.0, 122.0, 137.0, 165.0, 206.0, 236.0, 269.0, 301.0, 325.0, 344.0, 363.0, 388.0, 395.0, 417.0, 422.0, 438.0, 446.0, 450.0, 450.0, 450.0]	[0.00943683460354805, 0.014247241168050095, 0.019634159238194115, 0.035930422658566386, 0.0524314859212609, 0.06775256084802095, 0.08580839610658586, 0.10251357650849968, 0.1175946943112649, 0.13596319063799456, 0.15227788605261594, 0.1677488061832264, 0.1856404602440307, 0.20265386439859867, 0.21749502506281715, 0.23557816696120426, 0.25263765107956715, 0.26756482766359113, 0.28571589484636206, 0.3024507712252671, 0.31771211288287304, 0.3355252603359986, 0.3527922749344725, 0.36731531321129296, 0.38589884935936425, 0.40245281922398135, 0.4177974461345002, 0.4357191375165712, 0.45267656304349657, 0.4673265771998558, 0.4860090999281965, 0.5023668033099966, 0.5178431847598404, 0.535725622830796, 0.5525461738143349, 0.5675399103492964, 0.5859121613466414, 0.60245520855824, 0.6177950568089727, 0.6357785294530913, 0.6525577791471733, 0.6672825452405959, 0.6857384228205774, 0.7023893312871223, 0.7177916434739018, 0.7355099003616488, 0.7525393471587449, 0.7675211370369652, 0.786395830262336, 0.8025040191860171, 0.8178544487600448, 0.8357737507903948, 0.8527997842611512, 0.8675907689757878, 0.8858097614283906, 0.9022725953836925, 0.9177513661707053, 0.9355389136617305, 0.9525980564358179, 0.9675607316748938, 0.986218678415753, 1.0021309421717888, 1.0180626619112445, 1.0355095590202836, 1.053242834561388, 1.0673514945228817, 1.0857237455056747, 1.1022418754146202, 1.118006341959699, 1.1354112551052822, 1.152740392324631, 1.1676334356161533, 1.186140854479163, 1.202287955369684, 1.2179684539878508, 1.235517068344052, 1.2552184702071827, 1.2674719850765541, 1.2886551136762137, 1.3022551874018973, 1.3205547344550723, 1.3355785082967486, 1.3537261621386278, 1.3672968812315958, 1.387791541070328, 1.402311848680256]
22	教室	False	animate	inanimate	right	1.268	[0.0, 0.0, 0.0, 0.0, 0.0, 0.0, 0.0, 0.0, 0.0, 0.0, 0.0, 0.0, 0.0, 0.0, 0.0, 0.0, 0.0, 0.0, 0.0, 0.0, 0.0, 0.0, 0.0, 0.0, 0.0, 0.0, 0.0, 0.0, 0.0, 0.0, 0.0, 0.0, 0.0, 0.0, 0.0, 0.0, 0.0, 0.0, 0.0, 0.0, 0.0, 0.0, 0.0, 0.0, 0.0, 0.0, 0.0, 0.0, 0.0, 0.0, 9.0, 24.0, 49.0, 86.0, 130.0, 182.0, 244.0, 313.0, 415.0, 476.0, 534.0, 589.0, 633.0, 666.0, 695.0, 720.0, 735.0, 747.0, 754.0, 760.0, 765.0, 768.0, 773.0, 775.0, 777.0, 778.0, 778.0]	[-490.0, -490.0, -490.0, -490.0, -490.0, -490.0, -490.0, -490.0, -490.0, -490.0, -490.0, -490.0, -490.0, -490.0, -490.0, -490.0, -490.0, -490.0, -490.0, -490.0, -490.0, -490.0, -490.0, -490.0, -490.0, -490.0, -490.0, -490.0, -490.0, -490.0, -490.0, -490.0, -490.0, -490.0, -490.0, -490.0, -490.0, -490.0, -490.0, -490.0, -490.0, -490.0, -490.0, -490.0, -490.0, -490.0, -490.0, -490.0, -490.0, -490.0, -481.0, -463.0, -434.0, -391.0, -342.0, -281.0, -213.0, -142.0, -36.0, 36.0, 106.0, 168.0, 219.0, 261.0, 300.0, 338.0, 361.0, 380.0, 392.0, 402.0, 422.0, 432.0, 441.0, 447.0, 449.0, 450.0, 450.0]	[0.0074530069541651756, 0.011657888695481233, 0.015812253157491796, 0.03197881003143266, 0.04814331889792811, 0.0637197109463159, 0.0816420849878341, 0.09856810787459835, 0.11346695382962935, 0.1317985861824127, 0.1483638200443238, 0.16366236699104775, 0.18164993563550524, 0.1984595639660256, 0.2134635404945584, 0.23188118878169917, 0.24809655627177563, 0.263757257576799, 0.2817202502483269, 0.2986312544817338, 0.31348743381386157, 0.3317316848988412, 0.3481306895846501, 0.36366202565841377, 0.38163423431979027, 0.39851281192386523, 0.4134519351646304, 0.43171734891075175, 0.44809177760907914, 0.46383064417750575, 0.48170113559172023, 0.5016295239329338, 0.5135557004105067, 0.5346179971093079, 0.5482808761153137, 0.5669019588967785, 0.5816741702874424, 0.6009318391879788, 0.6135055244521936, 0.6338223497878062, 0.6481163535936503, 0.6659434957109625, 0.6816311623260844, 0.6997125975613017, 0.7134137058747001, 0.7321795138559537, 0.7481214735889807, 0.7645177475933451, 0.7816485703078797, 0.7989804381795693, 0.8134676364861662, 0.8319306820631027, 0.8481330789072672, 0.8635893217142439, 0.8815704050502973, 0.8984076813358115, 0.9134212151984684, 0.9317436315614032, 0.9480849509563996, 0.963664073657128, 0.9813577545573935, 0.9985530892154202, 1.013433503190754, 1.0318433008069405, 1.0480422843247652, 1.0635780577285914, 1.0815185224200832, 1.0983441933931317, 1.1134754871454788, 1.1316405489778845, 1.1479491003992734, 1.1635828363941982, 1.1813253279251512, 1.1984954039362492, 1.2132201700296719, 1.2317006235971348, 1.2480344336654525]
23	电视	False	inanimate	animate	left	1.431	[0.0, 0.0, 0.0, 0.0, 0.0, 0.0, 0.0, 0.0, 0.0, 0.0, 0.0, 0.0, 0.0, 0.0, 0.0, 0.0, 0.0, 0.0, 0.0, 0.0, 0.0, 0.0, 0.0, 0.0, 0.0, 0.0, 0.0, 0.0, 0.0, 0.0, 0.0, 0.0, 0.0, 0.0, 0.0, 0.0, 0.0, 0.0, 1.0, 3.0, 8.0, 17.0, 20.0, 27.0, 35.0, 43.0, 58.0, 68.0, 74.0, 90.0, 99.0, 105.0, 107.0, 109.0, 107.0, 95.0, 75.0, 47.0, -21.0, -77.0, -150.0, -223.0, -290.0, -349.0, -410.0, -460.0, -515.0, -554.0, -585.0, -604.0, -626.0, -636.0, -645.0, -656.0, -673.0, -684.0, -694.0, -711.0, -720.0, -736.0, -748.0, -756.0, -762.0, -762.0, -762.0, -762.0]	[-490.0, -490.0, -490.0, -490.0, -490.0, -490.0, -490.0, -490.0, -490.0, -490.0, -490.0, -490.0, -490.0, -490.0, -490.0, -490.0, -490.0, -490.0, -490.0, -490.0, -490.0, -490.0, -490.0, -490.0, -490.0, -490.0, -490.0, -490.0, -490.0, -490.0, -490.0, -490.0, -490.0, -490.0, -490.0, -490.0, -490.0, -490.0, -490.0, -483.0, -474.0, -457.0, -453.0, -441.0, -428.0, -413.0, -387.0, -370.0, -359.0, -332.0, -313.0, -297.0, -282.0, -268.0, -254.0, -238.0, -224.0, -207.0, -174.0, -150.0, -120.0, -87.0, -58.0, -33.0, 0.0, 26.0, 58.0, 85.0, 109.0, 126.0, 151.0, 171.0, 195.0, 221.0, 257.0, 289.0, 319.0, 366.0, 379.0, 408.0, 431.0, 445.0, 456.0, 458.0, 458.0, 458.0]	[0.009826295601669699, 0.01780051813693717, 0.023411009344272316, 0.036520587498671375, 0.05289296818955336, 0.06801948328211438, 0.08756694392650388, 0.10301806674397085, 0.12106536868668627, 0.1364161395758856, 0.15470885997638106, 0.16815874715393875, 0.18752427730942145, 0.20307336270343512, 0.21839853361598216, 0.23640453425468877, 0.2566745969670592, 0.2679259580327198, 0.287489802663913, 0.30302660007146187, 0.3197536257939646, 0.33633080632716883, 0.35311346933303867, 0.3682065337925451, 0.38750823464943096, 0.40307984802348074, 0.4197850284399465, 0.43617584112507757, 0.45630493327917065, 0.4679266406892566, 0.48620195309922565, 0.5030771173624089, 0.5181807631452102, 0.5360737825394608, 0.5528475708997576, 0.5681242725258926, 0.5861869344371371, 0.6027985896071186, 0.6197577217972139, 0.636356064962456, 0.6564796957973158, 0.6682379364210647, 0.6863784222805407, 0.7027938109386014, 0.7182749710627832, 0.736248545057606, 0.7528291389025981, 0.7682106297870632, 0.7861934197717346, 0.803031378731248, 0.8179838139767526, 0.8362335264100693, 0.8528212882520165, 0.868232475098921, 0.8863313183246646, 0.903211261247634, 0.9182234297768446, 0.9369202884845436, 0.9563383839122253, 0.9684615095757181, 0.9863142516696826, 1.0033013731735991, 1.0182708750653546, 1.0364373022312066, 1.0528079762589186, 1.0682816270564217, 1.0863572596281301, 1.1031433359748917, 1.1183190030278638, 1.136451296886662, 1.1565356744104065, 1.1683184910216369, 1.186234379740199, 1.2030986213503638, 1.218181445801747, 1.236492256852216, 1.2565032477723435, 1.268333509680815, 1.2862074144213693, 1.3031447013054276, 1.3180769978935132, 1.3364287689037155, 1.3526437950640684, 1.3683884642960038, 1.3862480330571998, 1.4031412879703566]
24	婴儿	True	animate	inanimate	left	1.6	[0.0, 0.0, 0.0, 0.0, 0.0, 0.0, 0.0, 0.0, 0.0, 0.0, 0.0, 0.0, 0.0, 0.0, 0.0, 0.0, 0.0, 0.0, 0.0, 0.0, 0.0, 0.0, 0.0, 0.0, 0.0, 0.0, 0.0, 0.0, 0.0, 0.0, 0.0, 0.0, 0.0, 0.0, 0.0, 0.0, 0.0, 0.0, 0.0, 0.0, 0.0, 0.0, 0.0, 12.0, 26.0, 46.0, 83.0, 101.0, 160.0, 200.0, 246.0, 293.0, 348.0, 401.0, 455.0, 538.0, 560.0, 596.0, 635.0, 645.0, 658.0, 667.0, 667.0, 667.0, 649.0, 608.0, 543.0, 445.0, 326.0, 186.0, 18.0, -157.0, -325.0, -542.0, -664.0, -711.0, -815.0, -848.0, -865.0, -870.0, -872.0, -873.0, -874.0, -874.0, -874.0, -874.0, -874.0, -874.0, -866.0, -858.0, -848.0, -836.0, -821.0, -813.0, -809.0, -806.0, -806.0]	[-490.0, -490.0, -490.0, -490.0, -490.0, -490.0, -490.0, -490.0, -490.0, -490.0, -490.0, -490.0, -490.0, -490.0, -490.0, -490.0, -490.0, -490.0, -490.0, -490.0, -490.0, -490.0, -490.0, -490.0, -490.0, -490.0, -490.0, -490.0, -490.0, -490.0, -490.0, -490.0, -490.0, -490.0, -490.0, -490.0, -490.0, -490.0, -490.0, -490.0, -490.0, -490.0, -483.0, -467.0, -446.0, -418.0, -366.0, -341.0, -256.0, -189.0, -109.0, -32.0, 42.0, 116.0, 188.0, 281.0, 309.0, 349.0, 394.0, 407.0, 422.0, 435.0, 436.0, 439.0, 444.0, 453.0, 461.0, 477.0, 491.0, 512.0, 533.0, 540.0, 540.0, 540.0, 540.0, 540.0, 540.0, 540.0, 540.0, 539.0, 537.0, 536.0, 532.0, 528.0, 522.0, 511.0, 500.0, 493.0, 463.0, 442.0, 427.0, 412.0, 400.0, 396.0, 395.0, 394.0, 394.0]	[0.007287119122338481, 0.012099915009457618, 0.015857309132115915, 0.03193375408591237, 0.04808051364670973, 0.06346814850985538, 0.08160283170582261, 0.09839846537215635, 0.1130447248724522, 0.13149753045581747, 0.1481371749250684, 0.16362720970937517, 0.18126252265938092, 0.19877905171597376, 0.21313176480180118, 0.23444152795127593, 0.24804091900296044, 0.26370947097893804, 0.28120517870411277, 0.3010902177338721, 0.31322529005410615, 0.3336871819192311, 0.34783680185501, 0.3661639968777308, 0.38144377050048206, 0.40009215992176905, 0.4131778447626857, 0.43369298458856065, 0.4480617403314682, 0.46589843976835255, 0.481192549385014, 0.4990568968059961, 0.5133014073217055, 0.532680932112271, 0.548061740322737, 0.5656775972893229, 0.5812942666379968, 0.5992432646453381, 0.6132136847299989, 0.6348374742810847, 0.647989719058387, 0.6658264184952714, 0.6813287412660429, 0.6990490461466834, 0.7132416740350891, 0.7326471401465824, 0.7480241936864331, 0.7647665794065688, 0.7812055200483883, 0.7995549017214216, 0.8132481593638659, 0.8316190450277645, 0.8479699217423331, 0.8638651188375661, 0.8848734849161701, 0.8991818247013725, 0.9131116261414718, 0.9325437162333401, 0.947930327107315, 0.9636275510420091, 0.981378234559088, 0.9981963962054579, 1.0131877434178023, 1.0315695517347194, 1.047928620435414, 1.063378036589711, 1.0810676214896375, 1.0981373455870198, 1.1132246073830174, 1.1315029917896027, 1.1476948073104722, 1.1633534606080502, 1.181030757521512, 1.198238721510279, 1.2129433489608346, 1.2316545436624438, 1.2479723110736813, 1.2635114978038473, 1.2811362294305582, 1.298124716267921, 1.3130140049033798, 1.3314261918567354, 1.34773030593351, 1.3633421966223978, 1.380992528225761, 1.3981434895831626, 1.412960415604175, 1.4314084425423061, 1.4478071058692876, 1.4633964685781393, 1.4812464800052112, 1.4981257402687334, 1.5129597329505486, 1.5314534984936472, 1.5482866787933744, 1.5633264952921309, 1.5839740723458817]
25	雪花	False	inanimate	animate	left	1.484	[0.0, 0.0, 0.0, 0.0, 0.0, 0.0, 0.0, 0.0, 0.0, 0.0, 0.0, 0.0, 0.0, 0.0, 0.0, 0.0, 0.0, 0.0, 0.0, 0.0, 0.0, 0.0, 0.0, 0.0, 0.0, 0.0, 0.0, 0.0, 0.0, 0.0, 0.0, 0.0, 0.0, 0.0, 2.0, 4.0, 7.0, 11.0, 15.0, 21.0, 27.0, 37.0, 46.0, 64.0, 78.0, 84.0, 103.0, 114.0, 122.0, 130.0, 132.0, 132.0, 130.0, 113.0, 102.0, 61.0, 30.0, -23.0, -87.0, -185.0, -304.0, -442.0, -588.0, -703.0, -784.0, -831.0, -838.0, -840.0, -830.0, -810.0, -788.0, -771.0, -757.0, -750.0, -747.0, -746.0, -746.0, -756.0, -761.0, -785.0, -806.0, -824.0, -840.0, -850.0, -854.0, -854.0, -854.0, -854.0, -854.0, -854.0]	[-490.0, -490.0, -490.0, -490.0, -490.0, -490.0, -490.0, -490.0, -490.0, -490.0, -490.0, -490.0, -490.0, -490.0, -490.0, -490.0, -490.0, -490.0, -490.0, -490.0, -490.0, -490.0, -490.0, -490.0, -490.0, -490.0, -490.0, -490.0, -490.0, -490.0, -490.0, -490.0, -490.0, -490.0, -485.0, -480.0, -472.0, -465.0, -454.0, -444.0, -431.0, -416.0, -400.0, -375.0, -357.0, -348.0, -317.0, -296.0, -279.0, -254.0, -247.0, -234.0, -223.0, -204.0, -199.0, -180.0, -167.0, -150.0, -133.0, -106.0, -71.0, -28.0, 21.0, 62.0, 98.0, 127.0, 133.0, 143.0, 149.0, 157.0, 166.0, 173.0, 183.0, 197.0, 210.0, 222.0, 236.0, 269.0, 282.0, 329.0, 364.0, 396.0, 423.0, 442.0, 454.0, 460.0, 464.0, 467.0, 467.0, 467.0]	[0.012614645238500088, 0.01743290245940443, 0.022135447768960148, 0.03904679334664252, 0.055013670382322744, 0.0703859452623874, 0.08814106610952877, 0.10516983024717774, 0.1198608043778222, 0.1384607245126972, 0.1549256064608926, 0.17018182811443694, 0.18808781815459952, 0.205238096852554, 0.21983588706643786, 0.23848939649178647, 0.25474981994193513, 0.2702719400258502, 0.288104202147224, 0.30517529157805257, 0.31988367369922344, 0.3384849591529928, 0.3548515371949179, 0.37030948666506447, 0.38820114072586875, 0.40516914759064093, 0.4200154282443691, 0.43843478319467977, 0.45476791058899835, 0.4702678440371528, 0.4880806501605548, 0.5051220436289441, 0.5198334977321792, 0.5386614283343079, 0.5547870252485154, 0.5702371240622597, 0.5880949861602858, 0.6051001983141759, 0.6198235990741523, 0.6383948472357588, 0.6547150039696135, 0.6702459987136535, 0.6880540261918213, 0.7051619795965962, 0.7199219030007953, 0.7384709644975374, 0.7547412866115337, 0.7701480361429276, 0.7881434554437874, 0.8050172543880763, 0.8198488577181706, 0.8383323832822498, 0.8547890732443193, 0.8701244841504376, 0.8881495994428406, 0.9050612863502465, 0.9199352149880724, 0.9385368417715654, 0.9573657963774167, 0.9702330280706519, 0.9901815550401807, 1.0050070143915946, 1.0221491010888712, 1.0383030286466237, 1.056601551696076, 1.0702490707190009, 1.0891343452676665, 1.1050394410267472, 1.1224170475325081, 1.1388423348544165, 1.155764944414841, 1.1702429267170373, 1.1883404046093347, 1.2048547798476648, 1.220073113538092, 1.238029620872112, 1.254766886588186, 1.2702634067100007, 1.2879939515696606, 1.3046240387193393, 1.3201639081235044, 1.3380931088177022, 1.3545661827665754, 1.3699162709963275, 1.388450313854264, 1.4045844440843211, 1.4202731347031659, 1.4417153350659646, 1.4550307370373048, 1.470133700146107]
26	老师	True	animate	inanimate	left	1.399	[0.0, 0.0, 0.0, 0.0, 0.0, 0.0, 0.0, 0.0, 0.0, 0.0, 0.0, 0.0, 0.0, 0.0, 0.0, 0.0, 0.0, 0.0, 0.0, 0.0, 0.0, 0.0, 0.0, 0.0, 0.0, 0.0, 0.0, 0.0, 0.0, 0.0, 0.0, 0.0, 0.0, 0.0, 0.0, 0.0, 0.0, 0.0, 2.0, 5.0, 14.0, 18.0, 33.0, 39.0, 57.0, 64.0, 83.0, 96.0, 108.0, 119.0, 130.0, 141.0, 154.0, 164.0, 175.0, 186.0, 195.0, 195.0, 184.0, 154.0, 107.0, 33.0, -62.0, -164.0, -269.0, -374.0, -476.0, -572.0, -694.0, -723.0, -810.0, -858.0, -885.0, -904.0, -908.0, -910.0, -910.0, -910.0, -910.0, -910.0, -910.0, -910.0, -910.0, -910.0]	[-490.0, -490.0, -490.0, -490.0, -490.0, -490.0, -490.0, -490.0, -490.0, -490.0, -490.0, -490.0, -490.0, -490.0, -490.0, -490.0, -490.0, -490.0, -490.0, -490.0, -490.0, -490.0, -490.0, -490.0, -490.0, -490.0, -490.0, -490.0, -490.0, -490.0, -490.0, -490.0, -490.0, -490.0, -490.0, -490.0, -490.0, -490.0, -487.0, -479.0, -459.0, -451.0, -425.0, -415.0, -389.0, -379.0, -348.0, -328.0, -307.0, -288.0, -269.0, -251.0, -232.0, -214.0, -195.0, -174.0, -147.0, -136.0, -102.0, -70.0, -34.0, 1.0, 51.0, 93.0, 139.0, 182.0, 224.0, 261.0, 312.0, 325.0, 362.0, 389.0, 405.0, 416.0, 420.0, 421.0, 421.0, 421.0, 421.0, 421.0, 421.0, 422.0, 423.0, 423.0]	[0.01673180438228883, 0.023972160866833292, 0.031386597198434174, 0.05019916781748179, 0.06649645524157677, 0.08198410068871453, 0.09967061360657681, 0.11663418312673457, 0.13140025052416604, 0.1497957121609943, 0.16655482319765724, 0.1819400687381858, 0.19972829888865817, 0.21667923909262754, 0.2314200478431303, 0.24987490143394098, 0.2665036232356215, 0.28187180212989915, 0.2996361389668891, 0.316684359087958, 0.33140571185504086, 0.35010973855969496, 0.36648587392119225, 0.38225750846322626, 0.3998385494633112, 0.4198164310801076, 0.4313958131970139, 0.4528127549274359, 0.4665657458535861, 0.4820035566808656, 0.49964194162748754, 0.5195024046843173, 0.5316282610001508, 0.5526850963651668, 0.5664445726142731, 0.5847301250178134, 0.5996921175828902, 0.6187169973418349, 0.6314709064608905, 0.6525431018235395, 0.6663418313692091, 0.6844922158925328, 0.6997873494983651, 0.7182473230786854, 0.7313620212225942, 0.7516532465815544, 0.7664797299221391, 0.7825179455685429, 0.7997928108234191, 0.8173974038072629, 0.8315412210649811, 0.8499598933558445, 0.8663339807098964, 0.8819298287417041, 0.8997187415661756, 0.9173352811922086, 0.9313947891932912, 0.9508077646314632, 0.9663650420261547, 0.9830388197879074, 0.9997934934945079, 1.0178916540462524, 1.031600613016053, 1.050947369847563, 1.0662295328074833, 1.0839778269873932, 1.099742293547024, 1.1176919742283644, 1.131766842212528, 1.151418750770972, 1.1661749195191078, 1.1842331441148417, 1.1997395628714003, 1.2179752806550823, 1.2313852318766294, 1.2508149326313287, 1.2664118046523072, 1.282251364464173, 1.299544320369023, 1.316903153565363, 1.3313869385310682, 1.3506282234448008, 1.3664227273111464, 1.3823421590495855]
27	书包	False	animate	inanimate	right	1.361	[0.0, 0.0, 0.0, 0.0, 0.0, 0.0, 0.0, 0.0, 0.0, 0.0, 0.0, 0.0, 0.0, 0.0, 0.0, 0.0, 0.0, 0.0, 0.0, 0.0, 0.0, 0.0, 0.0, 0.0, 0.0, 0.0, 0.0, 0.0, 0.0, 0.0, 0.0, 0.0, 0.0, 0.0, 0.0, 0.0, 0.0, 0.0, 0.0, 0.0, 0.0, 0.0, 0.0, 0.0, 0.0, 0.0, 0.0, 0.0, 6.0, 15.0, 30.0, 49.0, 73.0, 117.0, 141.0, 211.0, 250.0, 297.0, 347.0, 397.0, 449.0, 490.0, 522.0, 547.0, 573.0, 585.0, 589.0, 601.0, 606.0, 611.0, 616.0, 622.0, 628.0, 638.0, 649.0, 663.0, 685.0, 700.0, 706.0, 724.0, 731.0, 736.0, 738.0]	[-490.0, -490.0, -490.0, -490.0, -490.0, -490.0, -490.0, -490.0, -490.0, -490.0, -490.0, -490.0, -490.0, -490.0, -490.0, -490.0, -490.0, -490.0, -490.0, -490.0, -490.0, -490.0, -490.0, -490.0, -490.0, -490.0, -491.0, -491.0, -491.0, -492.0, -492.0, -492.0, -492.0, -492.0, -492.0, -492.0, -492.0, -492.0, -492.0, -492.0, -492.0, -492.0, -492.0, -492.0, -492.0, -492.0, -492.0, -492.0, -485.0, -474.0, -460.0, -444.0, -425.0, -386.0, -364.0, -295.0, -256.0, -202.0, -146.0, -87.0, -25.0, 28.0, 72.0, 112.0, 164.0, 189.0, 201.0, 231.0, 248.0, 263.0, 280.0, 295.0, 309.0, 325.0, 341.0, 359.0, 379.0, 392.0, 397.0, 410.0, 416.0, 420.0, 422.0]	[0.013474463150487281, 0.021260269844788127, 0.027644221729133278, 0.043375920300604776, 0.06024971924489364, 0.07508678390877321, 0.09356518948334269, 0.11000856744067278, 0.12539893298526295, 0.14324006975220982, 0.1602828285540454, 0.17501203197753057, 0.19354914683208335, 0.20991026352567133, 0.2254583249305142, 0.2433687523152912, 0.26024801257881336, 0.27499701332999393, 0.2935716748033883, 0.3100171007681638, 0.32542248496611137, 0.3452228733949596, 0.36035177782468963, 0.3751683625159785, 0.39358703479229007, 0.4117514139652485, 0.42546071426477283, 0.44448286335682496, 0.4602282152627595, 0.4760073591314722, 0.4934518669033423, 0.5101154046860756, 0.5251432745280908, 0.5435616054892307, 0.5601490260014543, 0.5749891626619501, 0.5932317070983117, 0.6117599472927395, 0.6253740156680578, 0.6449153323337669, 0.659927159518702, 0.676463380077621, 0.6933225016837241, 0.7113814089389052, 0.7249848960054806, 0.7432233444415033, 0.7600957780377939, 0.7761473056743853, 0.7932156644383213, 0.8104318204132142, 0.8249753386771772, 0.8435418081644457, 0.8600466260832036, 0.8753646290133474, 0.8934303629212081, 0.9102130259416299, 0.9249999146559276, 0.9436110987735447, 0.960046967418748, 0.9755649915023241, 0.9932204431097489, 1.010039970089565, 1.0249633920175256, 1.0435175735183293, 1.0600002047867747, 1.075331519707106, 1.093275056395214, 1.1101119913655566, 1.125071935923188, 1.1431332325155381, 1.160059596732026, 1.1750454826105852, 1.1930651365692029, 1.2100136874505552, 1.2249773866788018, 1.2468640026636422, 1.2602138792717597, 1.275060842599487, 1.2933252323564375, 1.309710925037507, 1.3251142612280091, 1.343304923037067, 1.3604712443921017]
28	河流	False	inanimate	animate	left	1.484	[0.0, 0.0, 0.0, 0.0, 0.0, 0.0, 0.0, 0.0, 0.0, 0.0, 0.0, 0.0, 0.0, 0.0, 0.0, 0.0, 0.0, 0.0, 0.0, 0.0, 0.0, 0.0, 0.0, 0.0, 0.0, 0.0, 0.0, 0.0, 0.0, 0.0, 0.0, 0.0, 0.0, 0.0, 0.0, 0.0, 0.0, 0.0, 0.0, 0.0, 0.0, 0.0, 0.0, 0.0, 0.0, 0.0, 0.0, 0.0, 0.0, 1.0, 2.0, 4.0, 6.0, 8.0, 12.0, 17.0, 25.0, 29.0, 35.0, 38.0, 38.0, 36.0, 15.0, -9.0, -51.0, -132.0, -163.0, -246.0, -285.0, -322.0, -361.0, -407.0, -450.0, -485.0, -525.0, -565.0, -598.0, -626.0, -653.0, -685.0, -701.0, -711.0, -719.0, -723.0, -724.0, -725.0, -725.0, -725.0, -725.0]	[-490.0, -490.0, -490.0, -490.0, -490.0, -490.0, -490.0, -490.0, -490.0, -490.0, -490.0, -490.0, -490.0, -490.0, -490.0, -490.0, -490.0, -490.0, -490.0, -490.0, -490.0, -490.0, -490.0, -490.0, -490.0, -490.0, -490.0, -490.0, -490.0, -490.0, -490.0, -490.0, -490.0, -490.0, -490.0, -490.0, -490.0, -490.0, -490.0, -490.0, -490.0, -490.0, -490.0, -490.0, -490.0, -490.0, -490.0, -490.0, -490.0, -487.0, -482.0, -477.0, -471.0, -464.0, -454.0, -443.0, -423.0, -416.0, -389.0, -370.0, -350.0, -325.0, -291.0, -259.0, -215.0, -146.0, -120.0, -45.0, 1.0, 44.0, 90.0, 141.0, 188.0, 224.0, 260.0, 290.0, 314.0, 333.0, 349.0, 367.0, 376.0, 382.0, 386.0, 388.0, 389.0, 390.0, 390.0, 390.0, 390.0]	[0.010153975323191844, 0.014872904634103179, 0.02081858488963917, 0.03741317339881789, 0.053844263369683176, 0.06908649037359282, 0.08708600567479152, 0.1040485512057785, 0.11875147199316416, 0.13713328031008132, 0.15376609811210074, 0.1691803569556214, 0.1870918083441211, 0.20395878060662653, 0.2186825227108784, 0.2403240615822142, 0.2537756554374937, 0.26931927949772216, 0.28711604297859594, 0.306792186194798, 0.31869583470688667, 0.33947175297362264, 0.35388419934315607, 0.37169564014766365, 0.3871464216208551, 0.40468786799465306, 0.4186835467116907, 0.43755960527050775, 0.4537596127775032, 0.4694298714166507, 0.4871819202671759, 0.5039553672831971, 0.5186838880472351, 0.5373370561283082, 0.5539022899902193, 0.5692400902335066, 0.5871215043152915, 0.6039591219450813, 0.6187405493255937, 0.6373018988233525, 0.6537968180782627, 0.6690963890287094, 0.687115360313328, 0.7040048605704214, 0.7187654666486196, 0.7373534401122015, 0.7538200287235668, 0.7691448583209421, 0.7871918189193821, 0.8040550365258241, 0.8189214558369713, 0.8372302188945469, 0.8535408183088293, 0.8690434824093245, 0.8869102191674756, 0.9038662793609546, 0.9186818400485208, 0.9372056429128861, 0.9536705248610815, 0.9688922718632966, 0.9869354778056731, 1.0039775539335096, 1.0189296478347387, 1.037243530881824, 1.0537544927938143, 1.0691909382876474, 1.0872594028624007, 1.103864914024598, 1.1188955145335058, 1.1372332908795215, 1.1556768804730382, 1.1691219890053617, 1.1883233379485318, 1.2039662899333052, 1.2216609948372934, 1.2371517122810474, 1.2548580225120531, 1.269210394268157, 1.288197044734261, 1.3038638900325168, 1.3212769951642258, 1.3372278295573778, 1.3542743430152768, 1.3690137864323333, 1.3907328078930732, 1.4036215435626218, 1.4188275892520323, 1.4367663472803542, 1.4560700961446855]
29	小鸡	True	inanimate	animate	right	1.607	[0.0, 0.0, 0.0, 0.0, 0.0, 0.0, 0.0, 0.0, 0.0, 0.0, 0.0, 0.0, 0.0, 0.0, 0.0, 0.0, 0.0, 0.0, 0.0, 0.0, 0.0, 0.0, -3.0, -19.0, -39.0, -55.0, -91.0, -102.0, -145.0, -162.0, -162.0, -162.0, -162.0, -162.0, -162.0, -162.0, -162.0, -162.0, -162.0, -162.0, -162.0, -162.0, -162.0, -162.0, -171.0, -174.0, -184.0, -203.0, -209.0, -233.0, -233.0, -229.0, -220.0, -213.0, -207.0, -203.0, -198.0, -193.0, -189.0, -182.0, -179.0, -161.0, -146.0, -131.0, -111.0, -87.0, -52.0, -8.0, 53.0, 120.0, 212.0, 306.0, 405.0, 497.0, 628.0, 665.0, 776.0, 840.0, 893.0, 939.0, 959.0, 959.0, 959.0, 959.0, 959.0, 959.0, 958.0, 953.0, 931.0, 916.0, 905.0, 900.0, 900.0, 900.0, 900.0, 900.0, 900.0]	[-490.0, -490.0, -490.0, -490.0, -490.0, -490.0, -490.0, -490.0, -490.0, -490.0, -490.0, -490.0, -490.0, -490.0, -490.0, -490.0, -490.0, -490.0, -490.0, -490.0, -490.0, -490.0, -490.0, -487.0, -481.0, -471.0, -448.0, -448.0, -437.0, -426.0, -426.0, -426.0, -426.0, -426.0, -426.0, -426.0, -426.0, -426.0, -426.0, -426.0, -426.0, -426.0, -426.0, -426.0, -421.0, -420.0, -415.0, -408.0, -403.0, -392.0, -392.0, -388.0, -386.0, -383.0, -377.0, -371.0, -358.0, -341.0, -326.0, -303.0, -295.0, -270.0, -256.0, -240.0, -223.0, -206.0, -183.0, -160.0, -129.0, -99.0, -60.0, -19.0, 21.0, 64.0, 122.0, 140.0, 200.0, 235.0, 267.0, 297.0, 317.0, 334.0, 349.0, 363.0, 378.0, 398.0, 410.0, 417.0, 431.0, 437.0, 441.0, 443.0, 443.0, 443.0, 443.0, 443.0, 443.0]	[0.0016629745805403218, 0.006755322232493199, 0.014869149978039786, 0.036133174507995136, 0.05006434128154069, 0.0681730831565801, 0.08336513419635594, 0.10189132638333831, 0.11496472323779017, 0.1355174096970586, 0.15004215463704895, 0.16607081294932868, 0.1833862968487665, 0.20120422297623008, 0.21507565646606963, 0.23441319730773102, 0.2501018879120238, 0.2678020541497972, 0.28336035553365946, 0.3006683301064186, 0.3149927125487011, 0.3337424778728746, 0.34990493874647655, 0.3654325201641768, 0.3833989261620445, 0.4002993490867084, 0.41497018455993384, 0.43363086196768563, 0.4499762773630209, 0.4653755175531842, 0.4833374862209894, 0.5002532691141823, 0.5149623338948004, 0.5335574753698893, 0.5500366933119949, 0.5653383122407831, 0.5834156514902133, 0.6002580477797892, 0.614935027260799, 0.6335052514186827, 0.6499028907564934, 0.6652738003031118, 0.6831828623544425, 0.700165205198573, 0.7150681471393909, 0.7334513207897544, 0.7498752427782165, 0.765227379015414, 0.7831449743825942, 0.8001996798266191, 0.8149360512616113, 0.833529827388702, 0.8524710805650102, 0.8652222590171732, 0.8857735801429953, 0.9002887677634135, 0.9153142482682597, 0.9334683874476468, 0.9517239025299205, 0.9652908669522731, 0.9844587652623886, 1.0001829545071814, 1.0177612648403738, 1.0334779447730398, 1.051146025696653, 1.0654693841352127, 1.084558434507926, 1.100211285156547, 1.1160385569819482, 1.1332932835939573, 1.1499697920226026, 1.165283357622684, 1.183218019650667, 1.2000314026372507, 1.2149312725960044, 1.233144803714822, 1.2511555830133148, 1.264942365916795, 1.2838232031353982, 1.3000580266234465, 1.3159242104156874, 1.3332041956746252, 1.3504930555791361, 1.3649311019253219, 1.3836856459238334, 1.3999754240212496, 1.4152934269513935, 1.433389880839968, 1.4502404691302218, 1.465189149705111, 1.4834996194113046, 1.5000795305968495, 1.5153360935801174, 1.53334857954178, 1.5502387624728726, 1.564924957929179, 1.5835876833443763]
30	石头	False	animate	inanimate	right	1.338	[0.0, 0.0, 0.0, 0.0, 0.0, 0.0, 0.0, 0.0, 0.0, 0.0, 0.0, 0.0, 0.0, 0.0, 0.0, 0.0, 0.0, 0.0, 0.0, 0.0, 0.0, 0.0, 0.0, 0.0, 0.0, 0.0, 0.0, 0.0, 0.0, 0.0, 0.0, 5.0, 14.0, 21.0, 30.0, 40.0, 51.0, 64.0, 82.0, 88.0, 99.0, 103.0, 103.0, 102.0, 94.0, 80.0, 63.0, 49.0, 39.0, 34.0, 34.0, 37.0, 57.0, 83.0, 119.0, 163.0, 219.0, 275.0, 358.0, 383.0, 441.0, 505.0, 593.0, 619.0, 686.0, 711.0, 736.0, 751.0, 767.0, 779.0, 787.0, 795.0, 801.0, 806.0, 813.0, 815.0, 815.0, 815.0, 815.0, 815.0]	[-490.0, -490.0, -490.0, -490.0, -490.0, -490.0, -490.0, -490.0, -490.0, -490.0, -490.0, -490.0, -490.0, -490.0, -490.0, -490.0, -490.0, -490.0, -490.0, -490.0, -490.0, -490.0, -490.0, -490.0, -490.0, -490.0, -490.0, -490.0, -490.0, -490.0, -490.0, -481.0, -469.0, -456.0, -443.0, -426.0, -407.0, -389.0, -361.0, -351.0, -320.0, -299.0, -282.0, -263.0, -246.0, -226.0, -206.0, -187.0, -169.0, -152.0, -129.0, -120.0, -92.0, -70.0, -46.0, -16.0, 18.0, 50.0, 90.0, 100.0, 129.0, 166.0, 216.0, 231.0, 269.0, 288.0, 308.0, 321.0, 336.0, 347.0, 357.0, 368.0, 376.0, 384.0, 393.0, 396.0, 399.0, 399.0, 399.0, 399.0]	[0.002699944350752048, 0.01186200586380437, 0.02007925751968287, 0.03820540738524869, 0.05520618220907636, 0.06999170560447965, 0.08866603633214254, 0.10505514233955182, 0.12044892121048179, 0.1407421945623355, 0.15523929151822813, 0.17283364450850058, 0.18861824969644658, 0.20500872105185408, 0.22028951867832802, 0.23937481439497788, 0.2551351849397179, 0.27136386441998184, 0.28844826585554983, 0.30525379817117937, 0.3203816785971867, 0.3390918492950732, 0.35511777695501223, 0.3707146489759907, 0.3884864951542113, 0.40545177133753896, 0.42040113458642736, 0.4387348149321042, 0.4551488382567186, 0.470016622915864, 0.4881915833975654, 0.507565305539174, 0.5200154282501899, 0.5401738750369987, 0.5549061504716519, 0.5731493775674608, 0.5883646392467199, 0.606810276847682, 0.6199577429651981, 0.6409927330096252, 0.655108560968074, 0.6731650788860861, 0.6882086500554578, 0.7070625219639624, 0.7199833429331193, 0.739963272557361, 0.7548566571786068, 0.7732074041850865, 0.7883492792607285, 0.8065590557234827, 0.8199420416349312, 0.8415781191724818, 0.8548232065368211, 0.8730459536600392, 0.8881929487397429, 0.9086056886444567, 0.9200144042406464, 0.9418487962830113, 0.9548023852257757, 0.9728322791779647, 0.9881827087374404, 1.0061569654062623, 1.0201379667996662, 1.0393260037672007, 1.0550157183752162, 1.072690625966061, 1.0882574606803246, 1.1062795039615594, 1.1199918762577, 1.1394703876430867, 1.1549587157642236, 1.172711447274196, 1.1880734821752412, 1.2060846028034575, 1.2199464789737249, 1.2398519979906268, 1.2549174144660356, 1.2714505630137865, 1.2882601913443068, 1.308310094231274]
31	电话	False	animate	inanimate	right	1.669	[0.0, 0.0, 0.0, 0.0, 0.0, 0.0, 0.0, 0.0, 0.0, 0.0, 0.0, 0.0, 0.0, 0.0, 0.0, 0.0, 0.0, 0.0, 0.0, 0.0, 0.0, 0.0, 0.0, 0.0, 0.0, 0.0, 0.0, 0.0, 0.0, 0.0, 0.0, 0.0, 0.0, 0.0, 0.0, 0.0, 0.0, 0.0, 0.0, 0.0, 0.0, 0.0, 0.0, -23.0, -45.0, -56.0, -95.0, -142.0, -190.0, -246.0, -313.0, -373.0, -426.0, -457.0, -480.0, -483.0, -485.0, -480.0, -447.0, -401.0, -338.0, -252.0, -163.0, -67.0, 26.0, 109.0, 187.0, 286.0, 345.0, 400.0, 463.0, 523.0, 578.0, 629.0, 673.0, 715.0, 776.0, 803.0, 874.0, 917.0, 957.0, 959.0, 959.0, 959.0, 959.0, 959.0, 959.0, 959.0, 958.0, 948.0, 936.0, 914.0, 900.0, 891.0, 864.0, 851.0, 843.0, 841.0, 841.0, 841.0, 841.0]	[-490.0, -490.0, -490.0, -490.0, -490.0, -490.0, -490.0, -490.0, -490.0, -490.0, -490.0, -490.0, -490.0, -490.0, -490.0, -490.0, -490.0, -490.0, -490.0, -490.0, -490.0, -490.0, -490.0, -490.0, -490.0, -490.0, -490.0, -490.0, -490.0, -490.0, -490.0, -490.0, -490.0, -490.0, -490.0, -490.0, -490.0, -490.0, -490.0, -490.0, -490.0, -490.0, -490.0, -484.0, -476.0, -471.0, -455.0, -433.0, -406.0, -372.0, -330.0, -288.0, -247.0, -216.0, -176.0, -153.0, -130.0, -118.0, -83.0, -55.0, -20.0, 15.0, 53.0, 86.0, 119.0, 142.0, 162.0, 193.0, 209.0, 227.0, 244.0, 262.0, 282.0, 301.0, 322.0, 340.0, 366.0, 382.0, 431.0, 466.0, 500.0, 515.0, 540.0, 540.0, 540.0, 540.0, 540.0, 540.0, 540.0, 540.0, 535.0, 519.0, 509.0, 505.0, 495.0, 491.0, 489.0, 488.0, 488.0, 488.0, 488.0]	[0.015294109587557614, 0.020297369323088787, 0.02876242875936441, 0.04718280771339778, 0.06388389212952461, 0.07900119123223703, 0.09721881835139357, 0.11367346030601766, 0.1290303752030013, 0.14707562913827132, 0.16389208412147127, 0.17875884476234205, 0.19721028502681293, 0.2172823745640926, 0.22871532480348833, 0.24694455724966247, 0.2639053961029276, 0.2786130955646513, 0.2971928770421073, 0.3136683403135976, 0.32901330855384003, 0.3468708293075906, 0.3638562441483373, 0.37862231154576875, 0.39721369835024234, 0.413538633758435, 0.42879622073087376, 0.44688209329615347, 0.46386409481056035, 0.47865303153230343, 0.4972334956692066, 0.5136710709775798, 0.529047783187707, 0.5469742532295641, 0.5639043721166672, 0.5786646368505899, 0.6005434021790279, 0.6175093610363547, 0.6289672285929555, 0.6469817625475116, 0.6639760520483833, 0.6785816929186694, 0.697164205063018, 0.7136970122810453, 0.7290129672182957, 0.7469923438766273, 0.763880820129998, 0.7788144820515299, 0.7971645463985624, 0.8155262160580605, 0.8290600711770821, 0.848282582781394, 0.8638357641757466, 0.8814355784852523, 0.8971157357736956, 0.9150459604716161, 0.9290061405627057, 0.9481310309056425, 0.9638685321406228, 0.9803590140654705, 0.9971358744223835, 1.0147025794285582, 1.0290020445536356, 1.0479357884032652, 1.0638067508552922, 1.0797862572217127, 1.0969331225933274, 1.1141001266078092, 1.1290457351860823, 1.1471828077192185, 1.1637040096102282, 1.1786987701489124, 1.1966750748106278, 1.2171338946936885, 1.2286105355597101, 1.2483911266754149, 1.2633203512814362, 1.2815762076934334, 1.296953261247836, 1.314991347186151, 1.3289016926428303, 1.3475193620979553, 1.3635510924068512, 1.3790561458445154, 1.3968986479594605, 1.4139656413899502, 1.4285961995774414, 1.447149698404246, 1.4635555297427345, 1.4791076871333644, 1.4968590533244424, 1.51389703345194, 1.528930705957464, 1.5472005570336478, 1.5671835586399538, 1.5788807006611023, 1.596737197425682, 1.6139588147343602, 1.6286791434977204, 1.6471449197415495, 1.663382815226214]
32	米饭	False	animate	inanimate	right	1.679	[0.0, 0.0, 0.0, 0.0, 0.0, 0.0, 0.0, 0.0, 0.0, 0.0, 1.0, 1.0, 1.0, 1.0, 1.0, 1.0, 1.0, 1.0, 1.0, 3.0, 3.0, 3.0, 2.0, -4.0, -7.0, -11.0, -16.0, -23.0, -26.0, -28.0, -30.0, -30.0, -30.0, -29.0, -23.0, -13.0, -1.0, 10.0, 19.0, 28.0, 36.0, 41.0, 44.0, 51.0, 52.0, 52.0, 49.0, 39.0, 24.0, 9.0, -21.0, -54.0, -95.0, -202.0, -247.0, -404.0, -520.0, -639.0, -741.0, -813.0, -842.0, -853.0, -855.0, -855.0, -855.0, -855.0, -854.0, -848.0, -843.0, -839.0, -832.0, -825.0, -813.0, -792.0, -752.0, -734.0, -654.0, -579.0, -533.0, -349.0, -200.0, -36.0, 134.0, 296.0, 447.0, 580.0, 688.0, 767.0, 817.0, 831.0, 834.0, 834.0, 834.0, 834.0, 829.0, 827.0, 826.0, 826.0, 826.0, 826.0, 826.0]	[-490.0, -490.0, -490.0, -490.0, -490.0, -490.0, -490.0, -490.0, -490.0, -490.0, -490.0, -490.0, -490.0, -490.0, -490.0, -490.0, -490.0, -490.0, -490.0, -483.0, -476.0, -469.0, -459.0, -441.0, -425.0, -406.0, -386.0, -355.0, -336.0, -316.0, -308.0, -280.0, -260.0, -241.0, -223.0, -203.0, -182.0, -164.0, -143.0, -122.0, -97.0, -83.0, -76.0, -58.0, -47.0, -31.0, -16.0, 0.0, 16.0, 29.0, 45.0, 58.0, 73.0, 107.0, 119.0, 162.0, 195.0, 228.0, 257.0, 281.0, 288.0, 294.0, 295.0, 295.0, 296.0, 297.0, 299.0, 300.0, 303.0, 305.0, 310.0, 315.0, 322.0, 331.0, 342.0, 345.0, 358.0, 363.0, 363.0, 363.0, 363.0, 363.0, 363.0, 363.0, 363.0, 363.0, 363.0, 363.0, 363.0, 365.0, 365.0, 365.0, 365.0, 368.0, 373.0, 374.0, 375.0, 375.0, 375.0, 375.0, 375.0]	[0.012532725304481573, 0.01669357508944813, 0.023050902993418276, 0.04148254593019374, 0.058746488532051444, 0.07306643364427146, 0.09215787335415371, 0.10801176915992983, 0.12356426789483521, 0.14126272745488677, 0.16157272612326778, 0.1730445883295033, 0.19326959508180153, 0.2081336250557797, 0.22653659601928666, 0.24145626329118386, 0.2603227645304287, 0.2730582416552352, 0.2936290187644772, 0.30811860640824307, 0.32580477798182983, 0.34149380993039813, 0.3593404080311302, 0.37309408163127955, 0.3924309397843899, 0.40812645707046613, 0.4260181111312704, 0.4414740126085235, 0.45910215756157413, 0.4730415163357975, 0.49442807941522915, 0.5078905959380791, 0.5238823902909644, 0.5414924445940414, 0.5584908300807001, 0.5730988602881553, 0.5915270898985909, 0.6080370278068585, 0.623415105350432, 0.6413948233384872, 0.6581679290247848, 0.673085206959513, 0.6915397192206001, 0.7080909584328765, 0.7235280865861569, 0.741392434007139, 0.7582949049246963, 0.7732715748134069, 0.7914625779521884, 0.8079824145243037, 0.8233939427009318, 0.8414282739831833, 0.8582242489792407, 0.8730855483008781, 0.89144585262693, 0.9077902440185426, 0.9233208974328591, 0.9410930849262513, 0.958226979651954, 0.9730544869962614, 0.991453703289153, 1.0077895613503642, 1.023352300078841, 1.0412238154822262, 1.0581675876892405, 1.0730469776608516, 1.091491591258091, 1.1078827452729456, 1.1233475214103237, 1.1412432714714669, 1.1580764517711941, 1.1732237881806213, 1.1915089992398862, 1.208011427836027, 1.223376193389413, 1.2412733087840024, 1.2581911396700889, 1.2730572176515125, 1.291659185779281, 1.3080069904972333, 1.3233191907638684, 1.3412859381060116, 1.3582617956126342, 1.3733091214380693, 1.391580679177423, 1.407830179989105, 1.4234376333333785, 1.4412156234902795, 1.4581153637409443, 1.47325758014631, 1.4915762418531813, 1.5097720236663008, 1.5234434359881561, 1.5416241991479183, 1.5582402916334104, 1.5757725220028078, 1.5915250418911455, 1.60995736750192, 1.6233959906967357, 1.643174533819547, 1.658224248982151]
