trialIndex	stimulus	left_option	right_option	response	response_time	xTrajectory	yTrajectory	tTrajectory
0	inanimate/n76.jpg	animate	inanimate	right	1.346	[0.0, 0.0, 0.0, 0.0, 0.0, 0.0, 0.0, 0.0, 0.0, 0.0, 0.0, 0.0, 0.0, 0.0, 0.0, 0.0, 0.0, 0.0, 0.0, 0.0, 0.0, 0.0, 0.0, 0.0, 0.0, 0.0, 0.0, 0.0, 0.0, 0.0, 0.0, 0.0, 0.0, 0.0, 0.0, 0.0, 0.0, 0.0, 0.0, 0.0, 0.0, 0.0, 0.0, 0.0, 0.0, 0.0, 0.0, 0.0, 0.0, 0.0, 0.0, 0.0, 0.0, 0.0, 0.0, 0.0, 0.0, 0.0, 0.0, 0.0, 6.0, 61.0, 149.0, 305.0, 407.0, 502.0, 597.0, 688.0, 769.0, 834.0, 871.0, 889.0, 894.0, 895.0, 895.0, 895.0, 895.0, 895.0, 895.0, 895.0, 895.0]	[-490.0, -490.0, -490.0, -490.0, -490.0, -490.0, -490.0, -490.0, -490.0, -490.0, -490.0, -490.0, -490.0, -490.0, -490.0, -490.0, -490.0, -490.0, -490.0, -490.0, -490.0, -490.0, -490.0, -490.0, -490.0, -490.0, -490.0, -490.0, -490.0, -490.0, -490.0, -490.0, -490.0, -490.0, -490.0, -490.0, -490.0, -490.0, -490.0, -490.0, -490.0, -490.0, -490.0, -490.0, -490.0, -490.0, -490.0, -490.0, -490.0, -490.0, -490.0, -490.0, -490.0, -490.0, -490.0, -490.0, -490.0, -490.0, -490.0, -490.0, -485.0, -408.0, -303.0, -117.0, 11.0, 134.0, 262.0, 377.0, 476.0, 540.0, 540.0, 540.0, 540.0, 540.0, 540.0, 540.0, 540.0, 540.0, 540.0, 540.0, 540.0]	[0.009600537945516407, 0.0148157654912211, 0.020113595644943416, 0.03458440990652889, 0.05082469474291429, 0.06794664281187579, 0.08421662356704473, 0.10122832108754665, 0.1176187923992984, 0.13459294324275106, 0.15079499874264002, 0.16791626415215433, 0.1876900286297314, 0.20120681705884635, 0.21781437622848898, 0.23468476184643805, 0.25107011321233585, 0.2679469841532409, 0.2843470128136687, 0.30128600634634495, 0.3174344725557603, 0.3346079619368538, 0.3508038734435104, 0.36782410426530987, 0.38437363679986447, 0.4012962463311851, 0.4175249258405529, 0.434605231275782, 0.4510045772767626, 0.4679807760985568, 0.4844053807319142, 0.5013266250025481, 0.5176921790116467, 0.5347110445145518, 0.5507864654646255, 0.567973266763147, 0.5843872901168652, 0.6012546037090942, 0.6175068352022208, 0.6346581378602423, 0.6510243745869957, 0.6680282214074396, 0.6842650928883813, 0.7012003317358904, 0.7177379176719114, 0.734625028562732, 0.7509991159313358, 0.7680463120341301, 0.7841015943558887, 0.8010699425358325, 0.8175836351001635, 0.8345431086490862, 0.8509871692513116, 0.8680046694353223, 0.8843610074836761, 0.9013467636541463, 0.9177297256537713, 0.9346352685824968, 0.951041441236157, 0.9679599548107944, 0.9857259982964024, 1.0011859957594424, 1.0177331389859319, 1.0347185538266785, 1.0510230092331767, 1.0680364134022966, 1.0843879727763124, 1.1012870303238742, 1.1176798910018988, 1.134599428565707, 1.1509946786100045, 1.1679756561061367, 1.1843388208071701, 1.2014000116032548, 1.2176826216746122, 1.2346086445613764, 1.2507820281316526, 1.2679643921437673, 1.284322436840739, 1.3012307104072534, 1.3177693202742375]
1	animate/a19.jpg	animate	inanimate	left	1.465	[0.0, 0.0, 0.0, 0.0, 0.0, 0.0, 0.0, 0.0, 0.0, 0.0, 0.0, 0.0, 0.0, 0.0, 0.0, 0.0, 0.0, 0.0, 0.0, 0.0, 0.0, 0.0, 0.0, 0.0, 0.0, 0.0, 0.0, 0.0, 0.0, 0.0, 0.0, 0.0, 0.0, 0.0, 0.0, 0.0, 0.0, 0.0, 0.0, 0.0, 0.0, 3.0, 9.0, 20.0, 34.0, 53.0, 67.0, 72.0, 54.0, 12.0, -55.0, -150.0, -259.0, -368.0, -478.0, -600.0, -702.0, -795.0, -875.0, -944.0, -960.0, -960.0, -960.0, -960.0, -960.0, -960.0, -960.0, -960.0, -960.0, -960.0, -960.0, -960.0, -960.0, -960.0, -960.0, -960.0, -960.0, -960.0, -960.0, -958.0, -955.0, -952.0, -944.0, -935.0, -915.0, -902.0, -897.0, -897.0]	[-490.0, -490.0, -490.0, -490.0, -490.0, -490.0, -490.0, -490.0, -490.0, -490.0, -490.0, -490.0, -490.0, -490.0, -490.0, -490.0, -490.0, -490.0, -490.0, -490.0, -490.0, -490.0, -490.0, -490.0, -490.0, -490.0, -490.0, -490.0, -490.0, -490.0, -490.0, -490.0, -490.0, -490.0, -490.0, -490.0, -490.0, -490.0, -490.0, -490.0, -490.0, -489.0, -479.0, -459.0, -424.0, -374.0, -313.0, -235.0, -170.0, -112.0, -46.0, 25.0, 85.0, 136.0, 183.0, 225.0, 265.0, 298.0, 325.0, 354.0, 370.0, 373.0, 375.0, 376.0, 376.0, 376.0, 376.0, 376.0, 376.0, 376.0, 376.0, 376.0, 376.0, 376.0, 376.0, 376.0, 376.0, 376.0, 377.0, 381.0, 383.0, 389.0, 397.0, 407.0, 419.0, 424.0, 425.0, 426.0]	[0.005435319093521684, 0.010994951706379652, 0.02627267735078931, 0.042539586138445884, 0.059605896880384535, 0.07585744565585628, 0.0928988391533494, 0.10939068638253957, 0.12630988261662424, 0.14268396998522803, 0.15967382217058912, 0.1761892213835381, 0.19301625771913677, 0.20939717174042016, 0.22631602664478123, 0.24273755925241858, 0.25966699549462646, 0.27614348276983947, 0.29302649770397693, 0.3094125317293219, 0.326291109318845, 0.34261229005642235, 0.3597014701226726, 0.37606053886702284, 0.3929869030835107, 0.4094053637236357, 0.42636483727255836, 0.4427542845951393, 0.45965197682380676, 0.4761520160827786, 0.49306848167907447, 0.509447006334085, 0.5263446986209601, 0.5427573565975763, 0.5596816728357226, 0.5760543948272243, 0.5930104550207034, 0.6093930757488124, 0.6263296799734235, 0.6427252712892368, 0.6596533421543427, 0.6758277497137897, 0.6928971324814484, 0.7094091183971614, 0.72638668253785, 0.742754967242945, 0.7596390061662532, 0.7760939894942567, 0.7930196710512973, 0.8094633903237991, 0.826505807810463, 0.8426296980469488, 0.8596185261849314, 0.8760642934939824, 0.8929688124335371, 0.909364745079074, 0.9264023838914, 0.9427252712775953, 0.9596854274859652, 0.975789861753583, 0.9929240978090093, 1.0093510917504318, 1.0264938611653633, 1.0425204714410938, 1.059572446218226, 1.0760526881786063, 1.0930125030572526, 1.1091664306004532, 1.1261593547533266, 1.142709911277052, 1.1596062382450327, 1.175831504398957, 1.1929179537692107, 1.2093807877390645, 1.22619758406654, 1.2427140073268674, 1.2595847342163324, 1.2761482614441775, 1.2930237670079805, 1.3094145797076635, 1.3262859893147834, 1.3427280019386671, 1.3596666541416198, 1.3762779679964297, 1.3930200123577379, 1.4093596250750124, 1.4263412852887996, 1.4427768125897273]
2	inanimate/n58.jpg	animate	inanimate	right	1.732	[0.0, 0.0, 0.0, 0.0, 0.0, 0.0, 0.0, 0.0, 0.0, 0.0, 0.0, 0.0, 0.0, 0.0, 0.0, 0.0, 0.0, 0.0, 0.0, 0.0, 0.0, 0.0, 0.0, 0.0, 0.0, 0.0, 0.0, 0.0, 0.0, 0.0, 0.0, 0.0, 0.0, 0.0, 0.0, 0.0, 0.0, 0.0, 0.0, 0.0, 0.0, 0.0, 0.0, 0.0, 0.0, 0.0, 0.0, -10.0, -17.0, -29.0, -49.0, -76.0, -106.0, -136.0, -181.0, -242.0, -320.0, -415.0, -497.0, -565.0, -635.0, -662.0, -676.0, -682.0, -684.0, -685.0, -687.0, -689.0, -689.0, -689.0, -689.0, -689.0, -689.0, -693.0, -698.0, -701.0, -702.0, -708.0, -713.0, -717.0, -723.0, -726.0, -726.0, -726.0, -726.0, -726.0, -726.0, -693.0, -585.0, -434.0, -267.0, -87.0, 112.0, 317.0, 530.0, 703.0, 909.0, 959.0, 959.0, 959.0, 959.0, 959.0, 959.0, 959.0]	[-490.0, -490.0, -490.0, -490.0, -490.0, -490.0, -490.0, -490.0, -490.0, -490.0, -490.0, -490.0, -490.0, -490.0, -490.0, -490.0, -490.0, -491.0, -491.0, -491.0, -491.0, -491.0, -491.0, -491.0, -491.0, -491.0, -491.0, -491.0, -491.0, -491.0, -491.0, -491.0, -491.0, -491.0, -491.0, -491.0, -491.0, -491.0, -491.0, -491.0, -491.0, -491.0, -491.0, -491.0, -491.0, -491.0, -479.0, -446.0, -433.0, -419.0, -401.0, -378.0, -345.0, -301.0, -236.0, -149.0, -55.0, 52.0, 169.0, 269.0, 365.0, 394.0, 405.0, 408.0, 412.0, 413.0, 416.0, 418.0, 419.0, 419.0, 419.0, 419.0, 419.0, 422.0, 423.0, 424.0, 424.0, 426.0, 426.0, 427.0, 427.0, 427.0, 427.0, 427.0, 427.0, 427.0, 427.0, 427.0, 427.0, 427.0, 427.0, 438.0, 463.0, 494.0, 524.0, 540.0, 540.0, 540.0, 540.0, 540.0, 540.0, 540.0, 540.0, 540.0]	[0.00986476382240653, 0.01990644057514146, 0.03467899333918467, 0.05144322436535731, 0.06844741251552477, 0.08473821461666375, 0.10159392288187519, 0.11780485307099298, 0.13494284375337884, 0.15141455235425383, 0.16841054853284732, 0.1848037505405955, 0.20174991205567494, 0.21805505017982796, 0.2350001877057366, 0.2513589150621556, 0.2683890445623547, 0.28476517990930006, 0.3016963228001259, 0.3180495888227597, 0.33500667300540954, 0.35141728300368413, 0.3682893752702512, 0.3846798466402106, 0.4016212295391597, 0.41804242081707343, 0.43504080636193976, 0.4513790537021123, 0.4682709433254786, 0.48478156386408955, 0.5016656027873978, 0.5180492475046776, 0.5350346623454243, 0.5513735924032517, 0.5683235086034983, 0.5844685615156777, 0.6014693363104016, 0.6181857807096094, 0.6350513876532204, 0.651384515047539, 0.6683549112640321, 0.6847310466109775, 0.7016683334950358, 0.7180676794960164, 0.735025787667837, 0.7513500404311344, 0.769510323589202, 0.7847617665538564, 0.8017004188150167, 0.8180523195187561, 0.835150032886304, 0.8514995442819782, 0.8682726499973796, 0.884792486554943, 0.9016096242121421, 0.9181188794318587, 0.9351466195657849, 0.9514312776736915, 0.968385289888829, 0.9847655212506652, 1.0015802695415914, 1.0180919141275808, 1.0351227262872271, 1.0514128456707112, 1.0682972259819508, 1.0847167106112465, 1.1015710535575636, 1.1178086076979525, 1.1349524011020549, 1.1513479924178682, 1.1682439779979177, 1.184689403977245, 1.2016290801693685, 1.2180113595095463, 1.2350377343245782, 1.2514189896755852, 1.2682893752935342, 1.2846917933202349, 1.3016345415380783, 1.3180748474551365, 1.3350848383270204, 1.3513981683645397, 1.3682521699811332, 1.384437158878427, 1.4014939122716896, 1.4180577808292583, 1.4352165928576142, 1.4514213790534995, 1.468320777930785, 1.4847156865871511, 1.5016307868645526, 1.5180591461830772, 1.5350305663305335, 1.5511790325399488, 1.5681497700861655, 1.5846003160695545, 1.6015823175548576, 1.6180581221706234, 1.635087227623444, 1.6512193098897114, 1.6681825380655937, 1.6846009987057187, 1.7015894855721854, 1.717837962321937]
3	animate/a3.jpg	animate	inanimate	left	1.316	[0.0, 0.0, 0.0, 0.0, 0.0, 0.0, 0.0, 0.0, 0.0, 0.0, 0.0, 0.0, 0.0, 0.0, 0.0, 0.0, 0.0, 0.0, 0.0, 0.0, 0.0, 0.0, 0.0, 0.0, 0.0, 0.0, 0.0, 0.0, 0.0, 0.0, 0.0, 0.0, 0.0, 0.0, 0.0, 0.0, 0.0, 0.0, 0.0, 0.0, 0.0, 0.0, 0.0, 0.0, 0.0, 0.0, 0.0, 0.0, 0.0, 0.0, 0.0, 0.0, -1.0, -25.0, -80.0, -163.0, -265.0, -355.0, -420.0, -458.0, -475.0, -487.0, -491.0, -496.0, -503.0, -518.0, -534.0, -563.0, -609.0, -659.0, -703.0, -731.0, -748.0, -758.0, -759.0, -759.0, -759.0, -759.0, -759.0]	[-490.0, -490.0, -490.0, -490.0, -490.0, -490.0, -490.0, -490.0, -490.0, -490.0, -490.0, -490.0, -490.0, -490.0, -490.0, -490.0, -490.0, -490.0, -490.0, -490.0, -490.0, -490.0, -490.0, -490.0, -490.0, -490.0, -490.0, -490.0, -490.0, -490.0, -490.0, -490.0, -490.0, -490.0, -490.0, -490.0, -490.0, -490.0, -490.0, -490.0, -490.0, -490.0, -490.0, -490.0, -490.0, -490.0, -490.0, -490.0, -490.0, -490.0, -490.0, -490.0, -489.0, -467.0, -414.0, -343.0, -264.0, -192.0, -139.0, -114.0, -103.0, -92.0, -83.0, -64.0, -39.0, 11.0, 63.0, 118.0, 190.0, 259.0, 308.0, 347.0, 369.0, 387.0, 389.0, 390.0, 390.0, 390.0, 390.0]	[0.0014700531610287726, 0.007461130735464394, 0.018126764276530594, 0.03465445153415203, 0.051845690177287906, 0.06798732973402366, 0.08500721922609955, 0.10142943455139175, 0.11828855617204681, 0.13491488865111023, 0.15174875158118084, 0.16810065228492022, 0.18497342726914212, 0.20147244248073548, 0.21838378807296976, 0.23487392865354195, 0.2517641115700826, 0.2681706255534664, 0.28499288321472704, 0.30153422377770767, 0.3184913079603575, 0.3348080513533205, 0.3516565916943364, 0.368126934976317, 0.3850683178170584, 0.4014779038261622, 0.41844249732093886, 0.4346196355181746, 0.45166171167511493, 0.4681634575827047, 0.4851567230653018, 0.501444794528652, 0.5183619427261874, 0.5346380675327964, 0.5516828743275255, 0.5681395642459393, 0.5851297577610239, 0.6014717598445714, 0.6183496547746472, 0.6348681260133162, 0.6517620635568164, 0.668148438911885, 0.6851393150864169, 0.7014748318470083, 0.718395734729711, 0.7347650434239767, 0.7517391942674294, 0.7679586577578448, 0.7850918698241003, 0.8015396851114929, 0.8184168973821215, 0.8348234113655053, 0.8517740102251992, 0.8682685881503858, 0.8849935659090988, 0.9014942878275178, 0.9183179108076729, 0.9347875713719986, 0.9517422662465833, 0.9681163536151871, 0.9849997098790482, 1.0013509279233404, 1.0183793507167138, 1.0348377473419532, 1.0516951623139903, 1.0678798098233528, 1.0849993685260415, 1.101496335817501, 1.1183957346947864, 1.1346346542122774, 1.1516722929663956, 1.168082220305223, 1.185067293816246, 1.201309626630973, 1.218353750766255, 1.2348039553617127, 1.2516524957027286, 1.2678842471796088, 1.2851556990644895]
4	inanimate/n25.jpg	animate	inanimate	right	1.098	[0.0, 0.0, 0.0, 0.0, 0.0, 0.0, 0.0, 0.0, 0.0, 0.0, 0.0, 0.0, 0.0, 0.0, 0.0, 0.0, 0.0, 0.0, 0.0, 0.0, 0.0, 0.0, 0.0, 0.0, 0.0, 0.0, 0.0, 0.0, 0.0, 0.0, 0.0, 0.0, 0.0, 0.0, 0.0, 0.0, 0.0, 0.0, 0.0, 0.0, 0.0, 0.0, -3.0, -16.0, -20.0, -21.0, -21.0, -21.0, -16.0, 14.0, 69.0, 170.0, 281.0, 407.0, 536.0, 725.0, 838.0, 922.0, 959.0, 959.0, 959.0, 959.0, 959.0, 959.0, 959.0, 959.0]	[-490.0, -490.0, -490.0, -490.0, -490.0, -490.0, -490.0, -490.0, -490.0, -490.0, -490.0, -490.0, -490.0, -490.0, -490.0, -490.0, -490.0, -490.0, -490.0, -490.0, -490.0, -490.0, -490.0, -490.0, -490.0, -490.0, -490.0, -490.0, -490.0, -490.0, -490.0, -490.0, -490.0, -490.0, -490.0, -490.0, -490.0, -490.0, -490.0, -490.0, -490.0, -490.0, -478.0, -446.0, -437.0, -433.0, -431.0, -426.0, -413.0, -386.0, -332.0, -254.0, -154.0, -50.0, 59.0, 220.0, 314.0, 392.0, 451.0, 496.0, 523.0, 540.0, 540.0, 540.0, 540.0, 540.0]	[0.00462465308373794, 0.009756936691701412, 0.02475954790133983, 0.04112476058071479, 0.058260703342966735, 0.07450542546575889, 0.09150893095647916, 0.10778881039004773, 0.12475442793220282, 0.141286552476231, 0.15825046331156045, 0.17462216137209907, 0.19171475479379296, 0.20797108224360272, 0.2249448917573318, 0.24135550175560638, 0.2583511565462686, 0.27477780921617523, 0.2916075761895627, 0.3080332048702985, 0.32497902505565435, 0.3413193204323761, 0.3581883407314308, 0.3746184066985734, 0.39152429095702246, 0.407885066291783, 0.42483464116230607, 0.4413155657821335, 0.45825865532970056, 0.4744842628133483, 0.4914509043446742, 0.5079741542576812, 0.5248786731390283, 0.5413138591102324, 0.5582719672820531, 0.5745859800372273, 0.5916304455022328, 0.6079482129425742, 0.6249346517724916, 0.641293037799187, 0.6582774286507629, 0.6745822253869846, 0.6915553522412665, 0.7080758714582771, 0.7248902784776874, 0.7410254327114671, 0.7582436366938055, 0.7743709402275272, 0.7916499014827423, 0.8080871354904957, 0.8249786837259308, 0.8413865630282089, 0.8582740153069608, 0.874395857565105, 0.8914935709326528, 0.9080096528632566, 0.9249394304351881, 0.9414978376007639, 0.9583726605633274, 0.9746170413563959, 0.9915836828877218, 1.0076874344958924, 1.0249483051011339, 1.0413357044453733, 1.058247732638847, 1.0746470786398277]
5	inanimate/n27.jpg	inanimate	animate	left	1.081	[0.0, 0.0, 0.0, 0.0, 0.0, 0.0, 0.0, 0.0, 0.0, 0.0, 0.0, 0.0, 0.0, 0.0, 0.0, 0.0, 0.0, 0.0, 0.0, 0.0, 0.0, 0.0, 0.0, 0.0, 0.0, 0.0, 0.0, 0.0, 0.0, 0.0, 0.0, 0.0, 0.0, -9.0, -25.0, -33.0, -38.0, -43.0, -43.0, -43.0, -43.0, -43.0, -43.0, -43.0, -43.0, -46.0, -54.0, -67.0, -76.0, -99.0, -137.0, -171.0, -286.0, -412.0, -532.0, -655.0, -752.0, -840.0, -896.0, -923.0, -932.0, -933.0, -933.0, -933.0, -933.0]	[-490.0, -490.0, -490.0, -490.0, -490.0, -490.0, -490.0, -490.0, -490.0, -490.0, -490.0, -490.0, -490.0, -490.0, -490.0, -490.0, -490.0, -490.0, -490.0, -490.0, -490.0, -490.0, -490.0, -490.0, -490.0, -490.0, -490.0, -490.0, -490.0, -490.0, -490.0, -490.0, -490.0, -483.0, -470.0, -463.0, -460.0, -456.0, -456.0, -456.0, -456.0, -456.0, -448.0, -431.0, -409.0, -381.0, -318.0, -242.0, -155.0, -36.0, 16.0, 53.0, 135.0, 210.0, 277.0, 327.0, 367.0, 399.0, 424.0, 442.0, 450.0, 453.0, 453.0, 453.0, 453.0]	[0.013565462490078062, 0.019103932427242398, 0.025231884559616446, 0.041921022289898247, 0.05899245309410617, 0.07530066318577155, 0.0923492246074602, 0.10862296004779637, 0.12565547885606065, 0.14211489947047085, 0.15909075702074915, 0.1754259323934093, 0.19240520324092358, 0.20883014920400456, 0.22574559081112966, 0.24213879281887785, 0.2590798343298957, 0.27543856168631464, 0.29233659530291334, 0.30877075728494674, 0.325733985460829, 0.3421196781564504, 0.35903136507840827, 0.3754279803833924, 0.3923099713283591, 0.4085147574660368, 0.42561076424317434, 0.4420056728995405, 0.4590402396861464, 0.4755689509329386, 0.49244036054005846, 0.5088188852532767, 0.5256899534724653, 0.5421292354585603, 0.5590835890034214, 0.5752211325452663, 0.5923540032817982, 0.6087891892530024, 0.6257087268168107, 0.6421759980730712, 0.6590757383382879, 0.6751730046235025, 0.6922266860492527, 0.7085905334097333, 0.7256489935098216, 0.742149374098517, 0.7590142983826809, 0.7751610579434782, 0.7922150807571597, 0.8089240157860331, 0.8257298894459382, 0.8421678061131388, 0.8590934876701795, 0.875173004635144, 0.8923935979255475, 0.9087547145900317, 0.925693366851192, 0.9420449262252077, 0.9590139570645988, 0.9754327590344474, 0.9924011072143912, 1.0084932534955442, 1.0256571855279617, 1.0422695233719423, 1.0591030449722894]
6	animate/a51.jpg	animate	inanimate	left	1.709	[0.0, 0.0, 0.0, 0.0, 0.0, 0.0, 0.0, 0.0, 0.0, 0.0, 0.0, 0.0, 0.0, 0.0, 0.0, 0.0, 0.0, 0.0, 0.0, 0.0, 0.0, 0.0, 0.0, 0.0, 0.0, 0.0, 0.0, 0.0, 0.0, 0.0, 0.0, 0.0, 0.0, 0.0, 0.0, 0.0, 0.0, 0.0, 0.0, 0.0, 0.0, 0.0, 0.0, 0.0, 0.0, 0.0, 0.0, 0.0, 0.0, 0.0, 0.0, 5.0, 18.0, 41.0, 83.0, 148.0, 269.0, 366.0, 460.0, 544.0, 608.0, 668.0, 709.0, 743.0, 764.0, 776.0, 782.0, 788.0, 792.0, 793.0, 793.0, 793.0, 793.0, 794.0, 795.0, 796.0, 796.0, 796.0, 798.0, 799.0, 799.0, 799.0, 799.0, 799.0, 799.0, 799.0, 799.0, 791.0, 733.0, 622.0, 465.0, 264.0, -56.0, -250.0, -420.0, -547.0, -647.0, -702.0, -729.0, -732.0, -732.0, -732.0, -732.0]	[-490.0, -490.0, -490.0, -490.0, -490.0, -490.0, -490.0, -490.0, -490.0, -490.0, -490.0, -490.0, -490.0, -490.0, -490.0, -490.0, -490.0, -490.0, -490.0, -490.0, -490.0, -490.0, -490.0, -490.0, -490.0, -490.0, -490.0, -490.0, -490.0, -490.0, -490.0, -490.0, -490.0, -490.0, -490.0, -490.0, -490.0, -490.0, -490.0, -490.0, -490.0, -490.0, -490.0, -490.0, -490.0, -490.0, -490.0, -490.0, -490.0, -490.0, -483.0, -472.0, -455.0, -432.0, -390.0, -331.0, -218.0, -122.0, -26.0, 54.0, 122.0, 187.0, 229.0, 260.0, 278.0, 292.0, 304.0, 314.0, 323.0, 328.0, 332.0, 335.0, 339.0, 343.0, 347.0, 354.0, 360.0, 365.0, 372.0, 375.0, 379.0, 379.0, 379.0, 379.0, 379.0, 379.0, 380.0, 381.0, 391.0, 406.0, 426.0, 446.0, 462.0, 462.0, 462.0, 462.0, 462.0, 462.0, 462.0, 462.0, 462.0, 462.0, 462.0]	[0.0020789571572095156, 0.010678843187633902, 0.019138099974952638, 0.03617096005473286, 0.05249589547747746, 0.06942737969802693, 0.0858345763408579, 0.10270291398046538, 0.11913434526650235, 0.13612283213296905, 0.15254026878392324, 0.16946936363819987, 0.18582536035683006, 0.20270769263152033, 0.21893432410433888, 0.2360115575720556, 0.2525389034417458, 0.26939836639212444, 0.28588099766056985, 0.3028370578540489, 0.3191206919727847, 0.33610917878104374, 0.3523405889282003, 0.3694430810282938, 0.3858376483549364, 0.4027906365809031, 0.41888892685528845, 0.4359757175552659, 0.4525399274425581, 0.4693987077334896, 0.48587758431676775, 0.5028005352360196, 0.5189107721671462, 0.5360600268468261, 0.5526665620272979, 0.5694867716520093, 0.5858356003882363, 0.6027626472641714, 0.619144243944902, 0.6361119094653986, 0.6523723329300992, 0.6693826650734991, 0.6858048803987913, 0.7027735699084587, 0.7191756466054358, 0.7361201014718972, 0.7524194368743338, 0.7693710597231984, 0.7858123897458427, 0.8028176018851809, 0.8191476572537795, 0.8361344374716282, 0.8525023807887919, 0.8694383023539558, 0.8858041977509856, 0.9028001938713714, 0.9191681372467428, 0.9361463841050863, 0.9524289942346513, 0.9694434223347344, 0.9855755046010017, 1.0026281620375812, 1.0189984947210178, 1.0360753868008032, 1.0524603968369775, 1.0694246490602382, 1.085804539034143, 1.1027698152465746, 1.1191596039570868, 1.1361313654342666, 1.1522405783762224, 1.1693789103883319, 1.1855598032707348, 1.2027582099544816, 1.218976308067795, 1.2361102027934976, 1.2524842901621014, 1.269419529067818, 1.285826725710649, 1.3027978045865893, 1.3191838385537267, 1.3361556000891142, 1.3525040874956176, 1.3694516143295914, 1.385829797713086, 1.4028124818578362, 1.4188821001444012, 1.436015994870104, 1.4522822209983133, 1.469340339768678, 1.4857789390953258, 1.502771180588752, 1.5192309425328858, 1.536108496133238, 1.5523044076398946, 1.5694922329857945, 1.5855830138898455, 1.6027974632452242, 1.6191776946070604, 1.6360402295249514, 1.652528322127182, 1.669415774405934, 1.685839013720397]
7	inanimate/n50.jpg	animate	inanimate	right	1.144	[0.0, 0.0, 0.0, 0.0, 0.0, 0.0, 0.0, 0.0, 0.0, 0.0, 0.0, 0.0, 0.0, 0.0, 0.0, 0.0, 0.0, 0.0, 0.0, 0.0, 0.0, 0.0, 0.0, 0.0, 0.0, 0.0, 0.0, 0.0, 0.0, 0.0, 0.0, 0.0, 0.0, 0.0, 0.0, 0.0, 0.0, 0.0, 0.0, 0.0, 0.0, 0.0, 0.0, 0.0, 0.0, 0.0, 0.0, 0.0, 0.0, 0.0, 0.0, 9.0, 48.0, 114.0, 205.0, 314.0, 424.0, 543.0, 660.0, 763.0, 845.0, 910.0, 951.0, 959.0, 959.0, 959.0, 959.0, 959.0]	[-490.0, -490.0, -490.0, -490.0, -490.0, -490.0, -490.0, -490.0, -490.0, -490.0, -490.0, -490.0, -490.0, -490.0, -490.0, -490.0, -490.0, -490.0, -490.0, -490.0, -490.0, -490.0, -490.0, -490.0, -490.0, -490.0, -490.0, -490.0, -490.0, -490.0, -490.0, -490.0, -490.0, -490.0, -490.0, -490.0, -490.0, -490.0, -490.0, -490.0, -490.0, -490.0, -490.0, -490.0, -490.0, -490.0, -490.0, -490.0, -490.0, -490.0, -490.0, -481.0, -422.0, -344.0, -249.0, -135.0, -24.0, 96.0, 210.0, 309.0, 387.0, 446.0, 488.0, 516.0, 523.0, 524.0, 524.0, 524.0]	[0.005378589557949454, 0.010462062549777329, 0.02580805477919057, 0.04225245671113953, 0.05931603681528941, 0.07558499363949522, 0.09261307510314509, 0.10892230918398127, 0.12592683866387233, 0.14245691522955894, 0.1593115995055996, 0.175750540161971, 0.19273288297699764, 0.20908341836184263, 0.2260319692431949, 0.24219647812424228, 0.2592931675026193, 0.27574405481573194, 0.292704893683549, 0.3090240264427848, 0.3260340172564611, 0.34240537392906845, 0.35930409020511433, 0.3757235748344101, 0.39273424830753356, 0.40912847430445254, 0.42602548393188044, 0.4423767019761726, 0.4593095515156165, 0.47569251351524144, 0.4927093309815973, 0.5092121009365655, 0.5260975051787682, 0.5424657898838632, 0.5593747461098246, 0.5757908174418844, 0.5927564349840395, 0.6091192583553493, 0.6261138891568407, 0.6424060565768741, 0.660713795630727, 0.6757590734632686, 0.6926581310690381, 0.7090390450903215, 0.7259633612702601, 0.742187944764737, 0.7592559622135013, 0.7757539534941316, 0.7926106857485138, 0.8089677064563148, 0.825958241301123, 0.8424050325993448, 0.8595198126859032, 0.8757665827870369, 0.8927308350102976, 0.9090533810667694, 0.9260186572209932, 0.942458963196259, 0.9593136475305073, 0.9756536015775055, 0.9926267284317873, 1.009100485011004, 1.026032310561277, 1.0423760192934424, 1.0594273114111274, 1.0757044602069072, 1.092647208366543, 1.109133252990432]
8	inanimate/n66.jpg	inanimate	animate	left	1.549	[0.0, 0.0, 0.0, 0.0, -1.0, -2.0, -2.0, -2.0, -2.0, -2.0, -2.0, -2.0, -2.0, -2.0, -2.0, -2.0, -2.0, -2.0, -2.0, -2.0, -2.0, -2.0, -2.0, -2.0, -2.0, -2.0, 4.0, 12.0, 25.0, 43.0, 47.0, 56.0, 58.0, 59.0, 59.0, 59.0, 59.0, 59.0, 59.0, 59.0, 59.0, 59.0, 59.0, 59.0, 59.0, 60.0, 60.0, 60.0, 61.0, 62.0, 64.0, 65.0, 66.0, 71.0, 80.0, 103.0, 113.0, 120.0, 128.0, 133.0, 142.0, 150.0, 155.0, 161.0, 165.0, 166.0, 170.0, 170.0, 169.0, 146.0, 80.0, -33.0, -168.0, -311.0, -456.0, -594.0, -705.0, -796.0, -868.0, -920.0, -960.0, -960.0, -960.0, -960.0, -960.0, -960.0, -954.0, -945.0, -939.0, -938.0, -938.0, -938.0, -938.0]	[-490.0, -490.0, -490.0, -490.0, -491.0, -492.0, -492.0, -492.0, -492.0, -492.0, -492.0, -492.0, -492.0, -492.0, -492.0, -492.0, -492.0, -492.0, -492.0, -492.0, -492.0, -492.0, -492.0, -492.0, -492.0, -492.0, -492.0, -489.0, -484.0, -479.0, -478.0, -475.0, -475.0, -474.0, -474.0, -474.0, -474.0, -474.0, -474.0, -474.0, -474.0, -474.0, -474.0, -474.0, -474.0, -472.0, -460.0, -448.0, -442.0, -438.0, -435.0, -432.0, -428.0, -420.0, -409.0, -383.0, -372.0, -366.0, -359.0, -356.0, -352.0, -347.0, -343.0, -338.0, -332.0, -327.0, -319.0, -316.0, -308.0, -292.0, -254.0, -205.0, -143.0, -84.0, -19.0, 43.0, 101.0, 154.0, 194.0, 233.0, 276.0, 320.0, 354.0, 389.0, 420.0, 439.0, 461.0, 480.0, 493.0, 497.0, 497.0, 497.0, 497.0]	[0.004518839938100427, 0.009286579850595444, 0.02421853510895744, 0.040754414338152856, 0.057695455907378346, 0.0740978738758713, 0.09115087270038202, 0.10736692283535376, 0.12437418301124126, 0.14091791288228706, 0.15781048510689288, 0.17431837506592274, 0.1912078753230162, 0.20762360526714474, 0.2245796654606238, 0.24093805154552683, 0.2578159464756027, 0.2740316552808508, 0.29113380605122074, 0.3073843308375217, 0.32433561235666275, 0.34091040352359414, 0.3577729384996928, 0.3740442846319638, 0.39122596592642367, 0.4075628480059095, 0.42454075353452936, 0.44088651024503633, 0.4578255037777126, 0.47424328175839037, 0.49115633399924263, 0.5075126720475964, 0.5245182255166583, 0.5408691022312269, 0.5578108264598995, 0.5739985459949821, 0.5910061474423856, 0.607540320022963, 0.6245240282150917, 0.6408817315823399, 0.6578913810662925, 0.6742241671308875, 0.6911860299878754, 0.7074328000890091, 0.724505937541835, 0.7410073421197012, 0.7578487144201063, 0.7742125617805868, 0.791145752707962, 0.8075290560373105, 0.8244837509118952, 0.8408936782507226, 0.8578149224631488, 0.8739702153252438, 0.8911068406887352, 0.9075334933586419, 0.9244916015304625, 0.9409339555422775, 0.9578101437655278, 0.9741944711422548, 0.9911419980344363, 1.0075317866867408, 1.0245015002437867, 1.040624366432894, 1.0576678079087287, 1.0742378204595298, 1.0910877260612324, 1.1075184746878222, 1.124507644213736, 1.1407359823351726, 1.1577330025029369, 1.173951783333905, 1.1910351607948542, 1.2075522666564211, 1.224496380193159, 1.2408906062482856, 1.2577862504986115, 1.2741975431563333, 1.291153944679536, 1.3075389547157101, 1.3244909188942984, 1.3409185955533758, 1.3577114985673688, 1.374190375150647, 1.391131758049596, 1.407362826867029, 1.424452348263003, 1.4407820623018779, 1.457810485153459, 1.474237137765158, 1.491181933961343, 1.5075406613759696, 1.5245096922153607]
9	inanimate/n57.jpg	inanimate	animate	left	1.302	[0.0, 0.0, 0.0, 0.0, 0.0, 0.0, 0.0, 0.0, 0.0, 0.0, 0.0, 0.0, 0.0, 0.0, 0.0, 0.0, 0.0, 0.0, 0.0, 0.0, 0.0, 0.0, 0.0, 0.0, 0.0, 0.0, 0.0, 0.0, 0.0, 0.0, 0.0, 0.0, 0.0, 0.0, 0.0, 0.0, 0.0, 0.0, 0.0, 0.0, 0.0, 0.0, 0.0, 0.0, 0.0, 0.0, 0.0, 17.0, 56.0, 89.0, 121.0, 148.0, 183.0, 220.0, 260.0, 290.0, 329.0, 379.0, 422.0, 449.0, 451.0, 451.0, 442.0, 408.0, 322.0, 197.0, 35.0, -145.0, -329.0, -494.0, -640.0, -759.0, -867.0, -894.0, -896.0, -896.0, -896.0, -896.0]	[-490.0, -490.0, -490.0, -490.0, -490.0, -490.0, -490.0, -490.0, -490.0, -490.0, -490.0, -490.0, -490.0, -490.0, -490.0, -490.0, -490.0, -490.0, -490.0, -490.0, -490.0, -490.0, -490.0, -490.0, -490.0, -490.0, -490.0, -490.0, -490.0, -490.0, -490.0, -490.0, -490.0, -490.0, -490.0, -490.0, -490.0, -490.0, -490.0, -490.0, -490.0, -490.0, -490.0, -490.0, -490.0, -490.0, -490.0, -476.0, -440.0, -400.0, -360.0, -326.0, -284.0, -229.0, -147.0, -57.0, 29.0, 112.0, 175.0, 220.0, 229.0, 245.0, 256.0, 268.0, 291.0, 309.0, 331.0, 355.0, 382.0, 405.0, 427.0, 445.0, 462.0, 468.0, 469.0, 469.0, 469.0, 469.0]	[0.00014943565474823117, 0.006469558284152299, 0.015354457311332226, 0.032039840414654464, 0.049111271218862385, 0.06532868667272851, 0.08246189873898402, 0.09883393812924623, 0.11579784896457568, 0.1321282457211055, 0.14923142042243853, 0.16555464919656515, 0.1824444907833822, 0.19883974076947197, 0.21585280360886827, 0.23203608579933643, 0.24912936188047752, 0.2654164092964493, 0.28241889079799876, 0.29882369813276455, 0.3157968249870464, 0.33204803243279457, 0.34908157523022965, 0.36552188120549545, 0.3824738453840837, 0.3988359860959463, 0.41579750762321055, 0.43220231495797634, 0.44914369785692543, 0.4655887824483216, 0.48254245333373547, 0.49891073803883046, 0.5158647502539679, 0.5321948056225665, 0.54920547909569, 0.5656113104778342, 0.58243288542144, 0.5988619273994118, 0.6158944462076761, 0.6322265496128239, 0.6492058204603381, 0.6653836413170211, 0.6824059201171622, 0.698892988730222, 0.7157596196630038, 0.7321913922787644, 0.7490901085548103, 0.7653228840208612, 0.7823799788020551, 0.7988472501165234, 0.8159333581570536, 0.8322142616380006, 0.8490914739086293, 0.8652522281045094, 0.8823468695045449, 0.8987489462015219, 0.9157695182948373, 0.9321951469755732, 0.9490300339530222, 0.9655017425538972, 0.9824322027852759, 0.9988721674308181, 1.015843928907998, 1.0322289389441721, 1.049090791202616, 1.0653891026158817, 1.0824035307741724, 1.0986188983079046, 1.1157777103362605, 1.1322009496507235, 1.1491191218374297, 1.1655454331776127, 1.1824533654144034, 1.1989165407139808, 1.2157954596332274, 1.2321944643044844, 1.2491126365493983, 1.2653703293181024]
10	inanimate/n35.jpg	inanimate	animate	left	1.829	[0.0, -2.0, -5.0, -5.0, -7.0, -7.0, -7.0, -7.0, -7.0, -7.0, -7.0, -7.0, -7.0, -7.0, -7.0, -7.0, -7.0, -7.0, -7.0, -7.0, -7.0, -7.0, -7.0, -7.0, -7.0, -7.0, -7.0, -7.0, -7.0, -7.0, -7.0, -7.0, -7.0, -7.0, -7.0, -7.0, -7.0, -7.0, -7.0, -7.0, -7.0, -7.0, -7.0, -7.0, -5.0, 11.0, 26.0, 38.0, 49.0, 54.0, 54.0, 54.0, 54.0, 54.0, 54.0, 54.0, 54.0, 54.0, 54.0, 54.0, 54.0, 54.0, 54.0, 54.0, 54.0, 54.0, 54.0, 54.0, 54.0, 54.0, 54.0, 54.0, 61.0, 76.0, 108.0, 156.0, 211.0, 250.0, 293.0, 322.0, 338.0, 341.0, 339.0, 284.0, 198.0, 91.0, -39.0, -187.0, -324.0, -445.0, -550.0, -625.0, -686.0, -731.0, -759.0, -775.0, -789.0, -795.0, -799.0, -799.0, -799.0, -799.0, -799.0, -799.0, -799.0, -799.0, -799.0, -799.0, -799.0, -799.0]	[-490.0, -492.0, -494.0, -494.0, -494.0, -494.0, -494.0, -494.0, -494.0, -494.0, -494.0, -494.0, -494.0, -494.0, -494.0, -494.0, -494.0, -494.0, -494.0, -494.0, -494.0, -494.0, -494.0, -494.0, -494.0, -494.0, -494.0, -494.0, -494.0, -494.0, -494.0, -494.0, -494.0, -494.0, -494.0, -494.0, -494.0, -494.0, -494.0, -494.0, -494.0, -494.0, -494.0, -494.0, -492.0, -480.0, -469.0, -461.0, -453.0, -451.0, -450.0, -450.0, -450.0, -450.0, -450.0, -450.0, -450.0, -450.0, -450.0, -450.0, -450.0, -450.0, -450.0, -450.0, -450.0, -450.0, -450.0, -450.0, -450.0, -450.0, -450.0, -450.0, -443.0, -428.0, -395.0, -347.0, -285.0, -239.0, -201.0, -177.0, -159.0, -145.0, -130.0, -78.0, -23.0, 34.0, 100.0, 163.0, 221.0, 273.0, 319.0, 349.0, 382.0, 408.0, 429.0, 443.0, 459.0, 466.0, 470.0, 470.0, 470.0, 470.0, 470.0, 470.0, 470.0, 470.0, 470.0, 470.0, 470.0, 470.0]	[0.0017595036188140512, 0.009651806205511093, 0.01848721201531589, 0.035414600220974535, 0.051787322270683944, 0.0687614731141366, 0.0851847124285996, 0.10209810599917546, 0.11853226798120886, 0.1353944615693763, 0.15156852779909968, 0.16872460913145915, 0.18514443514868617, 0.2020728473435156, 0.21850973996333778, 0.23536237626103684, 0.25174943427555263, 0.2687539637554437, 0.2851468244334683, 0.3021107353270054, 0.3184783373726532, 0.33536169363651425, 0.35186992486706004, 0.3688676276942715, 0.384897309995722, 0.40205953537952155, 0.41850154800340533, 0.43540674954419956, 0.451855247549247, 0.46881915838457644, 0.48514238715870306, 0.5020602180156857, 0.5184803853626363, 0.5353958269115537, 0.5518989381380379, 0.5687894624425098, 0.5851270271232352, 0.6021192686166614, 0.6184049507719465, 0.6354460028815083, 0.6517794716055505, 0.6687614730908535, 0.6850990378297865, 0.7020926446421072, 0.7184349880553782, 0.7354217682150193, 0.7517832262674347, 0.7687321184785105, 0.7849126699729823, 0.8020172100514174, 0.8182260922039859, 0.835243251058273, 0.85179892758606, 0.8687771744444035, 0.8851065471535549, 0.9020083353971131, 0.9184803853277117, 0.9353719336213544, 0.9517992688925005, 0.9687447478063405, 0.9851079125073738, 1.002052708703559, 1.0183131321682595, 1.0353548669372685, 1.051795514242258, 1.0687259744736366, 1.0850952831679024, 1.1019619141006842, 1.1185114466352388, 1.135539186769165, 1.1518351088743657, 1.1687229024828412, 1.1851120084756985, 1.2020626073353924, 1.2184790199971758, 1.23544361355016, 1.2515675037866458, 1.2686177719151601, 1.2849157419987023, 1.3020103833987378, 1.3181892282445915, 1.3352364244055934, 1.3517944902414456, 1.3686461025499739, 1.3851099605089985, 1.4020370073849335, 1.4185257826466113, 1.435428936209064, 1.4518217968870886, 1.4687263158266433, 1.4851212244830094, 1.5021336046047509, 1.5184967693057843, 1.5353934376034886, 1.5515576050966047, 1.568603094550781, 1.584851912688464, 1.602043492719531, 1.6184660493745469, 1.635477064177394, 1.6517900529433973, 1.668759425112512, 1.6850669525447302, 1.7020783086773008, 1.718447276041843, 1.7353555496083573, 1.7516753650270402, 1.7686949131893925, 1.785142045817338, 1.8020281327189878]
11	inanimate/n17.jpg	inanimate	animate	left	0.899	[0.0, 0.0, 0.0, 0.0, 0.0, 0.0, 0.0, 0.0, 0.0, 0.0, 0.0, 0.0, 0.0, 0.0, 0.0, 0.0, 0.0, 0.0, 0.0, 0.0, 0.0, 0.0, 0.0, 0.0, 0.0, 0.0, 0.0, 0.0, 0.0, 0.0, 0.0, 0.0, 0.0, 0.0, 0.0, 0.0, 0.0, -14.0, -99.0, -230.0, -383.0, -539.0, -671.0, -779.0, -858.0, -910.0, -939.0, -953.0, -958.0, -958.0, -958.0, -958.0, -958.0, -958.0]	[-490.0, -490.0, -490.0, -490.0, -490.0, -490.0, -490.0, -490.0, -490.0, -490.0, -490.0, -490.0, -490.0, -490.0, -490.0, -490.0, -490.0, -490.0, -490.0, -490.0, -490.0, -490.0, -490.0, -490.0, -490.0, -490.0, -490.0, -490.0, -490.0, -490.0, -490.0, -490.0, -490.0, -490.0, -490.0, -490.0, -490.0, -471.0, -410.0, -300.0, -167.0, -34.0, 80.0, 177.0, 254.0, 311.0, 348.0, 378.0, 388.0, 391.0, 391.0, 391.0, 391.0, 391.0]	[0.0032941368990577757, 0.008482057834044099, 0.021554771985393018, 0.03850366419646889, 0.054880823532585055, 0.07184609974501655, 0.08827855507843196, 0.10513904201798141, 0.12160187592962757, 0.13848079490708187, 0.1546620290610008, 0.1717163932044059, 0.1882372537511401, 0.20519706862978637, 0.22158003062941134, 0.23848454956896603, 0.2550310100778006, 0.27188501169439405, 0.28821745642926544, 0.30509193806210533, 0.3216800412046723, 0.33851083216723055, 0.35489003953989595, 0.37190344370901585, 0.3882184804533608, 0.40519536193460226, 0.42155033466406167, 0.4385319948196411, 0.4549723007949069, 0.4719017370371148, 0.4882102884585038, 0.5051472340128385, 0.521551358688157, 0.5384459788911045, 0.5548521516029723, 0.5718501957599074, 0.5882553444243968, 0.605179660662543, 0.6212984308949672, 0.6384613388800062, 0.6548695595702156, 0.6718904730514623, 0.6882065337849781, 0.7051895593176596, 0.7215151773416437, 0.7384630455635488, 0.7549330475158058, 0.7717966064810753, 0.7882393017644063, 0.8051376766525209, 0.8214219934307039, 0.8383732749498449, 0.8548507862724364, 0.8717723718145862]
12	animate/a35.jpg	inanimate	animate	right	1.833	[0.0, 0.0, 0.0, 0.0, 0.0, 0.0, 0.0, 0.0, 0.0, 0.0, 0.0, 0.0, 0.0, 0.0, 0.0, 0.0, 0.0, 0.0, 0.0, 0.0, 0.0, 0.0, 0.0, 0.0, 0.0, 0.0, 0.0, 0.0, 0.0, 0.0, 0.0, 0.0, 0.0, 0.0, 0.0, 0.0, 0.0, 0.0, 0.0, 0.0, 0.0, 0.0, 0.0, 0.0, 0.0, 0.0, 0.0, 0.0, 0.0, 0.0, 0.0, 0.0, 0.0, 0.0, 0.0, 0.0, 0.0, 0.0, 0.0, 0.0, 0.0, 0.0, 0.0, 0.0, 0.0, 0.0, 0.0, 0.0, 0.0, 0.0, 0.0, 0.0, 0.0, 0.0, 0.0, 0.0, 0.0, -11.0, -39.0, -92.0, -225.0, -330.0, -437.0, -530.0, -607.0, -661.0, -684.0, -694.0, -695.0, -696.0, -692.0, -680.0, -634.0, -561.0, -445.0, -302.0, -121.0, 92.0, 319.0, 530.0, 705.0, 842.0, 939.0, 959.0, 959.0, 959.0, 959.0, 959.0, 959.0, 959.0]	[-490.0, -490.0, -490.0, -490.0, -490.0, -490.0, -490.0, -490.0, -490.0, -490.0, -490.0, -490.0, -490.0, -490.0, -490.0, -490.0, -490.0, -490.0, -490.0, -490.0, -490.0, -490.0, -490.0, -490.0, -490.0, -490.0, -490.0, -490.0, -490.0, -490.0, -490.0, -490.0, -490.0, -490.0, -490.0, -490.0, -490.0, -490.0, -490.0, -490.0, -490.0, -490.0, -490.0, -490.0, -490.0, -490.0, -490.0, -490.0, -490.0, -490.0, -490.0, -490.0, -490.0, -490.0, -490.0, -490.0, -490.0, -490.0, -490.0, -490.0, -490.0, -490.0, -490.0, -490.0, -490.0, -490.0, -490.0, -490.0, -490.0, -490.0, -490.0, -490.0, -490.0, -490.0, -490.0, -490.0, -487.0, -471.0, -437.0, -382.0, -249.0, -155.0, -46.0, 62.0, 153.0, 222.0, 255.0, 271.0, 280.0, 289.0, 299.0, 311.0, 330.0, 352.0, 366.0, 382.0, 389.0, 389.0, 389.0, 396.0, 415.0, 432.0, 455.0, 479.0, 487.0, 491.0, 492.0, 492.0, 492.0, 492.0]	[0.004387085326015949, 0.00994432857260108, 0.02358536230167374, 0.04078001430025324, 0.056929845828562975, 0.07401322323130444, 0.09042383322957903, 0.10739013343118131, 0.12367547419853508, 0.1407056036987342, 0.15689298184588552, 0.17389307403936982, 0.19047981186304241, 0.2073420055094175, 0.22364099958213046, 0.24064313975395635, 0.25710972835076973, 0.2741070898482576, 0.2904695718898438, 0.3074048107373528, 0.323754322133027, 0.3406407504226081, 0.35685441124951467, 0.37394188466714695, 0.39048561453819275, 0.407361461489927, 0.42361539957346395, 0.440666691691149, 0.4570708163664676, 0.4740630578598939, 0.49049926787847653, 0.5074300693813711, 0.5237891381257214, 0.5407086756895296, 0.5570885657216422, 0.5739818206056952, 0.5904798118863255, 0.6073522454826161, 0.6238034741254523, 0.6406916090054438, 0.6571384003036655, 0.6741186951403506, 0.6902302973903716, 0.7072140055825002, 0.7237362315063365, 0.7406929743592627, 0.7570571630494669, 0.7740965085104108, 0.7904467025655322, 0.8073993494617753, 0.8237621728330851, 0.8407110649859533, 0.8570909550180659, 0.874092071200721, 0.8904593319166452, 0.9073867201223038, 0.9237689994624816, 0.9407315449789166, 0.9568687472492456, 0.9739166260114871, 0.9904716198798269, 1.0073672641301528, 1.0238666207296774, 1.0407428089529276, 1.0571179203689098, 1.0740009352448396, 1.0904972198768519, 1.1073819414596073, 1.1238461407483555, 1.1408032249310054, 1.1571278190240264, 1.1739627059432678, 1.1901859241188504, 1.207160074962303, 1.223778556799516, 1.2407390543376096, 1.2571677549858578, 1.2740773938712664, 1.2903521533007734, 1.3073563414509408, 1.3237433994654566, 1.3407315450021997, 1.357122357643675, 1.3740214152494445, 1.3904060839558952, 1.4073805761290714, 1.4237181408680044, 1.4407373476424254, 1.4571240643272176, 1.474057255196385, 1.4903958439244889, 1.507366240140982, 1.5237679754500277, 1.540672835719306, 1.5569964057649486, 1.5739446153165773, 1.5904030119418167, 1.607406517432537, 1.6237253088620491, 1.6406800036784261, 1.6570581870619208, 1.6740009352797642, 1.6901630547945388, 1.7073095788364299, 1.7237546634860337, 1.7406472357106395, 1.757121675007511, 1.7739917192957364, 1.7905006331857294, 1.8074317760765553]
13	inanimate/n16.jpg	inanimate	animate	left	2.128	[0.0, 0.0, 0.0, 0.0, 0.0, 0.0, 0.0, 0.0, 0.0, 0.0, 0.0, 0.0, 0.0, 0.0, 0.0, 0.0, 0.0, 0.0, 0.0, 0.0, 0.0, 0.0, 0.0, 0.0, 0.0, 0.0, 0.0, 0.0, 0.0, 0.0, 0.0, 0.0, 0.0, 0.0, 0.0, 0.0, 0.0, 0.0, 0.0, 0.0, 0.0, 0.0, 0.0, 0.0, 0.0, 0.0, 0.0, 0.0, 0.0, 0.0, 0.0, 0.0, 0.0, 0.0, 0.0, 0.0, 0.0, 0.0, 0.0, 0.0, 0.0, 0.0, 0.0, 0.0, 0.0, 0.0, 0.0, 0.0, 0.0, 2.0, 7.0, 29.0, 66.0, 136.0, 229.0, 338.0, 454.0, 570.0, 660.0, 724.0, 762.0, 776.0, 784.0, 784.0, 784.0, 784.0, 782.0, 781.0, 781.0, 784.0, 790.0, 794.0, 797.0, 798.0, 798.0, 798.0, 798.0, 798.0, 798.0, 798.0, 798.0, 798.0, 798.0, 798.0, 798.0, 798.0, 798.0, 798.0, 798.0, 798.0, 788.0, 748.0, 654.0, 508.0, 322.0, 106.0, -121.0, -326.0, -509.0, -707.0, -775.0, -795.0, -796.0, -796.0, -796.0, -796.0, -796.0, -796.0]	[-490.0, -492.0, -492.0, -492.0, -492.0, -492.0, -492.0, -492.0, -492.0, -492.0, -492.0, -492.0, -492.0, -492.0, -492.0, -492.0, -492.0, -492.0, -492.0, -492.0, -492.0, -492.0, -492.0, -492.0, -492.0, -492.0, -492.0, -492.0, -492.0, -492.0, -492.0, -492.0, -492.0, -492.0, -492.0, -492.0, -492.0, -492.0, -492.0, -492.0, -492.0, -492.0, -492.0, -492.0, -492.0, -492.0, -492.0, -492.0, -492.0, -492.0, -492.0, -492.0, -492.0, -492.0, -492.0, -492.0, -492.0, -492.0, -492.0, -492.0, -492.0, -492.0, -492.0, -492.0, -492.0, -492.0, -492.0, -492.0, -492.0, -492.0, -484.0, -461.0, -422.0, -346.0, -238.0, -112.0, 20.0, 142.0, 232.0, 298.0, 339.0, 356.0, 369.0, 372.0, 374.0, 378.0, 388.0, 401.0, 413.0, 427.0, 443.0, 453.0, 462.0, 464.0, 466.0, 466.0, 466.0, 466.0, 466.0, 466.0, 466.0, 466.0, 466.0, 466.0, 466.0, 466.0, 466.0, 466.0, 466.0, 466.0, 467.0, 461.0, 451.0, 451.0, 451.0, 451.0, 447.0, 420.0, 396.0, 373.0, 363.0, 359.0, 359.0, 359.0, 359.0, 359.0, 359.0, 359.0]	[0.016561001306399703, 0.021663930325303227, 0.03116118087200448, 0.04843399813398719, 0.06479067751206458, 0.08176107367035002, 0.09813925705384463, 0.1150642559514381, 0.13139806600520387, 0.14844355545938015, 0.16480569617124274, 0.18171055638231337, 0.19784400396747515, 0.21509838924976066, 0.23141376732382923, 0.2483619768754579, 0.26461966964416206, 0.28166481776861474, 0.2978644839604385, 0.314976874680724, 0.331285426102113, 0.34831521421438083, 0.36476507753832266, 0.3817306950222701, 0.3981126330909319, 0.41497550933854654, 0.431509681919124, 0.44832067558309063, 0.46450361638562754, 0.48150780459400266, 0.49810614774469286, 0.5149799466598779, 0.5314683805918321, 0.5484466274501756, 0.5645353603758849, 0.581538183207158, 0.5978675559163094, 0.6149994026636705, 0.6314100126619451, 0.6483732408378273, 0.6647387949051335, 0.6816433137864806, 0.6979610811686143, 0.7149761919863522, 0.7314376606373116, 0.7483537848456763, 0.7647609815467149, 0.7817167004104704, 0.7980645050993189, 0.8150584532995708, 0.8311843915143982, 0.8482763022766449, 0.864790677500423, 0.8816859804210253, 0.8978651665966026, 0.9150581119465642, 0.9311741515411995, 0.948210766306147, 0.964759957510978, 0.9817293297383003, 0.9981160464230925, 1.0150997545570135, 1.0314775966107845, 1.0483896248042583, 1.064758250839077, 1.0816160071408376, 1.0979221692541614, 1.1149536640150473, 1.1313287753728218, 1.1483746061567217, 1.1647391362348571, 1.1816378524526954, 1.1978211346431635, 1.2149563946877606, 1.2311577675282024, 1.2481824356946163, 1.2645193177158944, 1.281579825852532, 1.298135502380319, 1.31503660796443, 1.331429127312731, 1.3483879181439988, 1.3647671255166642, 1.3817006577155553, 1.3978835985762998, 1.4150601599249057, 1.4311806368641555, 1.4482288569561206, 1.46477600018261, 1.4816726684221067, 1.4981157050351612, 1.5150028159841895, 1.531424007320311, 1.5484002061421052, 1.5647818028228357, 1.581736839027144, 1.5981426703510806, 1.6150632319622673, 1.631393969990313, 1.648279032902792, 1.6647623468306847, 1.681718748412095, 1.6980928357224911, 1.715033535961993, 1.731390556669794, 1.7484029367915355, 1.7647797548561357, 1.7817395696765743, 1.7978801852441393, 1.8150919039035216, 1.8312270581373014, 1.8483763128169812, 1.8647688321652822, 1.8816470684250817, 1.8980331024504267, 1.9150181759614497, 1.931416156643536, 1.9483653901843354, 1.9648425601189956, 1.9816863217274658, 1.9981266277027316, 2.0149581013829447, 2.031445852597244, 2.0483005369314924, 2.064800234802533, 2.0817218204028904, 2.098059726471547, 2.1150727892527357]
14	inanimate/n54.jpg	inanimate	animate	left	1.537	[0.0, 0.0, 0.0, 0.0, 0.0, 0.0, 0.0, 0.0, 0.0, 0.0, 0.0, 0.0, 0.0, 0.0, 0.0, 0.0, 0.0, 0.0, 0.0, 0.0, 0.0, 0.0, 0.0, 0.0, 0.0, 0.0, 0.0, 0.0, 0.0, 0.0, 0.0, 0.0, 0.0, 0.0, 0.0, 0.0, 0.0, 0.0, 0.0, 0.0, 0.0, 0.0, 0.0, 0.0, 0.0, 0.0, 0.0, 0.0, 0.0, 0.0, 0.0, 0.0, 0.0, 0.0, 0.0, 0.0, 0.0, 0.0, 0.0, 0.0, 0.0, 0.0, 0.0, 0.0, 0.0, 0.0, 0.0, 0.0, 0.0, 0.0, 0.0, -9.0, -83.0, -154.0, -231.0, -314.0, -381.0, -439.0, -498.0, -553.0, -603.0, -637.0, -660.0, -673.0, -680.0, -682.0, -685.0, -686.0, -687.0, -687.0, -687.0, -687.0]	[-490.0, -490.0, -490.0, -490.0, -490.0, -490.0, -490.0, -490.0, -490.0, -490.0, -490.0, -490.0, -490.0, -490.0, -490.0, -490.0, -490.0, -490.0, -490.0, -490.0, -490.0, -490.0, -490.0, -490.0, -490.0, -490.0, -490.0, -490.0, -490.0, -490.0, -490.0, -490.0, -490.0, -490.0, -490.0, -490.0, -490.0, -490.0, -490.0, -490.0, -490.0, -490.0, -490.0, -490.0, -490.0, -490.0, -490.0, -490.0, -490.0, -490.0, -490.0, -490.0, -490.0, -490.0, -490.0, -490.0, -490.0, -490.0, -490.0, -490.0, -490.0, -490.0, -490.0, -490.0, -490.0, -490.0, -490.0, -490.0, -490.0, -490.0, -490.0, -476.0, -374.0, -279.0, -170.0, -74.0, 9.0, 81.0, 151.0, 215.0, 275.0, 315.0, 342.0, 358.0, 373.0, 379.0, 386.0, 389.0, 391.0, 391.0, 391.0, 391.0]	[0.0067907184711657465, 0.0133914168109186, 0.028423723997548223, 0.04541050415718928, 0.061807802179828286, 0.07904819276882336, 0.09535947488620877, 0.1123182657174766, 0.1285534305498004, 0.14548969344468787, 0.16212455922504887, 0.17902771278750151, 0.19532773090759292, 0.21237595099955797, 0.22876881167758256, 0.24566718662390485, 0.2619665220263414, 0.2790587741183117, 0.2953488935600035, 0.31230085773859173, 0.32870907842880115, 0.3455996026750654, 0.3620047513395548, 0.3789205342181958, 0.39508162980200723, 0.41219743381952867, 0.4286845024325885, 0.44558629067614675, 0.46198393002850935, 0.4789833395043388, 0.49537210416747257, 0.5123247510637157, 0.5287462837295607, 0.5456204239744693, 0.5620719939470291, 0.5789253129041754, 0.5953308028983884, 0.6122851564432494, 0.6288258142885752, 0.6456286159809679, 0.6617535302066244, 0.6787444063811563, 0.6953560615656897, 0.7123749270103872, 0.7286862090695649, 0.7455470373970456, 0.761962084681727, 0.7789379422320053, 0.7953625468653627, 0.812273892457597, 0.8287271690787748, 0.8456927865627222, 0.8620020206435584, 0.8789232649141923, 0.8950737791019492, 0.9122168898466043, 0.9287503797095269, 0.945603016007226, 0.9618770927772857, 0.9789410142111592, 0.9950577364652418, 1.0121377005707473, 1.0287066890741698, 1.0456064293393865, 1.0618586607743055, 1.0788864009082317, 1.095326365553774, 1.1123657110147178, 1.1287353610387072, 1.1456170106539503, 1.1618637808132917, 1.1789778781821951, 1.1953942908439785, 1.2122841324307956, 1.2287206837208942, 1.24569039727794, 1.2617364635807462, 1.2789659315021709, 1.2953570855315775, 1.3122493164846674, 1.3287145397625864, 1.3456084773060866, 1.362011919321958, 1.3789604702033103, 1.3953219282557257, 1.4123203137423843, 1.4287298997514881, 1.4456388559774496, 1.4620293272892013, 1.478991872863844, 1.4953277308959514, 1.5122459031408653]
15	animate/a71.jpg	inanimate	animate	right	1.734	[0.0, 0.0, 0.0, 0.0, 0.0, 0.0, 0.0, 0.0, 0.0, 0.0, 0.0, 0.0, 0.0, 0.0, 0.0, 0.0, 0.0, 0.0, 0.0, 0.0, 0.0, 0.0, 0.0, 0.0, 0.0, 0.0, 0.0, 0.0, 0.0, 0.0, 0.0, 0.0, 0.0, 0.0, 0.0, 0.0, 0.0, 0.0, 0.0, 0.0, 0.0, 0.0, 0.0, 0.0, 0.0, 0.0, 0.0, 0.0, 0.0, 0.0, 0.0, 0.0, 0.0, 0.0, 6.0, 19.0, 35.0, 54.0, 87.0, 120.0, 157.0, 191.0, 225.0, 263.0, 281.0, 294.0, 303.0, 309.0, 315.0, 318.0, 319.0, 319.0, 317.0, 305.0, 266.0, 195.0, 51.0, -70.0, -196.0, -309.0, -396.0, -434.0, -447.0, -448.0, -448.0, -440.0, -424.0, -365.0, -276.0, -160.0, -27.0, 114.0, 252.0, 395.0, 522.0, 630.0, 718.0, 771.0, 798.0, 815.0, 824.0, 824.0, 824.0, 824.0, 824.0]	[-490.0, -490.0, -490.0, -490.0, -490.0, -490.0, -490.0, -490.0, -490.0, -490.0, -490.0, -490.0, -490.0, -490.0, -490.0, -490.0, -490.0, -490.0, -490.0, -490.0, -490.0, -490.0, -490.0, -490.0, -490.0, -490.0, -490.0, -490.0, -490.0, -490.0, -490.0, -490.0, -490.0, -490.0, -490.0, -490.0, -490.0, -490.0, -490.0, -490.0, -490.0, -490.0, -490.0, -490.0, -490.0, -490.0, -490.0, -490.0, -490.0, -490.0, -490.0, -490.0, -490.0, -490.0, -489.0, -476.0, -460.0, -443.0, -415.0, -385.0, -349.0, -313.0, -272.0, -230.0, -212.0, -196.0, -183.0, -173.0, -162.0, -151.0, -142.0, -133.0, -120.0, -101.0, -67.0, -17.0, 65.0, 118.0, 164.0, 196.0, 222.0, 232.0, 237.0, 237.0, 240.0, 249.0, 261.0, 288.0, 314.0, 328.0, 347.0, 368.0, 389.0, 408.0, 428.0, 442.0, 459.0, 468.0, 478.0, 483.0, 484.0, 484.0, 484.0, 484.0, 484.0]	[0.00792978098616004, 0.014281647570896894, 0.018878038274124265, 0.03078714810544625, 0.04782854160293937, 0.06397564249346033, 0.081009526620619, 0.09746587520930916, 0.11439497012179345, 0.1306953295134008, 0.1476455871015787, 0.16419204761041328, 0.18105253454996273, 0.19746758189285174, 0.2144352474133484, 0.2308042147778906, 0.24776880827266723, 0.26416337565751746, 0.2810255692456849, 0.2974942058790475, 0.3145151193602942, 0.33085609739646316, 0.3477462803130038, 0.36422106093959883, 0.3811812171479687, 0.39745938987471163, 0.41445811674930155, 0.43085780408000574, 0.44772614166140556, 0.46416781295556575, 0.48108461988158524, 0.4974494912312366, 0.5144168154220097, 0.5308161614229903, 0.5476462697261013, 0.5641715676174499, 0.5810702838934958, 0.5972392300609499, 0.6143990661366843, 0.6306294522364624, 0.6477367230108939, 0.6642244742834009, 0.6810924705350772, 0.6974911338766105, 0.7144704047241248, 0.7305973669281229, 0.747713171003852, 0.7641613276209682, 0.7811269451631233, 0.7975757844396867, 0.8144942980143242, 0.8307857827749103, 0.8476356884348206, 0.8641374343424104, 0.8811177291790955, 0.8972317207371816, 0.9143645914737135, 0.9308038734598085, 0.9478838375071064, 0.9641691783326678, 0.9811153398477472, 0.997353917977307, 1.0144055514247157, 1.0307724708109163, 1.0477462803246453, 1.0638797279098071, 1.0810221559368074, 1.0972334273974411, 1.114388826128561, 1.1307530148187652, 1.147840146906674, 1.1638937225216068, 1.1810252279392444, 1.1972027074662037, 1.214277210237924, 1.2308260601130314, 1.2477141949930228, 1.264200922276359, 1.2811443531536497, 1.2972262594266795, 1.3144116954063065, 1.3308366414275952, 1.347733992326539, 1.3641886342666112, 1.3810723318601958, 1.397466899245046, 1.4144355887547135, 1.4308461987529881, 1.4478476562071592, 1.4641131996759214, 1.481085643870756, 1.4972190914559178, 1.5144086234504357, 1.5307881721528247, 1.5476575337233953, 1.5641087623662315, 1.5810713078826666, 1.597432765935082, 1.614409988746047, 1.630812065443024, 1.6477507176459767, 1.664158938336186, 1.6810733558959328, 1.6974709952482954, 1.7144540207227692]
16	animate/a8.jpg	animate	inanimate	left	1.367	[0.0, 0.0, 0.0, 0.0, 0.0, 0.0, 0.0, 0.0, 0.0, 0.0, 0.0, 0.0, 0.0, 0.0, 0.0, 0.0, 0.0, 0.0, 0.0, 0.0, 0.0, 0.0, 0.0, 0.0, 0.0, 0.0, 0.0, 0.0, 0.0, 0.0, 0.0, 0.0, 0.0, 0.0, 0.0, 0.0, 0.0, 0.0, 0.0, 0.0, 0.0, 0.0, 0.0, 0.0, 0.0, 0.0, 0.0, 0.0, 0.0, 0.0, 0.0, 0.0, 0.0, 0.0, 0.0, 0.0, 0.0, 0.0, 0.0, 0.0, 0.0, 0.0, -1.0, -50.0, -136.0, -233.0, -337.0, -425.0, -495.0, -542.0, -572.0, -597.0, -612.0, -630.0, -644.0, -656.0, -661.0, -662.0, -662.0, -662.0, -662.0, -662.0]	[-490.0, -490.0, -490.0, -490.0, -490.0, -490.0, -490.0, -490.0, -490.0, -490.0, -490.0, -490.0, -490.0, -490.0, -490.0, -490.0, -490.0, -490.0, -490.0, -490.0, -490.0, -490.0, -490.0, -490.0, -490.0, -490.0, -490.0, -490.0, -490.0, -490.0, -490.0, -490.0, -490.0, -490.0, -490.0, -490.0, -490.0, -490.0, -490.0, -490.0, -490.0, -490.0, -490.0, -490.0, -490.0, -490.0, -490.0, -490.0, -490.0, -490.0, -490.0, -490.0, -490.0, -490.0, -490.0, -490.0, -490.0, -490.0, -490.0, -490.0, -490.0, -490.0, -469.0, -381.0, -254.0, -129.0, -8.0, 101.0, 184.0, 250.0, 296.0, 339.0, 360.0, 380.0, 398.0, 411.0, 417.0, 420.0, 420.0, 420.0, 420.0, 420.0]	[0.006015243998263031, 0.011942492274101824, 0.027026682044379413, 0.04396704089595005, 0.060097416513599455, 0.0772917271242477, 0.09344565472565591, 0.11045428016223013, 0.1267512262566015, 0.1437581451027654, 0.16031279764138162, 0.1772801218321547, 0.1937371531384997, 0.21060856274561957, 0.22696660744259134, 0.24389433697797358, 0.26034283492481336, 0.27734941244125366, 0.29373476380715147, 0.3106256293831393, 0.3270259993732907, 0.34398035291815177, 0.36036024295026436, 0.37742928438819945, 0.3937310090987012, 0.41064235469093546, 0.42697275144746527, 0.44394656096119434, 0.4603175763040781, 0.47735248442040756, 0.49373988376464695, 0.510665223991964, 0.527002788730897, 0.5439817182486877, 0.5603199656470679, 0.5772384792217053, 0.5937764064292423, 0.6107000399497338, 0.6270116633968428, 0.643924715637695, 0.6603650216129608, 0.6773774017347023, 0.6937234997749329, 0.7106228987104259, 0.7267478129360825, 0.7438311903970316, 0.7603465896099806, 0.7773012844845653, 0.7936842464841902, 0.8106621520128101, 0.8269259887747467, 0.8438861449831165, 0.8603568295948207, 0.8772842178004794, 0.893730326439254, 0.910626653349027, 0.9269724101177417, 0.9439318836084567, 0.9603540989337489, 0.977337465796154, 0.9936890251701698, 1.0106932133203372, 1.0267952582216822, 1.0439219849649817, 1.0603592189145274, 1.0772490605013445, 1.0936941451509483, 1.1106669306755066, 1.1267198236309923, 1.1438475743634626, 1.1603493202710524, 1.177299236471299, 1.1934360973536968, 1.210518109437544, 1.2267717062495649, 1.2438912650104612, 1.2603428349248134, 1.2772623724886216, 1.293422102695331, 1.3104047868982889, 1.327066959347576, 1.343989227549173]
17	inanimate/n64.jpg	inanimate	animate	left	1.696	[0.0, 0.0, 0.0, 0.0, 0.0, 0.0, 0.0, 0.0, 0.0, 0.0, 0.0, 0.0, 0.0, 0.0, 0.0, 0.0, 0.0, 0.0, 0.0, 0.0, 0.0, 0.0, 0.0, 0.0, 0.0, 0.0, 0.0, 0.0, 0.0, 0.0, 0.0, 0.0, 0.0, 0.0, 0.0, 0.0, 0.0, 0.0, 0.0, 0.0, 0.0, 0.0, 0.0, 0.0, 0.0, 0.0, 0.0, 0.0, -4.0, -23.0, -59.0, -172.0, -270.0, -378.0, -507.0, -642.0, -765.0, -871.0, -951.0, -960.0, -960.0, -960.0, -960.0, -960.0, -960.0, -960.0, -960.0, -960.0, -960.0, -960.0, -960.0, -960.0, -960.0, -960.0, -960.0, -960.0, -960.0, -960.0, -960.0, -960.0, -960.0, -960.0, -960.0, -960.0, -960.0, -960.0, -960.0, -960.0, -960.0, -960.0, -960.0, -960.0, -960.0, -960.0, -960.0, -960.0, -947.0, -925.0, -902.0, -874.0, -862.0, -858.0]	[-490.0, -490.0, -490.0, -490.0, -490.0, -490.0, -490.0, -490.0, -490.0, -490.0, -490.0, -490.0, -490.0, -490.0, -490.0, -490.0, -490.0, -490.0, -490.0, -490.0, -490.0, -490.0, -490.0, -490.0, -490.0, -490.0, -490.0, -490.0, -490.0, -490.0, -490.0, -490.0, -490.0, -490.0, -490.0, -490.0, -490.0, -490.0, -490.0, -490.0, -490.0, -490.0, -490.0, -490.0, -490.0, -490.0, -490.0, -490.0, -482.0, -469.0, -448.0, -377.0, -305.0, -206.0, -89.0, 30.0, 138.0, 240.0, 319.0, 369.0, 409.0, 437.0, 465.0, 478.0, 487.0, 491.0, 491.0, 491.0, 491.0, 491.0, 491.0, 491.0, 491.0, 491.0, 491.0, 491.0, 491.0, 491.0, 491.0, 491.0, 491.0, 491.0, 491.0, 491.0, 491.0, 491.0, 491.0, 491.0, 491.0, 491.0, 491.0, 491.0, 491.0, 491.0, 491.0, 491.0, 485.0, 471.0, 459.0, 443.0, 436.0, 433.0]	[0.0013082613004371524, 0.007126282958779484, 0.01733214093837887, 0.03453600889770314, 0.05072850710712373, 0.067817687173374, 0.08404636668274179, 0.10109834145987406, 0.11725534102879465, 0.1344851502799429, 0.15089746698504314, 0.16777809255290776, 0.18405216932296753, 0.20110721612581983, 0.217508610105142, 0.23446842498378828, 0.25083807500777766, 0.2677702418877743, 0.2842037212103605, 0.3011365707498044, 0.31733828491996974, 0.33456297422526404, 0.3510230774991214, 0.3678251965320669, 0.3841719772317447, 0.40116285340627655, 0.4175270420964807, 0.434451358334627, 0.4508715256815776, 0.46780130319530144, 0.48419450520304963, 0.5011334987357259, 0.5175437674042769, 0.5344650116749108, 0.5508281763759442, 0.5677419112762436, 0.5841668572393246, 0.6010795681504533, 0.617503831454087, 0.6344458970124833, 0.6509319415781647, 0.6678057405515574, 0.6839204147690907, 0.7010822988231666, 0.7174980288255028, 0.7343810437014326, 0.7508551416685805, 0.7676900286460295, 0.7841873372090049, 0.8010956107755192, 0.817540695425123, 0.8344697903376073, 0.8506684324820526, 0.8677514685550705, 0.8840450013522059, 0.9011471520643681, 0.9174997354857624, 0.9345339609426446, 0.9508565069991164, 0.967766145884525, 0.98416992923012, 1.0012031306978315, 1.0175389887881465, 1.034472179657314, 1.0508520696894266, 1.0677180179627612, 1.0841975772054866, 1.1012157600489445, 1.1176792766200379, 1.1345025582704693, 1.1508326136972755, 1.1677067539421842, 1.1842675504740328, 1.2011109707527794, 1.2175164608052, 1.234427465009503, 1.2508889336604625, 1.2678248551674187, 1.2840026760241017, 1.3011474934173748, 1.3172846956294961, 1.3343520304188132, 1.3508592376601882, 1.3677350846119225, 1.3841948465560563, 1.4011973280576058, 1.4176188607234508, 1.4344144943752326, 1.450761616404634, 1.4677050472819246, 1.483989022730384, 1.5011724107316695, 1.5174560448504053, 1.5344902703072876, 1.5508892749785446, 1.5677961832261644, 1.5841678812284954, 1.6011294027557597, 1.6174993941094726, 1.6345052889664657, 1.6508851789985783, 1.667801303206943]
18	animate/a59.jpg	animate	inanimate	left	1.664	[0.0, 0.0, 0.0, 0.0, 0.0, 0.0, 0.0, 0.0, 0.0, 0.0, 0.0, 0.0, 0.0, 0.0, 0.0, 0.0, 0.0, 0.0, 0.0, 0.0, 0.0, 0.0, 0.0, 0.0, 0.0, 0.0, 0.0, 0.0, 0.0, 0.0, 0.0, 0.0, 0.0, 0.0, 0.0, 0.0, 0.0, 0.0, 0.0, 0.0, 0.0, 0.0, 0.0, 0.0, 0.0, 0.0, 0.0, 0.0, 0.0, 0.0, 0.0, 0.0, 0.0, -5.0, -44.0, -125.0, -220.0, -340.0, -473.0, -609.0, -743.0, -898.0, -960.0, -960.0, -960.0, -960.0, -960.0, -960.0, -960.0, -960.0, -960.0, -960.0, -960.0, -960.0, -960.0, -960.0, -960.0, -960.0, -960.0, -960.0, -960.0, -960.0, -960.0, -960.0, -960.0, -960.0, -960.0, -960.0, -960.0, -960.0, -960.0, -960.0, -960.0, -960.0, -958.0, -935.0, -913.0, -887.0, -875.0, -867.0]	[-490.0, -490.0, -490.0, -490.0, -490.0, -490.0, -490.0, -490.0, -490.0, -490.0, -490.0, -490.0, -490.0, -490.0, -490.0, -490.0, -490.0, -490.0, -490.0, -490.0, -490.0, -490.0, -490.0, -490.0, -490.0, -490.0, -490.0, -490.0, -490.0, -490.0, -490.0, -490.0, -490.0, -490.0, -490.0, -490.0, -490.0, -490.0, -490.0, -490.0, -490.0, -490.0, -490.0, -490.0, -490.0, -490.0, -490.0, -490.0, -490.0, -490.0, -490.0, -490.0, -490.0, -483.0, -422.0, -298.0, -155.0, -8.0, 143.0, 277.0, 393.0, 507.0, 540.0, 540.0, 540.0, 540.0, 540.0, 540.0, 540.0, 540.0, 540.0, 540.0, 540.0, 540.0, 540.0, 540.0, 540.0, 540.0, 540.0, 540.0, 540.0, 540.0, 540.0, 540.0, 540.0, 540.0, 540.0, 540.0, 540.0, 540.0, 540.0, 540.0, 540.0, 540.0, 539.0, 522.0, 506.0, 491.0, 484.0, 479.0]	[0.0161725984653458, 0.022112817445304245, 0.030743764713406563, 0.04759025701787323, 0.06455314386403188, 0.08077158336527646, 0.09777611284516752, 0.11422734148800373, 0.13117862300714478, 0.1475445184041746, 0.1644200239679776, 0.1808545272797346, 0.19775529153412208, 0.2142304134904407, 0.23106700711650774, 0.24730217194883153, 0.2644347012974322, 0.28085896460106596, 0.29775017156498507, 0.31422870681853965, 0.3311451723566279, 0.3475837716832757, 0.3644944346160628, 0.3806114981416613, 0.397690438257996, 0.4140901255887002, 0.4310106871416792, 0.44761312630726025, 0.4644609839306213, 0.48099413252202794, 0.49792937136953697, 0.5142085681436583, 0.5310898764291778, 0.5473008066182956, 0.5644176346831955, 0.5805923835141584, 0.5976801982615143, 0.6142478214460425, 0.6311666763504036, 0.6472861293004826, 0.6642708614235744, 0.6809968631714582, 0.6978778301272541, 0.7141781895188615, 0.7311424417421222, 0.7475305237458088, 0.7644923866027966, 0.7808995832456276, 0.7978628114215098, 0.8141286962199956, 0.8311154763796367, 0.8476059583481401, 0.864529250538908, 0.880739156738855, 0.8977559742052108, 0.9141546375467442, 0.9311147937551141, 0.9475629503722303, 0.9645258372183889, 0.9808975352789275, 0.9978334567858838, 1.014176482858602, 1.0311315190629102, 1.0476127850124612, 1.0644736132817343, 1.0808548686327413, 1.0978440381586552, 1.1139645150396973, 1.131104895088356, 1.147610395681113, 1.1644077359815128, 1.1808729592594318, 1.1978071741759777, 1.2142102748039179, 1.2311861323541962, 1.247547249076888, 1.2644667866406962, 1.2805992101784796, 1.297683952958323, 1.3141727282200009, 1.331090900406707, 1.3475598783697933, 1.3644852185971104, 1.3806050128187053, 1.3977204755647108, 1.4142123228521086, 1.431111721729394, 1.4475472490303218, 1.4644469892955385, 1.4806094501982443, 1.4976801982847974, 1.5141826268518344, 1.5310697378008626, 1.5475499797030352, 1.5645176452235319, 1.580634708807338, 1.5978426727815531, 1.6142010588664562, 1.6311513163964264, 1.6472694039694034]
19	inanimate/n80.jpg	animate	inanimate	right	1.265	[0.0, 0.0, 0.0, 0.0, 0.0, 0.0, 0.0, 0.0, 0.0, 0.0, 0.0, 0.0, 0.0, 0.0, 0.0, 0.0, 0.0, 0.0, 0.0, 0.0, 0.0, 0.0, 0.0, 0.0, 0.0, 0.0, 0.0, 0.0, 0.0, 0.0, 0.0, 0.0, 0.0, 0.0, 0.0, 0.0, 0.0, 0.0, 0.0, 0.0, 0.0, 0.0, 0.0, 0.0, 0.0, 0.0, 0.0, 0.0, 0.0, 0.0, 0.0, 0.0, 0.0, 0.0, 0.0, 0.0, 0.0, 0.0, 0.0, 4.0, 36.0, 147.0, 255.0, 370.0, 488.0, 597.0, 689.0, 763.0, 808.0, 839.0, 852.0, 855.0, 856.0, 856.0, 856.0, 856.0]	[-490.0, -490.0, -490.0, -490.0, -490.0, -490.0, -490.0, -490.0, -490.0, -490.0, -490.0, -490.0, -490.0, -490.0, -490.0, -490.0, -490.0, -490.0, -490.0, -490.0, -490.0, -490.0, -490.0, -490.0, -490.0, -490.0, -490.0, -490.0, -490.0, -490.0, -490.0, -490.0, -490.0, -490.0, -490.0, -490.0, -490.0, -490.0, -490.0, -490.0, -490.0, -490.0, -490.0, -490.0, -490.0, -490.0, -490.0, -490.0, -490.0, -490.0, -490.0, -490.0, -490.0, -490.0, -490.0, -490.0, -490.0, -490.0, -490.0, -481.0, -445.0, -334.0, -234.0, -117.0, -9.0, 100.0, 200.0, 288.0, 351.0, 400.0, 422.0, 430.0, 433.0, 433.0, 433.0, 433.0]	[0.002814222767483443, 0.007932511682156473, 0.020505514286924154, 0.03768685430986807, 0.053944547136779875, 0.07085111399646848, 0.08736173459328711, 0.10421676019905135, 0.12053486896911636, 0.1374561131815426, 0.15387559781083837, 0.17081595672061667, 0.18714294012170285, 0.20407203497597948, 0.2205649062525481, 0.23747829982312396, 0.2539042698335834, 0.2708569166716188, 0.28715044946875423, 0.30417136289179325, 0.3206372688873671, 0.33755271043628454, 0.3538738911738619, 0.37079650070518255, 0.38696408161194995, 0.40405018971068785, 0.4204949329723604, 0.43749263579957187, 0.4538288352196105, 0.47071765281725675, 0.4873057559598237, 0.5041147016454488, 0.5205761702382006, 0.5374991211574525, 0.553997112379875, 0.5707743141101673, 0.5872040387475863, 0.6041437149397098, 0.620583679585252, 0.6374209558707662, 0.6538988084648736, 0.6708026447449811, 0.6872054040431976, 0.7040952456300147, 0.7206440955051221, 0.7374445078312419, 0.7538639925187454, 0.7707947940798476, 0.7872122307308018, 0.8042072028620169, 0.8206133755738847, 0.8375465664430521, 0.8538633098360151, 0.8708292687078938, 0.8870954948361032, 0.904049506993033, 0.9204932263237424, 0.9375482731265947, 0.9538633098709397, 0.9708446286967956, 0.9871637614560314, 1.0041344989440404, 1.0207328420947306, 1.0375038998317905, 1.053632227354683, 1.0708388260100037, 1.0872183747123927, 1.1041246003005654, 1.1205645649461076, 1.1375322304666042, 1.1538578484905884, 1.170823807362467, 1.1872262253891677, 1.2041211869800463, 1.2205389649607241, 1.237521990435198]
20	animate/a30.jpg	animate	inanimate	left	1.025	[0.0, 0.0, 0.0, 0.0, 0.0, 0.0, 0.0, 0.0, 0.0, 0.0, 0.0, 0.0, 0.0, 0.0, 0.0, 0.0, 0.0, 0.0, 0.0, 0.0, 0.0, 0.0, 0.0, 0.0, 0.0, 0.0, 0.0, 0.0, 0.0, 0.0, 0.0, 0.0, 0.0, 0.0, 0.0, 0.0, 0.0, 0.0, 0.0, 0.0, 0.0, 0.0, 0.0, 0.0, 0.0, 0.0, -4.0, -55.0, -196.0, -310.0, -440.0, -563.0, -663.0, -736.0, -793.0, -831.0, -846.0, -852.0, -852.0, -852.0, -852.0, -852.0]	[-490.0, -490.0, -490.0, -490.0, -490.0, -490.0, -490.0, -490.0, -490.0, -490.0, -490.0, -490.0, -490.0, -490.0, -490.0, -490.0, -490.0, -490.0, -490.0, -490.0, -490.0, -490.0, -490.0, -490.0, -490.0, -490.0, -490.0, -490.0, -490.0, -490.0, -490.0, -490.0, -490.0, -490.0, -490.0, -490.0, -490.0, -490.0, -490.0, -490.0, -490.0, -490.0, -490.0, -490.0, -490.0, -490.0, -487.0, -430.0, -270.0, -138.0, -10.0, 120.0, 212.0, 275.0, 326.0, 360.0, 377.0, 385.0, 385.0, 385.0, 385.0, 385.0]	[0.012465380306821316, 0.017766965145710856, 0.023102683247998357, 0.04010789538733661, 0.057024360983632505, 0.07327283779159188, 0.09042414044961333, 0.10682007315335795, 0.12370035739149898, 0.1401451007113792, 0.15703118761302903, 0.17352849623421207, 0.1903613351751119, 0.2067774065071717, 0.22369011741830036, 0.24005089281126857, 0.256890558404848, 0.2733639737125486, 0.2903435858897865, 0.30649614811409265, 0.3235802081762813, 0.34002973017049953, 0.35690660105319694, 0.37345954694319516, 0.3904528124257922, 0.4067733105039224, 0.4237245920812711, 0.43990241293795407, 0.4569342490285635, 0.4733868429902941, 0.4902620072825812, 0.5066449692822061, 0.523697285389062, 0.5400409941212274, 0.5569281050702557, 0.5733830883400515, 0.5903046738822013, 0.6066791025805287, 0.6236754400888458, 0.6400853674276732, 0.6570223129820079, 0.6733895736979321, 0.6903145725955255, 0.7066968519357033, 0.7237293707439676, 0.7400979967787862, 0.757006611675024, 0.7734134669881314, 0.7904009298072197, 0.8067296199151315, 0.8236634934437461, 0.8398143490194343, 0.8569243503734469, 0.8731373285409063, 0.890284193912521, 0.9067726278444752, 0.9236604214529507, 0.9400478207971901, 0.9570363076054491, 0.9732571364729665, 0.9902626899420284, 1.0066842226078734]
21	animate/a7.jpg	animate	inanimate	left	0.998	[0.0, 0.0, 0.0, 0.0, 0.0, 0.0, 0.0, 0.0, 0.0, 0.0, 0.0, 0.0, 0.0, 0.0, 0.0, 0.0, 0.0, 0.0, 0.0, 0.0, 0.0, 0.0, 0.0, 0.0, 0.0, 0.0, 0.0, 0.0, 0.0, 0.0, 0.0, 0.0, 0.0, 0.0, 0.0, 0.0, 0.0, 0.0, 0.0, 0.0, 0.0, 0.0, 0.0, 0.0, 0.0, 0.0, 0.0, -48.0, -167.0, -276.0, -393.0, -494.0, -585.0, -654.0, -685.0, -692.0, -693.0, -693.0, -693.0, -693.0]	[-490.0, -490.0, -490.0, -490.0, -490.0, -490.0, -490.0, -490.0, -490.0, -490.0, -490.0, -490.0, -490.0, -490.0, -490.0, -490.0, -490.0, -490.0, -490.0, -490.0, -490.0, -490.0, -490.0, -490.0, -490.0, -490.0, -490.0, -490.0, -490.0, -490.0, -490.0, -490.0, -490.0, -490.0, -490.0, -490.0, -490.0, -490.0, -490.0, -490.0, -490.0, -490.0, -490.0, -490.0, -490.0, -490.0, -484.0, -413.0, -215.0, -38.0, 125.0, 245.0, 336.0, 394.0, 414.0, 420.0, 420.0, 420.0, 420.0, 420.0]	[0.00026992615312337875, 0.006374667631462216, 0.015619331737980247, 0.03240813873708248, 0.04942495620343834, 0.06578027026262134, 0.08272916247369722, 0.09913567645708099, 0.11598626471823081, 0.13225556287216023, 0.14930446562357247, 0.16570722497999668, 0.18266328517347574, 0.19906126585556194, 0.21605692070443183, 0.23220709356246516, 0.24923483369639143, 0.26570483564864844, 0.2827042451244779, 0.2990233778837137, 0.3159470114624128, 0.3322903788066469, 0.3492993456311524, 0.3656795769929886, 0.3826499732094817, 0.39900153258349746, 0.4159668087377213, 0.43240301875630394, 0.4492873990093358, 0.46572599827777594, 0.48262915189843625, 0.49910632183309644, 0.5160360993468203, 0.5323818560573272, 0.5493850202183239, 0.5656969849951565, 0.5826356371981092, 0.599084135144949, 0.6160173260723241, 0.6323658134206198, 0.6492686256533489, 0.6657522809691727, 0.6827216531382874, 0.6987994633964263, 0.715955886116717, 0.7322023148881271, 0.7493519109557383, 0.7657089316635393, 0.7827069758204743, 0.7990725298295729, 0.8160630646743812, 0.8322449815459549, 0.8493327962933108, 0.8657748089171946, 0.8827025384525768, 0.8990841351915151, 0.9160006007296033, 0.9323740054387599, 0.9493409882998094, 0.9656904996372759]
22	inanimate/n32.jpg	inanimate	animate	left	1.357	[0.0, 0.0, 0.0, 0.0, 0.0, 0.0, 0.0, 0.0, 0.0, 0.0, 0.0, 0.0, 0.0, 0.0, 0.0, 0.0, 0.0, 0.0, 0.0, 0.0, 0.0, 0.0, 0.0, 0.0, 0.0, 0.0, 0.0, 0.0, 0.0, 0.0, 0.0, 0.0, 0.0, 0.0, 0.0, 0.0, 0.0, 0.0, 0.0, 0.0, 0.0, 0.0, -24.0, -119.0, -262.0, -437.0, -620.0, -776.0, -894.0, -960.0, -960.0, -960.0, -960.0, -960.0, -960.0, -960.0, -960.0, -960.0, -960.0, -960.0, -960.0, -960.0, -960.0, -960.0, -960.0, -960.0, -960.0, -960.0, -960.0, -960.0, -960.0, -960.0, -960.0, -960.0, -960.0, -960.0, -947.0, -926.0, -900.0, -872.0, -850.0, -837.0]	[-490.0, -490.0, -490.0, -490.0, -490.0, -490.0, -490.0, -490.0, -490.0, -490.0, -490.0, -490.0, -490.0, -490.0, -490.0, -490.0, -490.0, -490.0, -490.0, -490.0, -490.0, -490.0, -490.0, -490.0, -490.0, -490.0, -490.0, -490.0, -490.0, -490.0, -490.0, -490.0, -490.0, -490.0, -490.0, -490.0, -490.0, -490.0, -490.0, -490.0, -490.0, -490.0, -457.0, -347.0, -188.0, -2.0, 163.0, 301.0, 402.0, 466.0, 472.0, 474.0, 474.0, 474.0, 474.0, 474.0, 474.0, 474.0, 474.0, 474.0, 474.0, 474.0, 474.0, 474.0, 474.0, 474.0, 474.0, 474.0, 474.0, 474.0, 474.0, 474.0, 474.0, 474.0, 474.0, 474.0, 475.0, 467.0, 460.0, 452.0, 443.0, 437.0]	[0.009139431116636842, 0.015494711056817323, 0.020639965310692787, 0.03343312774086371, 0.05048715049633756, 0.06663868873147294, 0.0835886049317196, 0.10011799883795902, 0.11698224046267569, 0.13347989035537466, 0.15034925198415294, 0.1667933125863783, 0.1837459594826214, 0.200095129548572, 0.21700988843804225, 0.23348774103214964, 0.25041069189319387, 0.2667943366104737, 0.283760636812076, 0.30015418014954776, 0.3170030617620796, 0.3334536077454686, 0.35038748127408326, 0.36655028350651264, 0.3835715383174829, 0.4001449641655199, 0.41703856037929654, 0.43320102128200233, 0.4502953213523142, 0.46680560061940923, 0.4837305995170027, 0.5002166440826841, 0.5170668910141103, 0.5333505251328461, 0.5503823612816632, 0.5668199365609325, 0.5837599541409872, 0.6001456468366086, 0.6170518723665737, 0.6334426850662567, 0.6504113745759241, 0.6667335793026723, 0.683767463429831, 0.700154862832278, 0.7170904430095106, 0.7334334690822288, 0.7504977318458259, 0.7668240325874649, 0.7837510794634, 0.8001449641305953, 0.8170976110268384, 0.8335058316588402, 0.85043048922671, 0.8668093552696519, 0.8837602954590693, 0.9001326761790551, 0.9169716591131873, 0.9333252665237524, 0.9503274066373706, 0.9667683952720836, 0.9836831542197615, 1.000165102770552, 1.0170532377087511, 1.0334778423421085, 1.050421955937054, 1.0667605446651578, 1.0837316234828904, 1.0999401643057354, 1.116994869778864, 1.1334914956823923, 1.1504670118447393, 1.166817888559308, 1.183670524857007, 1.2001709054457024, 1.2169685871340334, 1.2334170850808732, 1.2505014865309931, 1.266711734002456, 1.2836991968215443, 1.3000988842104562, 1.317007499106694, 1.3334170851157978]
23	animate/a52.jpg	inanimate	animate	right	1.484	[0.0, 0.0, 0.0, 0.0, 0.0, 0.0, 0.0, 0.0, 0.0, 0.0, 0.0, 0.0, 0.0, 0.0, 0.0, 0.0, 0.0, 0.0, 0.0, 0.0, 0.0, 0.0, 0.0, 0.0, 0.0, 0.0, 0.0, 0.0, 0.0, 0.0, 0.0, 0.0, 0.0, 0.0, 0.0, 0.0, 0.0, 0.0, 0.0, 0.0, 0.0, 0.0, 0.0, 0.0, 0.0, 0.0, 0.0, 0.0, 0.0, 0.0, 0.0, 0.0, 0.0, 0.0, 0.0, 0.0, 0.0, 0.0, 0.0, 0.0, 0.0, 0.0, 0.0, 0.0, 0.0, 0.0, 0.0, 0.0, 0.0, 0.0, 0.0, 0.0, 0.0, 44.0, 118.0, 206.0, 307.0, 417.0, 519.0, 620.0, 712.0, 790.0, 850.0, 894.0, 941.0, 954.0, 958.0, 958.0, 958.0]	[-490.0, -490.0, -490.0, -490.0, -490.0, -490.0, -490.0, -490.0, -490.0, -490.0, -490.0, -490.0, -490.0, -490.0, -490.0, -490.0, -490.0, -490.0, -490.0, -490.0, -490.0, -490.0, -490.0, -490.0, -490.0, -490.0, -490.0, -490.0, -490.0, -490.0, -490.0, -490.0, -490.0, -490.0, -490.0, -490.0, -490.0, -490.0, -490.0, -490.0, -490.0, -490.0, -490.0, -490.0, -490.0, -490.0, -490.0, -490.0, -490.0, -490.0, -490.0, -490.0, -490.0, -490.0, -490.0, -490.0, -490.0, -490.0, -490.0, -490.0, -490.0, -490.0, -490.0, -490.0, -490.0, -490.0, -490.0, -490.0, -490.0, -490.0, -490.0, -490.0, -490.0, -453.0, -366.0, -242.0, -104.0, 51.0, 202.0, 340.0, 458.0, 540.0, 540.0, 540.0, 540.0, 540.0, 540.0, 540.0, 540.0]	[0.004043704306241125, 0.009416969085577875, 0.0233406265033409, 0.039752260490786284, 0.05694930185563862, 0.07327253057155758, 0.09011663350975141, 0.10659209679579362, 0.12360993830952793, 0.13978263916214928, 0.15684929123381153, 0.17327594390371814, 0.1902091347728856, 0.20663988345768303, 0.22354883968364447, 0.23993658035760745, 0.2569305284996517, 0.27327696792781353, 0.2901968468213454, 0.30639378231717274, 0.3234566797618754, 0.33989562041824684, 0.35686874721432105, 0.3732267919695005, 0.3902647720533423, 0.40660028881393373, 0.4235802423208952, 0.43996491096913815, 0.45702541910577565, 0.47329198656370863, 0.49015418015187606, 0.5066412487649359, 0.5235621516476385, 0.5396857005544007, 0.556744160654489, 0.5732943759066984, 0.590181486797519, 0.6064214303041808, 0.6233843171503395, 0.6399126870674081, 0.6569148271810263, 0.6732964238617569, 0.6902244947850704, 0.7064012916525826, 0.7233641784987412, 0.7399164417292923, 0.7568820592132397, 0.7732373732724227, 0.7902125481050462, 0.8065668381750584, 0.8234563384321518, 0.8399072256870568, 0.8568882032413967, 0.8733244132017717, 0.8901767081697471, 0.9065849288017489, 0.9234914957196452, 0.9398986923624761, 0.9569028805708513, 0.9732902799150907, 0.9902357587707229, 1.0065217821975239, 1.0234611170599237, 1.0397570391651243, 1.0569076592219062, 1.0732831119094044, 1.090179780148901, 1.1064029983244836, 1.1233897784841247, 1.140008942980785, 1.1568192539270967, 1.1730052668135613, 1.1900411989190616, 1.2065600114874542, 1.2235085623688065, 1.2398601217428222, 1.2569448645226657, 1.2732636558939703, 1.2902241534320638, 1.3066293020965531, 1.323520167672541, 1.339975492330268, 1.356931552523747, 1.373243517242372, 1.3902630654047243, 1.4067020060610957, 1.4235870689735748, 1.4399225856759585, 1.456907317857258]
24	animate/a45.jpg	animate	inanimate	left	1.031	[0.0, 0.0, 0.0, 0.0, 0.0, 0.0, 0.0, 0.0, 0.0, 0.0, 0.0, 0.0, 0.0, 0.0, 0.0, 0.0, 0.0, 0.0, 0.0, 0.0, 0.0, 0.0, 0.0, 0.0, 0.0, 0.0, 0.0, 0.0, 0.0, 0.0, 0.0, 0.0, 0.0, 0.0, 0.0, 0.0, 0.0, 0.0, 0.0, 0.0, 0.0, 0.0, -2.0, -34.0, -95.0, -172.0, -261.0, -350.0, -432.0, -507.0, -589.0, -615.0, -633.0, -645.0, -654.0, -658.0, -660.0, -664.0, -666.0, -668.0, -668.0, -668.0]	[-490.0, -490.0, -490.0, -490.0, -490.0, -490.0, -490.0, -490.0, -490.0, -490.0, -490.0, -490.0, -490.0, -490.0, -490.0, -490.0, -490.0, -490.0, -490.0, -490.0, -490.0, -490.0, -490.0, -490.0, -490.0, -490.0, -490.0, -490.0, -490.0, -490.0, -490.0, -490.0, -490.0, -490.0, -490.0, -490.0, -490.0, -490.0, -490.0, -490.0, -490.0, -490.0, -488.0, -444.0, -344.0, -231.0, -104.0, 11.0, 105.0, 187.0, 269.0, 298.0, 322.0, 339.0, 352.0, 360.0, 366.0, 374.0, 381.0, 387.0, 387.0, 387.0]	[0.002766094694379717, 0.00935075042070821, 0.02064750879071653, 0.03734074253588915, 0.05429646139964461, 0.07063914614263922, 0.08755390503210947, 0.10398601903580129, 0.12085333262803033, 0.13736804918153211, 0.15432342671556398, 0.17067532741930336, 0.18760544632095844, 0.20405565097462386, 0.22091238322900608, 0.23733698786236346, 0.254323085420765, 0.27062788215698674, 0.2875173824140802, 0.30407032830407843, 0.32094037253409624, 0.3372926145675592, 0.3542841734015383, 0.37041113566374406, 0.38735217723296955, 0.4041665841941722, 0.4204481702763587, 0.4375158463953994, 0.4539820936624892, 0.4709391779033467, 0.48730712122051045, 0.5042283654911444, 0.5206737914704718, 0.5376267796382308, 0.5539609310217202, 0.5708640845841728, 0.5871125613921322, 0.6042130055138841, 0.6206884687417187, 0.6376161983353086, 0.6539687816984951, 0.6709251832216978, 0.6872975639416836, 0.7042747867526487, 0.7206666234415025, 0.7376714942511171, 0.7539489843766205, 0.7709245005389675, 0.7872514839400537, 0.8042730800807476, 0.8206543354317546, 0.8375721663469449, 0.8539919923641719, 0.8709477112279274, 0.8873497878666967, 0.904264546756167, 0.9206638927571476, 0.9375622677034698, 0.9540251016733237, 0.9709381538559683, 0.9871589827234857, 1.0042263174545951]
25	inanimate/n42.jpg	animate	inanimate	right	1.117	[0.0, 0.0, 0.0, 0.0, 0.0, 0.0, 0.0, 0.0, 0.0, 0.0, 0.0, 0.0, 0.0, 0.0, 0.0, 0.0, 0.0, 0.0, 0.0, 0.0, 0.0, 0.0, 0.0, 0.0, 0.0, 0.0, 0.0, 0.0, 0.0, 0.0, 0.0, 0.0, 0.0, 0.0, 0.0, 0.0, 0.0, 0.0, 0.0, -21.0, -60.0, -108.0, -174.0, -267.0, -378.0, -488.0, -574.0, -626.0, -650.0, -660.0, -661.0, -659.0, -639.0, -600.0, -518.0, -412.0, -264.0, -90.0, 78.0, 248.0, 410.0, 556.0, 685.0, 852.0, 902.0, 915.0, 915.0]	[-490.0, -490.0, -490.0, -490.0, -490.0, -490.0, -490.0, -490.0, -490.0, -490.0, -490.0, -490.0, -490.0, -490.0, -490.0, -490.0, -490.0, -490.0, -490.0, -490.0, -490.0, -490.0, -490.0, -490.0, -490.0, -490.0, -490.0, -490.0, -490.0, -490.0, -490.0, -490.0, -490.0, -490.0, -490.0, -490.0, -490.0, -490.0, -490.0, -475.0, -451.0, -426.0, -388.0, -324.0, -244.0, -144.0, -57.0, 24.0, 76.0, 105.0, 127.0, 159.0, 189.0, 226.0, 268.0, 304.0, 345.0, 378.0, 402.0, 428.0, 452.0, 473.0, 502.0, 540.0, 540.0, 540.0, 540.0]	[0.012368783063720912, 0.01798098091967404, 0.02304260863456875, 0.040030754113104194, 0.056988862343132496, 0.07342131761834025, 0.09040434315102175, 0.10671118786558509, 0.12359932280378416, 0.13997443416155875, 0.15703425963874906, 0.17339742433978245, 0.1903671378386207, 0.20670128922211006, 0.22360102948732674, 0.24006727675441653, 0.2570786328869872, 0.27341176028130576, 0.2903435858315788, 0.30670094792731106, 0.32367441611131653, 0.3400194901623763, 0.35706293158000335, 0.37340220296755433, 0.3903142312192358, 0.4064719134476036, 0.4234563042409718, 0.43978158099344, 0.4570427929284051, 0.4734011789551005, 0.4903763538459316, 0.5067579505266622, 0.5236522294580936, 0.539829708985053, 0.5569226437364705, 0.5733660216792487, 0.5902643965673633, 0.6065265267388895, 0.623567920178175, 0.64002495148452, 0.6570939929224551, 0.6735134775517508, 0.6903893245034851, 0.7066784198977984, 0.7235641655279323, 0.7401819646474905, 0.7570315289776772, 0.7733892323449254, 0.7903145725722425, 0.8067473691771738, 0.8236611040774733, 0.8400734207825735, 0.8570004676585086, 0.873467056255322, 0.8903125245706178, 0.906710505252704, 0.9236720267799683, 0.9400911700795405, 0.9570332356379367, 0.9734230242902413, 0.9902654205798171, 1.0067098225699738, 1.0236389174242504, 1.0400287061347626, 1.0570096836308949, 1.0733841123292223, 1.090322764532175]
26	animate/a63.jpg	animate	inanimate	left	1.128	[0.0, 0.0, 0.0, 0.0, 0.0, 0.0, 0.0, 0.0, 0.0, 0.0, 0.0, 0.0, 0.0, 0.0, 0.0, 0.0, 0.0, 0.0, 0.0, 0.0, 0.0, 0.0, 0.0, 0.0, 0.0, 0.0, 0.0, 0.0, 0.0, 0.0, 0.0, 0.0, 0.0, 0.0, 0.0, 0.0, 0.0, 0.0, 0.0, 0.0, 0.0, 0.0, 0.0, 0.0, 0.0, 0.0, 0.0, 0.0, 0.0, 0.0, 0.0, -56.0, -153.0, -260.0, -355.0, -444.0, -516.0, -584.0, -634.0, -674.0, -698.0, -720.0, -727.0, -731.0, -731.0, -731.0, -731.0, -731.0]	[-490.0, -490.0, -490.0, -490.0, -490.0, -490.0, -490.0, -490.0, -490.0, -490.0, -490.0, -490.0, -490.0, -490.0, -490.0, -490.0, -490.0, -490.0, -490.0, -490.0, -490.0, -490.0, -490.0, -490.0, -490.0, -490.0, -490.0, -490.0, -490.0, -490.0, -490.0, -490.0, -490.0, -490.0, -490.0, -490.0, -490.0, -490.0, -490.0, -490.0, -490.0, -490.0, -490.0, -490.0, -490.0, -490.0, -490.0, -490.0, -490.0, -490.0, -487.0, -436.0, -347.0, -238.0, -131.0, -18.0, 80.0, 170.0, 241.0, 291.0, 324.0, 356.0, 369.0, 379.0, 381.0, 381.0, 381.0, 381.0]	[0.016568886174354702, 0.021588871197309345, 0.03162986529059708, 0.04838795232353732, 0.06526140990899876, 0.08167509193299338, 0.09865811746567488, 0.1149004502221942, 0.1318691397900693, 0.14971539651742205, 0.16519211931154132, 0.18167406792053953, 0.1986048694816418, 0.2149789568502456, 0.23199201963143423, 0.24832787772174925, 0.26533616188680753, 0.2816727025783621, 0.29862022947054356, 0.31493287690682337, 0.3318872303934768, 0.348448368255049, 0.36527608725009486, 0.38174165185773745, 0.3986314934445545, 0.4150117248063907, 0.4318998597445898, 0.4480967952404171, 0.465213623305317, 0.48171297990484163, 0.49861135479295626, 0.515029132773634, 0.5319367236807011, 0.5480841659009457, 0.5652375165955164, 0.5816580252721906, 0.5985891681630164, 0.6150154795031995, 0.6318472944549285, 0.6483446030179039, 0.6652897406020202, 0.6830305254552513, 0.6985212428844534, 0.7149857835029252, 0.7319025904289447, 0.7483637176919729, 0.7654010151745752, 0.7816706546000205, 0.7985260215355083, 0.8151038847281598, 0.832026494317688, 0.8480643685907125, 0.8652518526068889, 0.8816399346105754, 0.8985734668676741, 0.9147738156607375, 0.9319281904026866, 0.9481060112593696, 0.9652470739674754, 0.981422164128162, 0.9985864374903031, 1.014788492990192, 1.03184217447415, 1.048329925746657, 1.0652678952901624, 1.0815522120101377, 1.0985140748671256, 1.1148233090061694]
27	inanimate/n1.jpg	inanimate	animate	left	1.932	[0.0, 0.0, 0.0, 0.0, 0.0, 0.0, 0.0, 0.0, 0.0, 0.0, 0.0, 0.0, 0.0, 0.0, 0.0, 0.0, 0.0, 0.0, 0.0, 0.0, 0.0, 0.0, 0.0, 0.0, 0.0, 0.0, 0.0, 0.0, 0.0, 0.0, 0.0, 0.0, 0.0, 0.0, 0.0, 0.0, 0.0, 0.0, 0.0, 0.0, 0.0, 0.0, 0.0, 0.0, 0.0, 0.0, 0.0, 0.0, 0.0, 0.0, 0.0, 0.0, 0.0, 0.0, 0.0, 0.0, 0.0, 0.0, 0.0, 0.0, 0.0, 0.0, 0.0, 0.0, 0.0, 0.0, 0.0, 0.0, 0.0, 0.0, 0.0, 0.0, 0.0, 0.0, 0.0, 0.0, 0.0, 0.0, 0.0, 0.0, 0.0, 0.0, 0.0, 0.0, 0.0, 0.0, 0.0, 0.0, 0.0, 0.0, 0.0, 0.0, 0.0, 0.0, 0.0, 0.0, 0.0, 0.0, 0.0, -9.0, -64.0, -152.0, -254.0, -355.0, -457.0, -551.0, -637.0, -704.0, -744.0, -783.0, -812.0, -835.0, -840.0, -841.0, -841.0, -841.0]	[-490.0, -490.0, -490.0, -490.0, -490.0, -490.0, -490.0, -490.0, -490.0, -490.0, -490.0, -490.0, -490.0, -490.0, -490.0, -490.0, -490.0, -490.0, -490.0, -490.0, -490.0, -490.0, -490.0, -490.0, -490.0, -490.0, -490.0, -490.0, -490.0, -490.0, -490.0, -490.0, -490.0, -490.0, -490.0, -490.0, -490.0, -490.0, -490.0, -490.0, -490.0, -490.0, -490.0, -490.0, -490.0, -490.0, -490.0, -490.0, -490.0, -490.0, -490.0, -490.0, -490.0, -490.0, -490.0, -490.0, -490.0, -490.0, -490.0, -490.0, -490.0, -490.0, -490.0, -490.0, -490.0, -490.0, -490.0, -490.0, -490.0, -490.0, -490.0, -490.0, -490.0, -490.0, -490.0, -490.0, -490.0, -490.0, -490.0, -490.0, -490.0, -490.0, -490.0, -490.0, -490.0, -490.0, -490.0, -490.0, -490.0, -490.0, -490.0, -490.0, -490.0, -490.0, -490.0, -490.0, -490.0, -490.0, -490.0, -479.0, -407.0, -298.0, -177.0, -54.0, 57.0, 157.0, 250.0, 318.0, 362.0, 407.0, 442.0, 480.0, 492.0, 495.0, 495.0, 495.0]	[0.004772791697178036, 0.009400926413945854, 0.02480187325272709, 0.04126300057396293, 0.05836037266999483, 0.07457471615634859, 0.09159972559427842, 0.10787414375226945, 0.12473292398499325, 0.1413688138127327, 0.15831258601974696, 0.17477883328683674, 0.19164273358182982, 0.20807041024090722, 0.2250670890789479, 0.24135277117602527, 0.25827777007361874, 0.2745924654882401, 0.29159426427213475, 0.3078260157490149, 0.3248298625694588, 0.341381101810839, 0.3583743672934361, 0.3747279747040011, 0.3917123654973693, 0.4080980581929907, 0.4249817557865754, 0.44120668061077595, 0.458308148663491, 0.47474060399690643, 0.4915864136419259, 0.5080608528805897, 0.5249022251809947, 0.5411278326646425, 0.5581856101052836, 0.574745723977685, 0.5916973468847573, 0.607957087631803, 0.6248820865293965, 0.6415374323260039, 0.6583603726467118, 0.6747242200071923, 0.6916294216061942, 0.70782123709796, 0.7249182678642683, 0.7413746164529584, 0.7583009806694463, 0.7747743959771469, 0.7916232775896788, 0.8080963515094481, 0.8249476224882528, 0.8411844939691946, 0.8582265700679272, 0.8747962412890047, 0.8916952988947742, 0.9080768955755048, 0.9250117930932902, 0.9413602804997936, 0.9583535459823906, 0.9746668760781176, 0.9915983602986671, 1.008010335615836, 1.0249298731796443, 1.0414060191251338, 1.0583829006063752, 1.074464806879405, 1.0915236083674245, 1.107837621064391, 1.124822694575414, 1.1411445580306463, 1.1581886821077205, 1.174751868005842, 1.1916714055696502, 1.2079451410099864, 1.2249131478602067, 1.2413950964692049, 1.2583566179964691, 1.2747238786541857, 1.291583682934288, 1.3081001061946154, 1.3250237397733144, 1.3414387870579958, 1.3583965539583005, 1.374715345329605, 1.3916488775867037, 1.4080925968592055, 1.4249957504216582, 1.4414008991443552, 1.4583890446228907, 1.4744532015756704, 1.4916560455458239, 1.5081038608914241, 1.5250947370077483, 1.5414295711088926, 1.5583364793565124, 1.5747191000264138, 1.5915874376078136, 1.608095668896567, 1.6250541183981113, 1.6410967714036815, 1.658261044707615, 1.674569596129004, 1.6916150855831802, 1.7080755302449688, 1.7249674198101275, 1.7413613044773228, 1.75837231928017, 1.7747279746690765, 1.791659458889626, 1.8080765542108566, 1.8249947264557704, 1.8414172831107862, 1.8584044046001509, 1.8747358253458515, 1.8916751602082513, 1.9078109971014783]
28	inanimate/n57.jpg	animate	inanimate	right	1.032	[0.0, 0.0, 0.0, 0.0, 0.0, 0.0, 0.0, 0.0, 0.0, 0.0, 0.0, 0.0, 0.0, 0.0, 0.0, 0.0, 0.0, 0.0, 0.0, 0.0, 0.0, 0.0, 0.0, 0.0, 0.0, 0.0, 0.0, 0.0, 0.0, 0.0, 0.0, 0.0, 0.0, 0.0, -7.0, -60.0, -129.0, -201.0, -316.0, -385.0, -427.0, -441.0, -441.0, -427.0, -388.0, -325.0, -232.0, -119.0, -5.0, 138.0, 313.0, 418.0, 516.0, 592.0, 646.0, 686.0, 707.0, 718.0, 720.0, 721.0, 721.0, 721.0]	[-490.0, -490.0, -490.0, -490.0, -490.0, -490.0, -490.0, -490.0, -490.0, -490.0, -490.0, -490.0, -490.0, -490.0, -490.0, -490.0, -490.0, -490.0, -490.0, -490.0, -490.0, -490.0, -490.0, -490.0, -490.0, -490.0, -490.0, -490.0, -490.0, -490.0, -490.0, -490.0, -490.0, -490.0, -480.0, -416.0, -333.0, -230.0, -67.0, 28.0, 98.0, 135.0, 156.0, 179.0, 208.0, 238.0, 271.0, 301.0, 319.0, 336.0, 362.0, 376.0, 391.0, 400.0, 406.0, 410.0, 415.0, 416.0, 418.0, 418.0, 418.0, 418.0]	[0.01491444482235238, 0.02245585707714781, 0.04062501492444426, 0.04445306496927515, 0.06129546125885099, 0.07823240681318566, 0.09460854216013104, 0.1116376476129517, 0.1280967268976383, 0.14502206712495536, 0.16152654372854158, 0.17841706797480583, 0.1947573633515276, 0.21166905027348548, 0.22801275900565088, 0.24499885650584474, 0.26144940248923376, 0.27839863597182557, 0.2945232089259662, 0.3116560796042904, 0.3279653136851266, 0.3449954431853257, 0.3614838771172799, 0.3794810030958615, 0.39486044592922553, 0.4117103515891358, 0.42811379354679957, 0.4450824831146747, 0.46147261309670284, 0.47841365466592833, 0.4948310913168825, 0.5117096689064056, 0.5279250363819301, 0.545057907118462, 0.561439162469469, 0.5783720120089129, 0.5948338219895959, 0.611728442250751, 0.6281294949003495, 0.6450073898304254, 0.6611968160141259, 0.6784310626098886, 0.694910280581098, 0.7117420955328271, 0.7281305188662373, 0.7449821311747655, 0.7614562291419134, 0.7782815587706864, 0.794766579347197, 0.8117004529340193, 0.827843799139373, 0.8449439018731937, 0.8614712478010915, 0.8783484600135125, 0.8948570326319896, 0.9117042075959034, 0.9281062842346728, 0.9450975017389283, 0.961429605144076, 0.9784290146199055, 0.9947699927142821, 1.0117154715699144]
29	animate/a17.jpg	inanimate	animate	right	1.61	[0.0, 0.0, 0.0, 0.0, 0.0, 0.0, 0.0, 0.0, 0.0, 0.0, 0.0, 0.0, 0.0, 0.0, 0.0, 0.0, 0.0, 0.0, 0.0, 0.0, 0.0, 0.0, 0.0, 0.0, 0.0, 0.0, -7.0, -23.0, -50.0, -84.0, -129.0, -179.0, -234.0, -288.0, -340.0, -386.0, -430.0, -457.0, -494.0, -512.0, -529.0, -545.0, -558.0, -569.0, -578.0, -585.0, -591.0, -597.0, -599.0, -601.0, -601.0, -601.0, -601.0, -601.0, -601.0, -601.0, -599.0, -595.0, -594.0, -594.0, -594.0, -594.0, -594.0, -594.0, -594.0, -593.0, -593.0, -595.0, -598.0, -598.0, -599.0, -599.0, -599.0, -599.0, -599.0, -597.0, -576.0, -551.0, -514.0, -452.0, -354.0, -241.0, -100.0, 41.0, 178.0, 319.0, 531.0, 642.0, 731.0, 788.0, 822.0, 845.0, 854.0, 854.0, 854.0, 854.0, 854.0]	[-490.0, -490.0, -490.0, -490.0, -490.0, -490.0, -490.0, -490.0, -490.0, -490.0, -490.0, -490.0, -490.0, -490.0, -490.0, -490.0, -490.0, -490.0, -490.0, -490.0, -490.0, -490.0, -490.0, -490.0, -490.0, -490.0, -489.0, -475.0, -452.0, -417.0, -364.0, -298.0, -224.0, -152.0, -86.0, -25.0, 26.0, 61.0, 113.0, 139.0, 163.0, 189.0, 208.0, 224.0, 236.0, 247.0, 255.0, 263.0, 267.0, 271.0, 272.0, 272.0, 272.0, 272.0, 272.0, 273.0, 274.0, 275.0, 275.0, 275.0, 275.0, 275.0, 275.0, 275.0, 275.0, 276.0, 279.0, 284.0, 287.0, 290.0, 291.0, 291.0, 291.0, 291.0, 291.0, 291.0, 293.0, 293.0, 300.0, 308.0, 322.0, 338.0, 359.0, 380.0, 396.0, 417.0, 447.0, 465.0, 474.0, 482.0, 488.0, 490.0, 492.0, 492.0, 492.0, 492.0, 492.0]	[0.012898190587293357, 0.01885376952122897, 0.02639722969615832, 0.04072878014994785, 0.057149630156345665, 0.07416166894836351, 0.0904876283602789, 0.10738054197281599, 0.12391983449924737, 0.14091821998590603, 0.15730459534097463, 0.1742425648844801, 0.1905719376518391, 0.20758636575192213, 0.22395772248273715, 0.2408475640695542, 0.2574165525729768, 0.27430605283007026, 0.29067467886488885, 0.30754950182745233, 0.3238775092177093, 0.34083937207469717, 0.35733599797822535, 0.3742333488771692, 0.390636449563317, 0.4076061631203629, 0.42395362647948787, 0.4408158200676553, 0.4572899180348031, 0.4742698715417646, 0.4903586044674739, 0.5074699711985886, 0.5239317811792716, 0.5408789666835219, 0.5571626008022577, 0.5740503944107331, 0.5904367697658017, 0.6075498431455344, 0.6237191307009198, 0.6409260706859641, 0.6571189101669006, 0.6742077489034273, 0.6904702204046771, 0.7074457365670241, 0.7237815945991315, 0.7408847693586722, 0.7570810221950524, 0.7741073970100842, 0.7906521508703008, 0.8075143445166759, 0.8239123251987621, 0.840864630707074, 0.8572834326769225, 0.874182490282692, 0.8907436281442642, 0.9075689577730373, 0.9239256371511146, 0.9409028600202873, 0.9573028886807151, 0.9741507463040762, 0.990626550919842, 1.0075419924687594, 1.0239386078319512, 1.0409250466618687, 1.0572868460440077, 1.0742961541982368, 1.0906258682371117, 1.1075440404820256, 1.123760431946721, 1.1408560973941348, 1.1573076673666947, 1.174142554285936, 1.1906579535570927, 1.2075518911588006, 1.2239526024786755, 1.2409062733640894, 1.257316883362364, 1.274210138246417, 1.2907323641702533, 1.307575784449, 1.323966597148683, 1.340911393344868, 1.3573278060066514, 1.3741862449678592, 1.390347340493463, 1.4073795179720037, 1.4239519198308699, 1.4408786253770813, 1.4573032300104387, 1.4742548528593034, 1.4907286094967276, 1.5075378965120763, 1.5239437278360128, 1.5408646307187155, 1.5570916035212576, 1.574053807707969, 1.5906483962316997]
30	animate/a75.jpg	animate	inanimate	left	1.865	[0.0, 0.0, 0.0, 0.0, 0.0, 0.0, 0.0, 0.0, 0.0, 0.0, 0.0, 0.0, 0.0, 0.0, 0.0, 0.0, 0.0, 0.0, 0.0, 0.0, 0.0, 0.0, 0.0, 0.0, 0.0, 0.0, 0.0, 0.0, 0.0, 0.0, 0.0, 0.0, 0.0, 0.0, 0.0, 0.0, 0.0, 0.0, 0.0, 0.0, 0.0, 0.0, 0.0, 0.0, 0.0, 0.0, 0.0, 0.0, 0.0, 0.0, 0.0, 0.0, 0.0, 0.0, 0.0, 0.0, 0.0, 0.0, 0.0, 0.0, 0.0, 0.0, 0.0, 0.0, 0.0, 0.0, 0.0, 0.0, 0.0, 0.0, 0.0, -26.0, -101.0, -212.0, -334.0, -483.0, -688.0, -751.0, -908.0, -960.0, -960.0, -960.0, -960.0, -960.0, -960.0, -960.0, -960.0, -960.0, -960.0, -960.0, -960.0, -960.0, -960.0, -960.0, -960.0, -960.0, -960.0, -960.0, -960.0, -960.0, -960.0, -960.0, -959.0, -959.0, -959.0, -958.0, -956.0, -952.0, -938.0, -925.0, -912.0, -898.0]	[-490.0, -490.0, -490.0, -490.0, -490.0, -490.0, -490.0, -490.0, -490.0, -490.0, -490.0, -490.0, -490.0, -490.0, -490.0, -490.0, -490.0, -490.0, -490.0, -490.0, -490.0, -490.0, -490.0, -490.0, -490.0, -490.0, -490.0, -490.0, -490.0, -490.0, -490.0, -490.0, -490.0, -490.0, -490.0, -490.0, -490.0, -490.0, -490.0, -490.0, -490.0, -490.0, -490.0, -490.0, -490.0, -490.0, -490.0, -490.0, -490.0, -490.0, -490.0, -490.0, -490.0, -490.0, -490.0, -490.0, -490.0, -490.0, -490.0, -490.0, -490.0, -490.0, -490.0, -490.0, -490.0, -490.0, -490.0, -490.0, -490.0, -490.0, -490.0, -469.0, -405.0, -303.0, -178.0, -44.0, 133.0, 178.0, 290.0, 348.0, 382.0, 400.0, 412.0, 412.0, 412.0, 412.0, 412.0, 412.0, 412.0, 412.0, 412.0, 412.0, 412.0, 412.0, 412.0, 412.0, 412.0, 412.0, 412.0, 412.0, 412.0, 412.0, 415.0, 415.0, 415.0, 415.0, 415.0, 416.0, 421.0, 425.0, 426.0, 428.0]	[0.011035536183044314, 0.016572299471590668, 0.021037959668319672, 0.037058426009025425, 0.05420529138064012, 0.07039710687240586, 0.08752690558321774, 0.1036859531304799, 0.12067921867128462, 0.1369997167494148, 0.15406841679941863, 0.17033122963039204, 0.18741836171830073, 0.20391396363265812, 0.22075192257761955, 0.23696387675590813, 0.2540264328708872, 0.2705408080946654, 0.28749789227731526, 0.3038753930013627, 0.3208287224988453, 0.3369751407299191, 0.35395987291121855, 0.37059883470647037, 0.387526222912129, 0.403923520934768, 0.42079015186754987, 0.4373379777534865, 0.45414760609855875, 0.47054456279147416, 0.4875412415713072, 0.5037405664334074, 0.5207850318984129, 0.5372352364938706, 0.5541544327279553, 0.5705520720803179, 0.5875750335399061, 0.603868225007318, 0.6209335117600858, 0.6372229485423304, 0.6541476061102003, 0.670518621453084, 0.6875238335924223, 0.7038695903029293, 0.7208198478911072, 0.7372471831622534, 0.7540472541586496, 0.7703148456057534, 0.7873477057437412, 0.8040470834821463, 0.8207956132246181, 0.8372314818552695, 0.8541223474312574, 0.8706213627010584, 0.8875142762553878, 0.9038180490606464, 0.9209219064214267, 0.9370358980377205, 0.9540824114810675, 0.9705336401239038, 0.987479118979536, 1.0036183692282066, 1.0213666633935645, 1.0385712140705436, 1.054072171507869, 1.0702551123686135, 1.0873521430767141, 1.1040641501895152, 1.1202662056894042, 1.1376359615242109, 1.1536502838716842, 1.1708234318648465, 1.1869261594256386, 1.2042566619929858, 1.2202819070080295, 1.2375468735699542, 1.2537195744807832, 1.270747655944433, 1.2870316313346848, 1.304161771433428, 1.3203464189427905, 1.3374031723942608, 1.3539103796356358, 1.370828210550826, 1.3872784151462838, 1.4041501660831273, 1.420546781446319, 1.437476558960043, 1.4538844383205287, 1.4708579065045342, 1.4873705750796944, 1.5041576754301786, 1.5205901307053864, 1.5374922602786683, 1.553880683670286, 1.57081046118401, 1.587243257847149, 1.604184640746098, 1.6202839550096542, 1.6373809857177548, 1.6539165236172266, 1.6707776932162233, 1.687244623200968, 1.7042324273497798, 1.7206082213670015, 1.7374536896822974, 1.7538762463373132, 1.7707439012592658, 1.7872415512101725, 1.8041689394158311, 1.820544733433053, 1.8375263935886323]
31	animate/a28.jpg	inanimate	animate	right	1.713	[0.0, 0.0, 0.0, 0.0, 0.0, 0.0, 0.0, 0.0, 0.0, 0.0, 0.0, 0.0, 0.0, 0.0, 0.0, 0.0, 0.0, 0.0, 0.0, 0.0, 0.0, 0.0, 0.0, 0.0, 0.0, 0.0, 0.0, 0.0, 0.0, 0.0, 0.0, 0.0, 0.0, 0.0, 0.0, 0.0, 0.0, 0.0, 0.0, 0.0, 0.0, 0.0, 0.0, 0.0, 0.0, 0.0, 0.0, 0.0, 0.0, 0.0, 0.0, 0.0, 0.0, 0.0, 0.0, 0.0, 0.0, 0.0, 0.0, 0.0, 0.0, 0.0, 0.0, 1.0, 11.0, 25.0, 55.0, 119.0, 145.0, 221.0, 269.0, 304.0, 331.0, 350.0, 365.0, 378.0, 388.0, 393.0, 396.0, 398.0, 402.0, 404.0, 407.0, 414.0, 422.0, 431.0, 446.0, 461.0, 483.0, 509.0, 544.0, 596.0, 636.0, 674.0, 711.0, 746.0, 779.0, 801.0, 820.0, 846.0, 863.0, 880.0, 888.0]	[-490.0, -490.0, -490.0, -490.0, -490.0, -490.0, -490.0, -490.0, -490.0, -490.0, -490.0, -490.0, -490.0, -490.0, -490.0, -490.0, -490.0, -490.0, -490.0, -490.0, -490.0, -490.0, -490.0, -490.0, -490.0, -490.0, -490.0, -490.0, -490.0, -490.0, -490.0, -490.0, -490.0, -490.0, -490.0, -490.0, -490.0, -490.0, -490.0, -490.0, -490.0, -490.0, -490.0, -490.0, -490.0, -490.0, -490.0, -490.0, -490.0, -490.0, -490.0, -490.0, -490.0, -490.0, -490.0, -490.0, -490.0, -490.0, -490.0, -490.0, -490.0, -490.0, -490.0, -483.0, -467.0, -445.0, -409.0, -337.0, -311.0, -226.0, -160.0, -99.0, -42.0, -1.0, 30.0, 50.0, 61.0, 65.0, 68.0, 70.0, 73.0, 75.0, 77.0, 80.0, 86.0, 93.0, 107.0, 119.0, 137.0, 161.0, 190.0, 235.0, 267.0, 300.0, 331.0, 360.0, 392.0, 417.0, 434.0, 453.0, 466.0, 474.0, 477.0]	[0.011615119758062065, 0.017850250413175672, 0.025143513514194638, 0.0382425103452988, 0.055227242526598275, 0.07158153253840283, 0.08855568338185549, 0.1049348907545209, 0.12182575633050874, 0.13834934757323936, 0.15521427185740322, 0.1715405725990422, 0.18843860615743324, 0.20490041613811627, 0.22192610829370096, 0.2383541262242943, 0.255208469228819, 0.2716344391810708, 0.28860244603129104, 0.30495161609724164, 0.3219025562866591, 0.33801552385557443, 0.35516546125290915, 0.37158255657413974, 0.3886277046985924, 0.40491680009290576, 0.4218547696364112, 0.4381032464443706, 0.4551425919053145, 0.4713453301228583, 0.48853861674433574, 0.5049270401359536, 0.5218936816090718, 0.5383298916276544, 0.5552292905049399, 0.5715859698830172, 0.5884655714617111, 0.6049328427761793, 0.6218441883102059, 0.6382783502922393, 0.6552579624694772, 0.671625564515125, 0.6885519287316129, 0.7049526401096955, 0.7218725190032274, 0.7382875662879087, 0.7552767358138226, 0.7716426311526448, 0.7885744567029178, 0.8049212374608032, 0.8218844656366855, 0.8382425103336573, 0.855297215806786, 0.8715917725348845, 0.8884785421541892, 0.904981994710397, 0.9218356549972668, 0.938023715862073, 0.9551698985742405, 0.9715129246469587, 0.9884764941525646, 1.0049113387940452, 1.0218267803429626, 1.0382800569641404, 1.0551275732577778, 1.0715607112506405, 1.0884317795280367, 1.1049116801004857, 1.1218486256548204, 1.1382684516720474, 1.1552712745033205, 1.1716402418678626, 1.188549198093824, 1.2049639040487818, 1.2218397510005161, 1.2382766436203383, 1.255258645163849, 1.2716183965094388, 1.2885727500542998, 1.3049065601080656, 1.3218462363583967, 1.3382971236133017, 1.3552241705474444, 1.371476743312087, 1.3885382754378952, 1.404931818775367, 1.421771484427154, 1.4383039503009059, 1.4552490878268145, 1.4713849247200415, 1.4885014114552177, 1.50494137610076, 1.5217776283971034, 1.5382971236249432, 1.5552289491752163, 1.5716187378857285, 1.5884580621495843, 1.604922602768056, 1.6217694364022464, 1.6382988303084858, 1.6552122238790616, 1.6716317085083574, 1.6885304247844033]
32	animate/a5.jpg	inanimate	animate	right	1.047	[0.0, 0.0, 0.0, 0.0, 0.0, 0.0, 0.0, 0.0, 0.0, 0.0, 0.0, 0.0, 0.0, 0.0, 0.0, 0.0, 0.0, 0.0, 0.0, 0.0, 0.0, 0.0, 0.0, 0.0, 0.0, 0.0, 0.0, 0.0, -1.0, -5.0, -8.0, -8.0, -9.0, -9.0, -9.0, -9.0, -9.0, -9.0, -9.0, -9.0, -15.0, -28.0, -46.0, -76.0, -105.0, -126.0, -130.0, -102.0, -45.0, 41.0, 136.0, 232.0, 327.0, 432.0, 532.0, 623.0, 710.0, 769.0, 817.0, 827.0, 830.0, 830.0, 830.0]	[-490.0, -490.0, -490.0, -490.0, -490.0, -490.0, -490.0, -490.0, -490.0, -490.0, -490.0, -490.0, -490.0, -490.0, -490.0, -490.0, -490.0, -490.0, -490.0, -490.0, -490.0, -490.0, -490.0, -490.0, -490.0, -490.0, -490.0, -490.0, -489.0, -488.0, -487.0, -487.0, -486.0, -486.0, -486.0, -486.0, -486.0, -486.0, -486.0, -486.0, -481.0, -469.0, -455.0, -435.0, -409.0, -377.0, -326.0, -274.0, -199.0, -125.0, -43.0, 39.0, 106.0, 174.0, 237.0, 288.0, 337.0, 372.0, 411.0, 428.0, 439.0, 444.0, 444.0]	[0.000243643531575799, 0.007315381488297135, 0.015332270646467805, 0.03260747721651569, 0.04871839680708945, 0.06579733692342415, 0.08205366437323391, 0.09914147912058979, 0.11539780657039955, 0.13232656015316024, 0.14870133018121123, 0.16569220629753545, 0.1822192108957097, 0.19915786309866235, 0.21555379580240697, 0.2323907307581976, 0.2489109086454846, 0.2659133901470341, 0.28228781884536147, 0.2992384177050553, 0.3155295611359179, 0.33240677340654656, 0.34884981001960114, 0.36582054756581783, 0.3821806402411312, 0.3992370523628779, 0.41551488381810486, 0.4324436373426579, 0.4488812126801349, 0.46573623828589916, 0.48220794688677415, 0.4991588870761916, 0.5152855080086738, 0.5323074454790913, 0.5489167112973519, 0.5658263501827605, 0.5821830295608379, 0.5991592284408398, 0.6152414760435931, 0.632455242681317, 0.6488791646552272, 0.6658079182379879, 0.6821645976160653, 0.6990994951338507, 0.7155049851280637, 0.7325610559200868, 0.7487306848051958, 0.7657201956608333, 0.7820400110213086, 0.7991551324375905, 0.8155343398102559, 0.8324845973402262, 0.8488293300615624, 0.865727704949677, 0.8819307844969444, 0.8991097351536155, 0.9155200038221665, 0.9324033600860275, 0.9501902248593979, 0.965706542308908, 0.9821014509652741, 0.9991390897776, 1.0156391290365718]
