trialIndex	left_option	right_option	response	response_time	xTrajectory	yTrajectory	tTrajectory
0	images/0556.jpg	images/0447.jpg	left	6.003	[0.0, 0.0, 0.0, 0.0, 0.0, 0.0, 0.0, 0.0, 0.0, 0.0, 0.0, 0.0, 0.0, 0.0, 0.0, 0.0, 0.0, 0.0, 0.0, 0.0, 0.0, 0.0, 0.0, 0.0, 0.0, 0.0, 0.0, 0.0, 0.0, 0.0, 0.0, 0.0, 0.0, 0.0, 0.0, 0.0, 0.0, 0.0, 0.0, 0.0, 0.0, 0.0, 0.0, 0.0, 0.0, 0.0, 0.0, 0.0, 0.0, 0.0, 0.0, 0.0, 0.0, 0.0, 0.0, 0.0, 0.0, 0.0, 0.0, 0.0, 0.0, 0.0, 0.0, 0.0, 0.0, 0.0, 0.0, 0.0, 0.0, 0.0, 0.0, 0.0, 0.0, 0.0, 0.0, 0.0, 0.0, 0.0, 0.0, 0.0, 0.0, 0.0, 0.0, 0.0, 0.0, 0.0, 0.0, 0.0, 0.0, 0.0, 0.0, 0.0, 0.0, 0.0, 0.0, 0.0, 0.0, 0.0, 0.0, 0.0, 0.0, 0.0, 0.0, 0.0, 0.0, 0.0, 0.0, 0.0, 0.0, 0.0, 0.0, 0.0, 0.0, 0.0, 0.0, 0.0, 0.0, 0.0, 0.0, 0.0, 0.0, 0.0, 0.0, 0.0, 0.0, 0.0, 0.0, 0.0, 0.0, 0.0, 0.0, 0.0, 0.0, 0.0, 0.0, 0.0, 0.0, 0.0, 0.0, 0.0, 0.0, 0.0, 0.0, 0.0, 0.0, 0.0, 0.0, 0.0, 0.0, 0.0, 0.0, 0.0, 0.0, 0.0, 0.0, 0.0, 0.0, 0.0, 0.0, 0.0, 0.0, 0.0, 0.0, 0.0, 0.0, 0.0, 0.0, 0.0, 0.0, 0.0, 0.0, 0.0, 0.0, 0.0, 0.0, 0.0, 0.0, 0.0, 0.0, 0.0, 0.0, 0.0, 0.0, 0.0, 0.0, 0.0, 0.0, 0.0, 0.0, 0.0, 0.0, 0.0, 0.0, 0.0, 0.0, 0.0, 0.0, 0.0, 0.0, 0.0, 0.0, 0.0, 0.0, 0.0, 0.0, 0.0, 0.0, 0.0, 0.0, 0.0, 0.0, 0.0, 0.0, 0.0, 0.0, 0.0, 0.0, 0.0, 0.0, 0.0, 0.0, 0.0, 0.0, 0.0, 0.0, 0.0, 0.0, 0.0, 0.0, 0.0, 0.0, 0.0, 0.0, 0.0, 0.0, 0.0, 0.0, 0.0, 0.0, 0.0, 0.0, 0.0, 0.0, 0.0, 0.0, 0.0, 0.0, 0.0, 0.0, 0.0, 0.0, 0.0, 0.0, 0.0, 0.0, 0.0, 0.0, 0.0, 0.0, 0.0, 0.0, 0.0, 0.0, 0.0, 0.0, 0.0, 0.0, 0.0, 0.0, 0.0, 0.0, 0.0, 0.0, 0.0, 0.0, 0.0, 0.0, 0.0, 0.0, 0.0, 0.0, 0.0, 0.0, 0.0, 0.0, 0.0, 0.0, 0.0, 0.0, 0.0, 0.0, 0.0, 0.0, 0.0, 0.0, 0.0, 0.0, 0.0, 0.0, 0.0, 0.0, 0.0, 1.0, -27.0, -68.0, -111.0, -147.0, -179.0, -205.0, -228.0, -240.0, -248.0, -251.0, -252.0, -253.0, -253.0, -255.0, -255.0, -254.0, -243.0, -232.0, -225.0, -224.0, -232.0, -269.0, -326.0, -374.0, -409.0, -431.0, -436.0, -437.0, -437.0, -437.0, -437.0, -438.0, -453.0, -480.0, -509.0, -540.0, -586.0, -650.0, -669.0, -677.0, -679.0, -679.0, -679.0, -679.0, -679.0, -679.0, -679.0, -680.0, -683.0, -685.0, -686.0, -686.0, -686.0, -686.0, -686.0, -686.0]	[-490.0, -490.0, -490.0, -490.0, -490.0, -490.0, -490.0, -490.0, -490.0, -490.0, -490.0, -490.0, -490.0, -490.0, -490.0, -490.0, -490.0, -490.0, -490.0, -490.0, -490.0, -490.0, -490.0, -490.0, -490.0, -490.0, -490.0, -490.0, -490.0, -490.0, -490.0, -490.0, -490.0, -490.0, -490.0, -490.0, -490.0, -490.0, -490.0, -490.0, -490.0, -490.0, -490.0, -490.0, -490.0, -490.0, -490.0, -490.0, -490.0, -490.0, -490.0, -490.0, -490.0, -490.0, -490.0, -490.0, -490.0, -490.0, -490.0, -490.0, -490.0, -490.0, -490.0, -490.0, -490.0, -490.0, -490.0, -490.0, -490.0, -490.0, -490.0, -490.0, -490.0, -490.0, -490.0, -490.0, -490.0, -490.0, -490.0, -490.0, -490.0, -490.0, -490.0, -490.0, -490.0, -490.0, -490.0, -490.0, -490.0, -490.0, -490.0, -490.0, -490.0, -490.0, -490.0, -490.0, -490.0, -490.0, -490.0, -490.0, -490.0, -490.0, -490.0, -490.0, -490.0, -490.0, -490.0, -490.0, -490.0, -490.0, -490.0, -490.0, -490.0, -490.0, -490.0, -490.0, -490.0, -490.0, -490.0, -490.0, -490.0, -490.0, -490.0, -490.0, -490.0, -490.0, -490.0, -490.0, -490.0, -490.0, -490.0, -490.0, -490.0, -490.0, -490.0, -490.0, -490.0, -490.0, -490.0, -490.0, -490.0, -490.0, -490.0, -490.0, -490.0, -490.0, -490.0, -490.0, -490.0, -490.0, -490.0, -490.0, -490.0, -490.0, -490.0, -490.0, -490.0, -490.0, -490.0, -490.0, -490.0, -490.0, -490.0, -490.0, -490.0, -490.0, -490.0, -490.0, -490.0, -490.0, -490.0, -490.0, -490.0, -490.0, -490.0, -490.0, -490.0, -490.0, -490.0, -490.0, -490.0, -490.0, -490.0, -490.0, -490.0, -490.0, -490.0, -490.0, -490.0, -490.0, -490.0, -490.0, -490.0, -490.0, -490.0, -490.0, -490.0, -490.0, -490.0, -490.0, -490.0, -490.0, -490.0, -490.0, -490.0, -490.0, -490.0, -490.0, -490.0, -490.0, -490.0, -490.0, -490.0, -490.0, -490.0, -490.0, -490.0, -490.0, -490.0, -490.0, -490.0, -490.0, -490.0, -490.0, -490.0, -490.0, -490.0, -490.0, -490.0, -490.0, -490.0, -490.0, -490.0, -490.0, -490.0, -490.0, -490.0, -490.0, -490.0, -490.0, -490.0, -490.0, -490.0, -490.0, -490.0, -490.0, -490.0, -490.0, -490.0, -490.0, -490.0, -490.0, -490.0, -490.0, -490.0, -490.0, -490.0, -490.0, -490.0, -490.0, -490.0, -490.0, -490.0, -490.0, -490.0, -490.0, -490.0, -490.0, -490.0, -490.0, -490.0, -490.0, -490.0, -490.0, -490.0, -490.0, -490.0, -490.0, -490.0, -490.0, -490.0, -490.0, -490.0, -490.0, -490.0, -490.0, -490.0, -490.0, -490.0, -490.0, -490.0, -490.0, -490.0, -490.0, -490.0, -490.0, -490.0, -490.0, -490.0, -490.0, -490.0, -490.0, -482.0, -424.0, -364.0, -302.0, -252.0, -208.0, -176.0, -142.0, -124.0, -112.0, -107.0, -106.0, -105.0, -105.0, -99.0, -91.0, -84.0, -70.0, -55.0, -44.0, -31.0, -5.0, 41.0, 88.0, 130.0, 161.0, 191.0, 198.0, 200.0, 200.0, 200.0, 200.0, 202.0, 208.0, 220.0, 232.0, 240.0, 254.0, 266.0, 272.0, 276.0, 277.0, 279.0, 280.0, 281.0, 282.0, 284.0, 286.0, 290.0, 296.0, 300.0, 303.0, 303.0, 303.0, 303.0, 303.0, 303.0]	[0.014067700016312301, 0.0188859571935609, 0.02794425346655771, 0.044237786263693124, 0.06127405969891697, 0.07779355492675677, 0.09465711389202625, 0.11108956922544166, 0.12787393887992948, 0.1444227887550369, 0.16126245440682396, 0.17776932031847537, 0.1945769006269984, 0.21111619315342978, 0.22791285085259005, 0.24441118340473622, 0.2613102410105057, 0.2777734163100831, 0.29467588721308857, 0.31108717987081036, 0.3279428881360218, 0.34483375371200964, 0.3612645023968071, 0.3777771709719673, 0.3946571138803847, 0.4110697718570009, 0.42792752815876156, 0.4444207407650538, 0.46127303573302925, 0.4774880618788302, 0.49458475125720724, 0.5111830944661051, 0.5279456188436598, 0.5443934341310523, 0.5612235424341634, 0.5777802429511212, 0.5945850926218554, 0.6110905932146125, 0.6279121681582183, 0.6444180100806989, 0.6612668916932307, 0.677769661648199, 0.6946946605457924, 0.7109427959658206, 0.7278869095025584, 0.7442179889185354, 0.7612057931255549, 0.7777140243561007, 0.794715823198203, 0.8108461987576447, 0.828134034643881, 0.8443913861410692, 0.8612665503751487, 0.8777365523274057, 0.8945257006562315, 0.9110786465462297, 0.927936744177714, 0.9443845594651066, 0.9613235529977828, 0.9776962750474922, 0.9946345859207213, 1.0110888865310699, 1.027925480157137, 1.0444275673944503, 1.061303073016461, 1.0777259710012004, 1.0946308312704787, 1.1108619000879116, 1.127957565477118, 1.1444060634239577, 1.1612549450364895, 1.177726312307641, 1.1946205912390724, 1.210843809414655, 1.2278872508904897, 1.2444128901115619, 1.2613686089753173, 1.277772733650636, 1.2946390232536942, 1.3110612385789864, 1.327954834792763, 1.3444272261112928, 1.3612860063440166, 1.3777389416354708, 1.394693295180332, 1.411044513224624, 1.4278923708479851, 1.4444050394231454, 1.4612890783464536, 1.4775515497894958, 1.4946222979342565, 1.5111424758215435, 1.527904317539651, 1.5443753434810787, 1.5612839583773166, 1.5777935549267568, 1.594562905956991, 1.6111452064942569, 1.6279927227878943, 1.6444094767794013, 1.6612784970202483, 1.6774631445878185, 1.69459976995131, 1.7110984438331798, 1.7279367441660725, 1.7443849007831886, 1.7612197877606377, 1.7777577149681747, 1.7945796312997118, 1.8110800118884072, 1.8279667814495042, 1.8444057221058756, 1.8612313930643722, 1.8777614696300589, 1.894614105927758, 1.911166369158309, 1.9279630267992616, 1.944395482132677, 1.9613071689964272, 1.9777590802987106, 1.994676911213901, 2.011019595898688, 2.028019688092172, 2.0443367728148587, 2.061278838373255, 2.077743378991727, 2.094618543225806, 2.1110847905511037, 2.1278971495339647, 2.144405039434787, 2.1612313930527307, 2.1777048083604313, 2.194537647301331, 2.211086838506162, 2.227910802816041, 2.2443804634385742, 2.26141503022518, 2.277682963060215, 2.294577924592886, 2.311099467857275, 2.327941864146851, 2.344381146132946, 2.3612232010927983, 2.377770002989564, 2.3946591618587263, 2.4108509774086997, 2.4278985148412175, 2.44432858080836, 2.4612481183721684, 2.4777686376473866, 2.494627417938318, 2.5109875106136315, 2.5278961255098693, 2.5444135727593675, 2.5613307210151106, 2.5777652243268676, 2.5945642712758854, 2.611122678499669, 2.6278981735231355, 2.644385583465919, 2.6612208117730916, 2.6777403070009314, 2.694582703290507, 2.711136673169676, 2.7279217254836112, 2.7443767088116147, 2.7612682570470497, 2.777769661624916, 2.7945966979605146, 2.811060897249263, 2.827940157498233, 2.8443954820977524, 2.8612453877576627, 2.8775006912183017, 2.894553348654881, 2.9108728227438405, 2.92792548018042, 2.9444033327745274, 2.9612583583802916, 2.9777631763136014, 2.994646873907186, 3.011047585227061, 3.0279370854841545, 3.044425178086385, 3.0612484597368166, 3.0777444029808976, 3.094558127282653, 3.1110496332403272, 3.1278834962286055, 3.1444006020901725, 3.161201355746016, 3.1777498642913997, 3.194571439293213, 3.2111964064533822, 3.2278753042337485, 3.2443944581318647, 3.261363147641532, 3.2777546430006623, 3.294585092633497, 3.3111288225045428, 3.3279179708333686, 3.344369882135652, 3.361246753076557, 3.3777143656625412, 3.394590553943999, 3.4109045666991733, 3.427898173511494, 3.4443661274854094, 3.461264502373524, 3.477706514997408, 3.4945932846167125, 3.5110267639392987, 3.527906706847716, 3.5441220743232407, 3.561260406393558, 3.5776986643322743, 3.5946519938879646, 3.6110414412105456, 3.6278732562204823, 3.6443756847875193, 3.6611952117527835, 3.6777444029576145, 3.6945557379513048, 3.711116875812877, 3.7278988561592996, 3.7443446234683506, 3.7612416330957785, 3.7777546430006623, 3.7945369646768086, 3.8110400759032927, 3.8279189948225394, 3.8443732954910956, 3.861238219717052, 3.8777590803219937, 3.894684079219587, 3.9111513504758477, 3.927964392118156, 3.944365444825962, 3.9612464117235504, 3.977686717698816, 3.9945779246045277, 4.0110325666028075, 4.027877010870725, 4.044343258137815, 4.061239585047588, 4.077723240363412, 4.094573487294838, 4.11078578280285, 4.127898514852859, 4.144355887488928, 4.161235147737898, 4.177552573790308, 4.19461069261888, 4.211090593191329, 4.22790295217419, 4.244402991433162, 4.261210913071409, 4.277780242962763, 4.294656089914497, 4.311082401196472, 4.327961320115719, 4.344111834361684, 4.361243339721113, 4.377733138971962, 4.394575876649469, 4.411018913262524, 4.427913874853402, 4.44435622880701, 4.461251531727612, 4.477678525727242, 4.494547887297813, 4.511029835906811, 4.527886568219401, 4.544359300809447, 4.5612453877110966, 4.577713000355288, 4.59468612720957, 4.611096737207845, 4.62786028557457, 4.64436885813484, 4.661270305048674, 4.6774778218823485, 4.694381658104248, 4.711097078514285, 4.727873938856646, 4.744341892830562, 4.761228662391659, 4.777697640354745, 4.794589529919904, 4.810834934760351, 4.827929576160386, 4.844358276808634, 4.861212278425228, 4.877695251023397, 4.8945919192628935, 4.910817185416818, 4.927908413519617, 4.944354863488115, 4.961247777042445, 4.977595923119225, 4.994602159247734, 5.0108048974652775, 5.027929917501751, 5.044301615504082, 5.061202721088193, 5.077706173702609, 5.094571097986773, 5.111003211932257, 5.1280289040878415, 5.14411661302438, 5.161173707805574, 5.1777184616657905, 5.194544474012218, 5.211089227872435, 5.227887592220213, 5.24436919944128, 5.2611788277863525, 5.277662824373692, 5.294517167320009, 5.311057483893819, 5.327967464108951, 5.344138116983231, 5.361231734394096, 5.377697299001738, 5.39457382861292, 5.411080011865124, 5.427854824229144, 5.444341892842203, 5.461245729064103, 5.477874792180955, 5.494516484672204, 5.5110779638634995, 5.527947325492278, 5.5441149063408375, 5.561169611813966, 5.577444712573197, 5.59451853268547, 5.611076598521322, 5.62793810950825, 5.64438353542937, 5.661179169139359, 5.6777071976684965, 5.694490543392021, 5.710798070766032, 5.727885885513388, 5.744154159678146, 5.761233441065997, 5.77767750172643, 5.794823684438597, 5.810824353422504, 5.827901245502289, 5.844204676919617, 5.861208523740061, 5.877692861715332, 5.894569049938582, 5.911056459881365, 5.927895784203429, 5.944367492804304, 5.961271670355927]
1	images/0591.jpg	images/0004.jpg	right	1.331	[0.0, 0.0, 0.0, 0.0, 0.0, 0.0, 0.0, 0.0, 0.0, 0.0, 0.0, 0.0, 0.0, 0.0, 0.0, 0.0, 0.0, 0.0, 0.0, 0.0, 0.0, 0.0, 0.0, 0.0, 0.0, 0.0, 0.0, 0.0, 0.0, 0.0, 0.0, 0.0, 0.0, 0.0, 0.0, 0.0, 0.0, 0.0, 0.0, 0.0, 0.0, 0.0, 0.0, 27.0, 68.0, 132.0, 199.0, 265.0, 314.0, 365.0, 395.0, 418.0, 432.0, 442.0, 450.0, 456.0, 460.0, 466.0, 475.0, 486.0, 499.0, 510.0, 517.0, 523.0, 535.0, 557.0, 588.0, 625.0, 643.0, 658.0, 666.0, 668.0, 668.0, 668.0, 668.0, 668.0, 668.0, 668.0, 668.0, 668.0]	[-490.0, -490.0, -490.0, -490.0, -490.0, -490.0, -490.0, -490.0, -490.0, -490.0, -490.0, -490.0, -490.0, -490.0, -490.0, -490.0, -490.0, -490.0, -490.0, -490.0, -490.0, -490.0, -490.0, -490.0, -490.0, -490.0, -490.0, -490.0, -490.0, -490.0, -490.0, -490.0, -490.0, -490.0, -490.0, -490.0, -490.0, -490.0, -490.0, -490.0, -490.0, -490.0, -490.0, -477.0, -450.0, -392.0, -295.0, -175.0, -64.0, 24.0, 70.0, 101.0, 122.0, 144.0, 163.0, 183.0, 195.0, 207.0, 224.0, 240.0, 253.0, 264.0, 270.0, 276.0, 281.0, 285.0, 286.0, 289.0, 293.0, 295.0, 296.0, 297.0, 297.0, 297.0, 297.0, 297.0, 297.0, 297.0, 297.0, 297.0]	[0.005108731624204665, 0.010712737508583814, 0.02657619066303596, 0.043300144374370575, 0.0598107649711892, 0.07668934256071225, 0.0928125501377508, 0.11001129809301347, 0.1264178121346049, 0.14323597378097475, 0.15970870637102053, 0.17658830794971436, 0.19286340876715258, 0.20993995951721445, 0.22638197214109823, 0.24318306712666526, 0.2597373783355579, 0.27664565190207213, 0.29305523791117594, 0.3099245995399542, 0.3263631988083944, 0.34332574432482943, 0.3594707972370088, 0.3766217586235143, 0.3930501179420389, 0.40994234883692116, 0.4263560308027081, 0.443241776432842, 0.4597759489552118, 0.47662244125967845, 0.49301359528908506, 0.5098259542719461, 0.5264089374686591, 0.543238363112323, 0.559736013005022, 0.5766101532499306, 0.5930477285874076, 0.6099071915377863, 0.6264167880872265, 0.6432718137511984, 0.6596865197061561, 0.6766098119551316, 0.6930658192140982, 0.7098477995605208, 0.7261437216657214, 0.743208325759042, 0.7597278209868819, 0.7766268785926513, 0.7928101607831195, 0.809874082216993, 0.8263986974488944, 0.8432158351060934, 0.8597360129933804, 0.8765098013682291, 0.8930494352243841, 0.9098481409018859, 0.9263614921364933, 0.94320798444096, 0.9597175810486078, 0.976708457164932, 0.9928210834623314, 1.0097508609760553, 1.0264724253793247, 1.043162587156985, 1.0597039277199656, 1.0765575880068354, 1.0930432912427932, 1.1098785195499659, 1.126355689484626, 1.14325611240929, 1.1597073410521261, 1.1765534919686615, 1.1930385126033798, 1.2098989995429292, 1.2263655881397426, 1.2432772750617005, 1.2597254316788167, 1.2766415558871813, 1.292795142158866, 1.3099727274966426]
2	images/0490.jpg	images/0154.jpg	left	1.474	[0.0, 0.0, 0.0, 0.0, 0.0, 0.0, 0.0, 0.0, 0.0, 0.0, 0.0, 0.0, 0.0, 0.0, 0.0, 0.0, 0.0, 0.0, 0.0, 0.0, 0.0, 0.0, 0.0, 0.0, 0.0, 0.0, 0.0, 0.0, 0.0, 0.0, 0.0, 0.0, 0.0, 0.0, 0.0, 0.0, 0.0, 0.0, 0.0, 0.0, 0.0, 0.0, 0.0, 0.0, 0.0, 0.0, 0.0, 0.0, 0.0, 0.0, 0.0, -1.0, -15.0, -33.0, -80.0, -145.0, -251.0, -319.0, -376.0, -408.0, -423.0, -426.0, -426.0, -420.0, -411.0, -402.0, -392.0, -384.0, -382.0, -384.0, -401.0, -424.0, -463.0, -503.0, -527.0, -538.0, -545.0, -555.0, -565.0, -579.0, -610.0, -640.0, -668.0, -686.0, -690.0, -690.0, -690.0, -690.0]	[-490.0, -490.0, -490.0, -490.0, -490.0, -490.0, -490.0, -490.0, -490.0, -490.0, -490.0, -490.0, -490.0, -490.0, -490.0, -490.0, -490.0, -490.0, -490.0, -490.0, -490.0, -490.0, -490.0, -490.0, -490.0, -490.0, -490.0, -490.0, -490.0, -490.0, -490.0, -490.0, -490.0, -490.0, -490.0, -490.0, -490.0, -490.0, -490.0, -490.0, -490.0, -490.0, -490.0, -490.0, -490.0, -490.0, -490.0, -490.0, -490.0, -490.0, -490.0, -487.0, -465.0, -429.0, -369.0, -296.0, -173.0, -83.0, -21.0, 11.0, 31.0, 40.0, 49.0, 62.0, 78.0, 92.0, 107.0, 123.0, 146.0, 166.0, 187.0, 209.0, 238.0, 263.0, 276.0, 284.0, 290.0, 298.0, 304.0, 311.0, 320.0, 328.0, 334.0, 337.0, 339.0, 339.0, 339.0, 339.0]	[0.004947622423060238, 0.00871662184363231, 0.026367294776719064, 0.043292976333759725, 0.05973259964957833, 0.07666101184440777, 0.09306923253461719, 0.10991367680253461, 0.126131433644332, 0.1431728271418251, 0.15947762387804687, 0.17654666531598195, 0.19301461923168972, 0.2100167594035156, 0.2264085960923694, 0.24329297634540126, 0.2597366956761107, 0.27676580112893134, 0.2931682190974243, 0.309971020789817, 0.32652157731354237, 0.343239045701921, 0.35944724525325, 0.37656885193428025, 0.39302110456628725, 0.40989490353967994, 0.42616727360291407, 0.4431066085235216, 0.45968105836072937, 0.47653369465842843, 0.4930310032214038, 0.5099058261839673, 0.5263468148186803, 0.5432008164352737, 0.5596779863699339, 0.5766640838701278, 0.593060357903596, 0.609871351509355, 0.6263048308319412, 0.6432250510551967, 0.6597711702925153, 0.6766282438766211, 0.6930088165681809, 0.7098846635199152, 0.726355689461343, 0.7432281230576336, 0.7596697943517938, 0.7766630598925985, 0.7929934565909207, 0.8099689728114754, 0.8263655881164595, 0.8431912590749562, 0.8596752557205036, 0.8765586119843647, 0.8930122299352661, 0.9098713515559211, 0.9263730974635109, 0.943214469763916, 0.959603917086497, 0.9764900040463544, 0.9930921018240042, 1.0098430208745413, 1.0263843614375219, 1.0431625870987773, 1.0596851543523371, 1.0764923933311366, 1.093026565911714, 1.1098071809392422, 1.1263758281129412, 1.1431540537741967, 1.1597192876506597, 1.1765497372834943, 1.1930842511937954, 1.2097890902659856, 1.226366953458637, 1.2431547364685684, 1.2596858370234258, 1.276498878665734, 1.2927770514506847, 1.3098191275494173, 1.3263485214556567, 1.3431755577912554, 1.359650679747574, 1.3765541746397503, 1.393012229935266, 1.409869303519372, 1.4264294173917733, 1.44320798444096]
3	images/0088.jpg	images/0272.jpg	left	1.017	[0.0, 0.0, 0.0, 0.0, 0.0, 0.0, -1.0, -1.0, -1.0, -1.0, -1.0, -1.0, -1.0, -1.0, -1.0, -1.0, -1.0, -1.0, -1.0, -1.0, -1.0, -1.0, -1.0, -1.0, -1.0, -1.0, -1.0, -1.0, -1.0, -1.0, -1.0, -1.0, -1.0, -1.0, -12.0, -23.0, -58.0, -104.0, -173.0, -256.0, -364.0, -472.0, -574.0, -654.0, -714.0, -751.0, -775.0, -779.0, -782.0, -783.0, -785.0, -785.0, -785.0, -785.0, -785.0, -785.0, -786.0, -786.0, -786.0, -786.0, -786.0, -786.0]	[-490.0, -490.0, -490.0, -490.0, -490.0, -490.0, -491.0, -491.0, -491.0, -491.0, -491.0, -491.0, -491.0, -491.0, -491.0, -491.0, -491.0, -491.0, -491.0, -491.0, -491.0, -491.0, -491.0, -491.0, -491.0, -491.0, -491.0, -491.0, -491.0, -491.0, -491.0, -491.0, -491.0, -491.0, -482.0, -451.0, -383.0, -312.0, -227.0, -125.0, -6.0, 93.0, 176.0, 241.0, 281.0, 311.0, 331.0, 337.0, 341.0, 346.0, 350.0, 354.0, 357.0, 361.0, 363.0, 366.0, 369.0, 370.0, 373.0, 375.0, 376.0, 376.0]	[0.006994255294557661, 0.011722059280145913, 0.015706781239714473, 0.030078950279857963, 0.04714594373945147, 0.06359239370794967, 0.08057780854869634, 0.0969191279145889, 0.11382808414055035, 0.13035645405761898, 0.14714184770127758, 0.1635988790076226, 0.18055971787543967, 0.19691469060489908, 0.2138134068227373, 0.23028750478988513, 0.2471712023834698, 0.2636244790046476, 0.28049657127121463, 0.2970044611720368, 0.3138826974318363, 0.3302905767923221, 0.34719202370615676, 0.36362720967736095, 0.3805614245356992, 0.397051906445995, 0.413827060139738, 0.43022845417726785, 0.4472333249868825, 0.4636138976784423, 0.4805016912287101, 0.49695053056348115, 0.513786441530101, 0.5302479101228528, 0.5471619863528758, 0.5636511029442772, 0.5804576592636295, 0.5969273198861629, 0.6138168201432563, 0.6300762196187861, 0.6470739224459976, 0.6634200204862282, 0.6803631100337952, 0.6969447279116139, 0.7137116895755753, 0.7302161661791615, 0.7470827971119434, 0.7635203723912127, 0.7804900859482586, 0.79665971477516, 0.8138383241603151, 0.8299915690440685, 0.8470742637873627, 0.8636377909570001, 0.8804225019994192, 0.8969252718961798, 0.9137519669020548, 0.930232550133951, 0.9470176025060937, 0.9636060469783843, 0.9804542459896766, 0.9968986479216255]
4	images/0028.jpg	images/0460.jpg	left	0.99	[0.0, 0.0, 0.0, 0.0, 0.0, 0.0, 0.0, 0.0, 0.0, 0.0, 0.0, 0.0, 0.0, 0.0, 0.0, 0.0, 0.0, 0.0, 0.0, 0.0, 0.0, 0.0, 0.0, 0.0, 0.0, 0.0, 0.0, 0.0, 0.0, -1.0, -7.0, -22.0, -52.0, -96.0, -155.0, -218.0, -284.0, -343.0, -394.0, -452.0, -484.0, -504.0, -523.0, -537.0, -546.0, -554.0, -558.0, -563.0, -568.0, -572.0, -576.0, -583.0, -587.0, -595.0, -600.0, -606.0, -608.0, -608.0, -608.0]	[-490.0, -490.0, -490.0, -490.0, -490.0, -490.0, -490.0, -490.0, -490.0, -490.0, -490.0, -490.0, -490.0, -490.0, -490.0, -490.0, -490.0, -490.0, -490.0, -490.0, -490.0, -490.0, -490.0, -490.0, -490.0, -490.0, -490.0, -489.0, -476.0, -454.0, -423.0, -359.0, -279.0, -197.0, -115.0, -43.0, 22.0, 72.0, 116.0, 166.0, 194.0, 212.0, 228.0, 243.0, 256.0, 264.0, 272.0, 278.0, 283.0, 288.0, 290.0, 294.0, 297.0, 301.0, 303.0, 305.0, 306.0, 306.0, 307.0]	[0.004253351013176143, 0.008888312382623553, 0.02524703973904252, 0.04156548983883113, 0.058782669831998646, 0.07491304539144039, 0.09199164411984384, 0.1084927074261941, 0.1252839037333615, 0.14161942043574527, 0.15869494719663635, 0.17511989321792498, 0.19198993750615045, 0.20851625938666984, 0.2253344210330397, 0.24174025235697627, 0.2586608139099553, 0.2751134078716859, 0.2919909614720382, 0.3085203553782776, 0.32539039966650307, 0.34177984698908404, 0.3586853899178095, 0.3750611839350313, 0.3920145134325139, 0.40842205146327615, 0.4254095142823644, 0.4417815536726266, 0.45868504856480286, 0.47509531723335385, 0.4919602415175177, 0.5084159074467607, 0.5254409169428982, 0.5415241885348223, 0.5586362379253842, 0.575066645280458, 0.5919773081550375, 0.6084708620910533, 0.6253521703183651, 0.6417716550058685, 0.6585232567158528, 0.6751018025679514, 0.6919626308372244, 0.7084251234773546, 0.7253187196911313, 0.7414907378843054, 0.7585864033317193, 0.7750550399068743, 0.7919025562005118, 0.80840532615548, 0.8252456744085066, 0.841711921733804, 0.8585526113747619, 0.8750673279282637, 0.8919547801488079, 0.9083824568078853, 0.9252456744434312, 0.9416969030862674, 0.9585778699838556]
5	images/0262.jpg	images/0118.jpg	right	0.901	[0.0, 0.0, 0.0, 0.0, 0.0, 0.0, 0.0, 0.0, 0.0, 0.0, 0.0, 0.0, 0.0, 0.0, 0.0, 0.0, 0.0, 0.0, 0.0, 0.0, 0.0, 0.0, 0.0, 0.0, 0.0, 0.0, 1.0, 11.0, 28.0, 46.0, 77.0, 108.0, 155.0, 214.0, 306.0, 365.0, 427.0, 489.0, 552.0, 613.0, 653.0, 687.0, 714.0, 737.0, 750.0, 758.0, 763.0, 763.0, 763.0, 761.0, 758.0, 756.0, 755.0, 755.0, 755.0]	[-490.0, -490.0, -490.0, -490.0, -490.0, -490.0, -490.0, -490.0, -490.0, -490.0, -490.0, -490.0, -490.0, -490.0, -490.0, -490.0, -490.0, -490.0, -490.0, -490.0, -490.0, -490.0, -490.0, -490.0, -487.0, -483.0, -478.0, -463.0, -440.0, -417.0, -380.0, -345.0, -297.0, -249.0, -175.0, -125.0, -75.0, -30.0, 15.0, 60.0, 94.0, 121.0, 144.0, 165.0, 182.0, 198.0, 219.0, 234.0, 249.0, 266.0, 284.0, 298.0, 305.0, 305.0, 305.0]	[0.0075909054721705616, 0.012558325252030045, 0.01682976697338745, 0.031498895783443004, 0.04842218797421083, 0.06489799258997664, 0.08173799957148731, 0.09821790014393628, 0.11514767771586776, 0.13149172777775675, 0.14833548938622698, 0.1648109526722692, 0.18171171692665666, 0.19797111640218645, 0.2149708672077395, 0.23151323175989091, 0.24841126531828195, 0.26486181130167097, 0.281724346219562, 0.2981520228786394, 0.31501114449929446, 0.33147261309204623, 0.3484208226436749, 0.3648505472810939, 0.38164891162887216, 0.3980445030028932, 0.415088968409691, 0.431320037227124, 0.4483191054314375, 0.4648198273498565, 0.4816905542393215, 0.4982028814847581, 0.5150084138149396, 0.5314838771009818, 0.5483368547284044, 0.564853960648179, 0.5816468636621721, 0.5981441722251475, 0.615020701836329, 0.6312975092441775, 0.6482621027971618, 0.6648471339722164, 0.6816154610132799, 0.6981581668951549, 0.7149578965618275, 0.7314763678004965, 0.7482812174130231, 0.7645614382345229, 0.7816168263088912, 0.7981602148502134, 0.8150104618398473, 0.8312630346044898, 0.8483798626693897, 0.8647682860610075, 0.8817519941949286]
6	images/0328.jpg	images/0358.jpg	left	1.019	[0.0, 0.0, 0.0, 0.0, 0.0, 0.0, 0.0, 0.0, 0.0, 0.0, 0.0, 0.0, 0.0, 0.0, 0.0, 0.0, 0.0, 0.0, 0.0, 0.0, 0.0, 0.0, 0.0, 0.0, 0.0, 0.0, 0.0, 0.0, 0.0, 0.0, 0.0, 0.0, 0.0, 0.0, -24.0, -92.0, -176.0, -266.0, -348.0, -416.0, -468.0, -507.0, -530.0, -543.0, -552.0, -553.0, -555.0, -557.0, -565.0, -573.0, -581.0, -587.0, -590.0, -590.0, -596.0, -602.0, -606.0, -610.0, -610.0, -610.0, -610.0]	[-490.0, -490.0, -490.0, -490.0, -490.0, -490.0, -490.0, -490.0, -490.0, -490.0, -490.0, -490.0, -490.0, -490.0, -490.0, -490.0, -490.0, -490.0, -490.0, -490.0, -490.0, -490.0, -490.0, -490.0, -490.0, -490.0, -490.0, -490.0, -490.0, -490.0, -490.0, -490.0, -490.0, -490.0, -449.0, -321.0, -177.0, -34.0, 82.0, 170.0, 230.0, 275.0, 302.0, 321.0, 338.0, 346.0, 356.0, 362.0, 372.0, 379.0, 383.0, 383.0, 383.0, 383.0, 381.0, 376.0, 372.0, 369.0, 369.0, 369.0, 369.0]	[0.004765691934153438, 0.008262990275397897, 0.026107540354132652, 0.04300352593418211, 0.05949332524323836, 0.07645587075967342, 0.09256747300969437, 0.10972662636777386, 0.12620038294699043, 0.14306223526364192, 0.1594697732361965, 0.17636985483113676, 0.19275042752269655, 0.20966416242299601, 0.2261539616738446, 0.24298372864723206, 0.2594820611993782, 0.2763691721484065, 0.2927470142021775, 0.30968259437941015, 0.32611846301006153, 0.3431018298724666, 0.3594250585883856, 0.37634425482247025, 0.39277705148560926, 0.4097641729749739, 0.4261317750206217, 0.442972123331856, 0.4596226904541254, 0.47639818547759205, 0.4927743208245374, 0.5095917998114601, 0.5260283511015587, 0.5429598353221081, 0.5592185521381907, 0.5762893002247438, 0.5925603050272912, 0.609622519754339, 0.6261160736903548, 0.6428932753624395, 0.6594103812822141, 0.6762510709231719, 0.6927398461848497, 0.7095580078312196, 0.7260484897415154, 0.7429328699945472, 0.7594455385697074, 0.7762462922255509, 0.7927463314845227, 0.8096034051268362, 0.8258269646321423, 0.8428966887295246, 0.8593943386222236, 0.8761589109781198, 0.8927408701856621, 0.9095347971888259, 0.9260583884315565, 0.9429086353629827, 0.9594250586233102, 0.9762978335493244, 0.992703664873261]
7	images/0494.jpg	images/0190.jpg	right	0.768	[0.0, 0.0, 0.0, 0.0, 0.0, 0.0, 0.0, 0.0, 0.0, 0.0, 0.0, 0.0, 0.0, 0.0, 0.0, 0.0, 0.0, 0.0, 0.0, 0.0, 0.0, 0.0, 0.0, 0.0, 3.0, 20.0, 50.0, 97.0, 170.0, 250.0, 330.0, 397.0, 460.0, 517.0, 592.0, 620.0, 636.0, 651.0, 661.0, 669.0, 671.0, 672.0, 672.0, 672.0, 672.0, 672.0]	[-490.0, -490.0, -490.0, -490.0, -490.0, -490.0, -490.0, -490.0, -490.0, -490.0, -490.0, -490.0, -490.0, -490.0, -490.0, -490.0, -490.0, -490.0, -490.0, -490.0, -490.0, -490.0, -490.0, -490.0, -481.0, -460.0, -427.0, -379.0, -318.0, -222.0, -108.0, -13.0, 65.0, 124.0, 203.0, 231.0, 249.0, 263.0, 274.0, 282.0, 286.0, 286.0, 286.0, 286.0, 286.0, 286.0]	[0.005373606050852686, 0.010528417653404176, 0.027121640858240426, 0.04385754122631624, 0.06035962846362963, 0.07721977407345548, 0.09361263475148007, 0.1104509350261651, 0.12695848365547135, 0.1438070239382796, 0.1602777085499838, 0.17715765145840123, 0.19361161073902622, 0.21051408164203167, 0.22694892628351226, 0.24383091722847894, 0.26028999651316553, 0.277137512806803, 0.2936174134374596, 0.31046049238648266, 0.32701651024399325, 0.3438363785389811, 0.3602531325304881, 0.37722694204421714, 0.39360546675743535, 0.41048677504295483, 0.42702265427215025, 0.44375002128072083, 0.46033983113011345, 0.4770378435496241, 0.4933999842614867, 0.5104458150453866, 0.527079998224508, 0.5438531038817018, 0.5602807805407792, 0.5771132781519555, 0.5936488160514273, 0.6104570790776052, 0.6268646170501597, 0.6437547999667004, 0.6603282258147374, 0.6771808621124364, 0.6936553014093079, 0.7105198843055405, 0.7269574596430175, 0.7438527625636198]
8	images/0255.jpg	images/0450.jpg	left	1.306	[0.0, 0.0, 0.0, 0.0, 0.0, 0.0, 0.0, 0.0, 0.0, 0.0, 0.0, 0.0, 0.0, 0.0, 0.0, 0.0, 0.0, 0.0, 0.0, 0.0, 0.0, 0.0, 0.0, 0.0, 0.0, 0.0, 0.0, 0.0, 2.0, 17.0, 38.0, 73.0, 130.0, 182.0, 231.0, 279.0, 346.0, 381.0, 400.0, 415.0, 427.0, 437.0, 446.0, 452.0, 462.0, 470.0, 476.0, 480.0, 484.0, 485.0, 488.0, 488.0, 489.0, 489.0, 489.0, 489.0, 489.0, 473.0, 431.0, 351.0, 176.0, 41.0, -92.0, -200.0, -316.0, -433.0, -529.0, -598.0, -650.0, -684.0, -705.0, -719.0, -725.0, -725.0, -725.0, -725.0, -725.0, -725.0]	[-490.0, -490.0, -490.0, -490.0, -490.0, -490.0, -490.0, -490.0, -490.0, -490.0, -490.0, -490.0, -490.0, -490.0, -490.0, -490.0, -490.0, -490.0, -490.0, -490.0, -490.0, -490.0, -490.0, -490.0, -490.0, -490.0, -490.0, -490.0, -484.0, -464.0, -434.0, -380.0, -274.0, -153.0, -50.0, 21.0, 91.0, 122.0, 142.0, 158.0, 173.0, 185.0, 196.0, 205.0, 218.0, 231.0, 243.0, 252.0, 262.0, 268.0, 273.0, 275.0, 277.0, 277.0, 278.0, 279.0, 282.0, 284.0, 289.0, 293.0, 293.0, 293.0, 293.0, 293.0, 293.0, 297.0, 302.0, 306.0, 313.0, 318.0, 322.0, 326.0, 327.0, 327.0, 327.0, 327.0, 327.0, 327.0]	[0.005569872562773526, 0.010578252258710563, 0.02750837116036564, 0.04430571151897311, 0.06072075880365446, 0.07764370972290635, 0.09409050102112815, 0.11100048123626038, 0.12742372055072337, 0.14427977020386606, 0.16075079614529386, 0.17766453104559332, 0.1940532957087271, 0.21090695599559695, 0.22739197663031518, 0.24427840486168861, 0.2607211001450196, 0.2776317630778067, 0.29415228229481727, 0.3110056012519635, 0.3273977792705409, 0.3443514501559548, 0.3607282681623474, 0.377584659087006, 0.3941263409797102, 0.41093221463961527, 0.42741074989316985, 0.44433404214214534, 0.46080336143495515, 0.4775549631449394, 0.49378910392988473, 0.5108847693772987, 0.5274158699321561, 0.5442958128405735, 0.5607415801496245, 0.5775699818041176, 0.5940860636765137, 0.6108868173323572, 0.6271585047943518, 0.6440985223744065, 0.6608228174154647, 0.6775184404687025, 0.6940874290303327, 0.710887500026729, 0.7273691073060036, 0.7441852209158242, 0.7607313401531428, 0.7775488191400655, 0.7940956210368313, 0.8109274359885603, 0.8274496619123966, 0.8442982021952048, 0.860710860171821, 0.8776488297153264, 0.8940454450785182, 0.9108482467127033, 0.9273605739581399, 0.9441739569301717, 0.9605937829473987, 0.9775331178097986, 0.9940652423538268, 1.0108745293691754, 1.0273957312456332, 1.0442265222663991, 1.0607579641509801, 1.0775119551690295, 1.0940860636765137, 1.1108223054325208, 1.1273489686427638, 1.1442159409052692, 1.1606552228913642, 1.1775532564497553, 1.194046810385771, 1.2109141239780001, 1.2273940246086568, 1.2442487088846974, 1.2607589881517924, 1.2777048083371483]
9	images/0112.jpg	images/0170.jpg	right	1.154	[0.0, 0.0, 0.0, 0.0, 0.0, 0.0, 0.0, 0.0, 0.0, 0.0, 0.0, 0.0, 0.0, 0.0, 0.0, 0.0, 0.0, 0.0, 0.0, 0.0, 0.0, 0.0, 0.0, 0.0, 0.0, 1.0, 11.0, 31.0, 56.0, 86.0, 119.0, 170.0, 227.0, 271.0, 308.0, 361.0, 389.0, 409.0, 421.0, 428.0, 431.0, 435.0, 437.0, 440.0, 442.0, 444.0, 446.0, 453.0, 465.0, 477.0, 491.0, 507.0, 521.0, 535.0, 548.0, 564.0, 572.0, 578.0, 580.0, 582.0, 585.0, 589.0, 592.0, 596.0, 599.0, 605.0, 611.0, 614.0, 614.0, 614.0]	[-490.0, -490.0, -490.0, -490.0, -490.0, -490.0, -490.0, -490.0, -490.0, -490.0, -490.0, -490.0, -490.0, -490.0, -490.0, -490.0, -490.0, -490.0, -490.0, -490.0, -490.0, -490.0, -490.0, -488.0, -478.0, -465.0, -442.0, -396.0, -334.0, -267.0, -196.0, -123.0, -49.0, 9.0, 55.0, 120.0, 148.0, 166.0, 179.0, 189.0, 196.0, 203.0, 209.0, 215.0, 219.0, 225.0, 230.0, 242.0, 252.0, 261.0, 269.0, 276.0, 282.0, 287.0, 292.0, 295.0, 296.0, 297.0, 299.0, 299.0, 300.0, 302.0, 303.0, 305.0, 306.0, 307.0, 309.0, 309.0, 309.0, 309.0]	[0.01016694598365575, 0.014551710220985115, 0.020465987850911915, 0.036758837930392474, 0.053515559644438326, 0.0698619990143925, 0.08680304058361799, 0.10323413053993136, 0.12020691606448963, 0.136576566088479, 0.15353194362251088, 0.17008796153822914, 0.18683478457387537, 0.20338465843815356, 0.2202267133980058, 0.23673255532048643, 0.2535141943371855, 0.27004666021093726, 0.28688530187355354, 0.3033890957594849, 0.3201925801113248, 0.33676976058632135, 0.353556519607082, 0.3700941054848954, 0.38681976590305567, 0.40341196506051347, 0.42025743337580934, 0.4365676914458163, 0.4534551437245682, 0.4700449535739608, 0.48676105664344504, 0.5033337998320349, 0.5200963241513819, 0.5366724806954153, 0.5534513890161179, 0.5697418497875333, 0.5868252272484824, 0.603300690476317, 0.6201133908471093, 0.6366479046992026, 0.6534377357456833, 0.6699446016573347, 0.6867658352712169, 0.7032754318788648, 0.720093252195511, 0.7364847474964336, 0.753500199643895, 0.7698067030869424, 0.7868119152262807, 0.8033006904879585, 0.8201430867775343, 0.8367260699742474, 0.8534462690586224, 0.8699575723148882, 0.8868184005841613, 0.903262119856663, 0.9201311401557177, 0.9364219422568567, 0.9534233997110277, 0.970029593561776, 0.9867453553015366, 1.0033744184183888, 1.0201738067553379, 1.0365775901009329, 1.0534520717337728, 1.0699480149778537, 1.0867214619647712, 1.103323218470905, 1.1201567401294596, 1.1365885127452202]
10	images/0319.jpg	images/0269.jpg	left	1.098	[0.0, 0.0, 0.0, 0.0, 0.0, 0.0, 0.0, 0.0, 0.0, 0.0, 0.0, 0.0, 0.0, 0.0, 0.0, 0.0, 0.0, 0.0, 0.0, 0.0, 0.0, 0.0, 0.0, 0.0, -9.0, -17.0, -57.0, -97.0, -155.0, -222.0, -288.0, -353.0, -404.0, -447.0, -488.0, -512.0, -524.0, -530.0, -532.0, -535.0, -539.0, -542.0, -544.0, -547.0, -550.0, -552.0, -554.0, -556.0, -556.0, -556.0, -556.0, -555.0, -555.0, -554.0, -554.0, -554.0, -554.0, -554.0, -554.0, -556.0, -560.0, -563.0, -565.0, -565.0, -565.0, -565.0, -565.0]	[-490.0, -490.0, -490.0, -490.0, -490.0, -490.0, -490.0, -490.0, -490.0, -490.0, -490.0, -490.0, -490.0, -490.0, -490.0, -490.0, -490.0, -490.0, -490.0, -490.0, -490.0, -490.0, -490.0, -490.0, -458.0, -436.0, -350.0, -281.0, -187.0, -104.0, -40.0, 15.0, 59.0, 96.0, 127.0, 148.0, 157.0, 164.0, 169.0, 179.0, 191.0, 203.0, 213.0, 225.0, 234.0, 240.0, 248.0, 255.0, 258.0, 261.0, 264.0, 266.0, 268.0, 269.0, 271.0, 272.0, 273.0, 275.0, 278.0, 284.0, 289.0, 296.0, 299.0, 299.0, 299.0, 299.0, 299.0]	[0.007142052578274161, 0.011947680497542024, 0.0157224825816229, 0.030373179411981255, 0.04737258888781071, 0.0636377910268493, 0.08079148305114359, 0.0972423703642562, 0.11413152929162607, 0.13050356862368062, 0.1473848769092001, 0.16388423350872472, 0.18092118960339576, 0.19717376242624596, 0.21405131602659822, 0.230528827290982, 0.24736371426843107, 0.2638763828435913, 0.2807351630763151, 0.29721233306918293, 0.314035956049338, 0.33053974993526936, 0.34745177818695083, 0.36391017481219023, 0.38072936044773087, 0.39723349566338584, 0.4140356146963313, 0.43062440055655316, 0.44742242351640016, 0.46389891079161316, 0.480721851112321, 0.4971754690632224, 0.5139810013934039, 0.5305008379509673, 0.5473845355445519, 0.5638825268251821, 0.580647440510802, 0.5971618157345802, 0.613991241378244, 0.6305950458627194, 0.6473613249254413, 0.6639538654126227, 0.6806805498199537, 0.6971621570992284, 0.7140031880699098, 0.7305107366410084, 0.7473285569576547, 0.7638347402098589, 0.7806491471710615, 0.7972078957245685, 0.8139629107317887, 0.8305322406231426, 0.8474207168910652, 0.8638896947959438, 0.8806593871559016, 0.8971556717297062, 0.9140038707409985, 0.9304803580162115, 0.9473152449354529, 0.9638729694997892, 0.9806713338475674, 0.9970560024958104, 1.0140352733433247, 1.0305155153037049, 1.047440855531022, 1.063583860406652, 1.0806580218486488]
11	images/0137.jpg	images/0117.jpg	left	0.935	[0.0, 0.0, 0.0, 0.0, 0.0, 0.0, 0.0, 0.0, 0.0, 0.0, 0.0, 0.0, 0.0, 0.0, 0.0, 0.0, 0.0, 0.0, 0.0, 0.0, 0.0, 0.0, 0.0, 0.0, 0.0, 0.0, -1.0, -13.0, -28.0, -55.0, -97.0, -163.0, -242.0, -313.0, -392.0, -471.0, -539.0, -589.0, -608.0, -623.0, -627.0, -628.0, -628.0, -628.0, -628.0, -628.0, -628.0, -628.0, -630.0, -635.0, -649.0, -654.0, -661.0, -663.0, -664.0, -664.0, -664.0]	[-490.0, -490.0, -490.0, -490.0, -490.0, -490.0, -490.0, -490.0, -490.0, -490.0, -490.0, -490.0, -490.0, -490.0, -490.0, -490.0, -490.0, -490.0, -490.0, -490.0, -490.0, -490.0, -490.0, -490.0, -490.0, -490.0, -489.0, -433.0, -366.0, -271.0, -169.0, -62.0, 37.0, 120.0, 193.0, 253.0, 297.0, 324.0, 336.0, 344.0, 347.0, 348.0, 348.0, 348.0, 348.0, 348.0, 348.0, 348.0, 348.0, 348.0, 341.0, 339.0, 335.0, 335.0, 334.0, 334.0, 334.0]	[0.007728804019279778, 0.012311882805079222, 0.016284316719975322, 0.03174704487901181, 0.04867682245094329, 0.06516013637883589, 0.08202232996700332, 0.09853397455299273, 0.11539548548171297, 0.13160197832621634, 0.148624598456081, 0.16498230182332918, 0.18195884203305468, 0.1984581986325793, 0.21531902690185234, 0.23182930616894737, 0.2486976437503472, 0.2651481897337362, 0.28200935933273286, 0.29846161196473986, 0.3154067494906485, 0.3318006341578439, 0.34867648110957816, 0.36513521906454116, 0.382032569963485, 0.39846434263745323, 0.41530912823509425, 0.4318197488319129, 0.44866726512555033, 0.4651393150561489, 0.4819427993497811, 0.4984998412546702, 0.5152333523146808, 0.5317142769345082, 0.5485266359173693, 0.5651181524153799, 0.5819288047496229, 0.5984046093071811, 0.6152104829670861, 0.631775034184102, 0.6485740811913274, 0.6648433792870492, 0.6819646446965635, 0.6981936655356549, 0.7151818110141903, 0.7315183517639525, 0.7485167372506112, 0.7651140564121306, 0.7819926340016536, 0.7984250893350691, 0.8152480295975693, 0.8317760581849143, 0.8485826145042665, 0.8651068884064443, 0.8819233434041962, 0.89841553196311, 0.9152930855634622]
12	images/0077.jpg	images/0368.jpg	left	0.852	[0.0, 0.0, 0.0, 0.0, 0.0, 0.0, 0.0, 0.0, 0.0, 0.0, 0.0, 0.0, 0.0, 0.0, 0.0, 0.0, 0.0, 0.0, 0.0, 0.0, 0.0, 0.0, 0.0, 0.0, 0.0, 0.0, -11.0, -42.0, -86.0, -134.0, -186.0, -255.0, -324.0, -396.0, -459.0, -517.0, -597.0, -637.0, -668.0, -685.0, -696.0, -702.0, -706.0, -709.0, -709.0, -709.0, -709.0, -709.0, -709.0, -709.0, -709.0, -709.0]	[-490.0, -490.0, -490.0, -490.0, -490.0, -490.0, -490.0, -490.0, -490.0, -490.0, -490.0, -490.0, -490.0, -490.0, -490.0, -490.0, -490.0, -490.0, -490.0, -490.0, -490.0, -490.0, -490.0, -490.0, -490.0, -490.0, -461.0, -410.0, -343.0, -275.0, -194.0, -111.0, -33.0, 46.0, 107.0, 159.0, 220.0, 251.0, 273.0, 286.0, 296.0, 304.0, 309.0, 313.0, 315.0, 315.0, 315.0, 315.0, 315.0, 315.0, 315.0, 315.0]	[0.007886158593464643, 0.01254057593178004, 0.016989169467706233, 0.03192385542206466, 0.04889732360607013, 0.0654618747648783, 0.08241213229484856, 0.09874799038516358, 0.11571326659759507, 0.1320498072891496, 0.1489416969125159, 0.1654069201904349, 0.18225853244075552, 0.1987418463686481, 0.21567503729602322, 0.23205868195509538, 0.24900893948506564, 0.26540999219287187, 0.2822742337593809, 0.2987855370156467, 0.31568595994031057, 0.33209247392369434, 0.3489556915592402, 0.365467336087022, 0.38230734306853265, 0.3988220596802421, 0.4156306639779359, 0.4320969112450257, 0.44895091286161914, 0.46548235474620014, 0.48230119911022484, 0.4987077130936086, 0.5155323600629345, 0.5320207939948887, 0.5488666036399081, 0.5653990695136599, 0.5822110871667974, 0.5987237557419576, 0.615492082783021, 0.6320614126161672, 0.6489420382422395, 0.6654192081768997, 0.6821691031800583, 0.6986817717552185, 0.7155446480610408, 0.732028303318657, 0.7489178035757504, 0.7653942908509634, 0.7822168898419477, 0.7987063477630727, 0.815661383967381, 0.8320661913021468]
13	images/0546.jpg	images/0489.jpg	right	1.034	[0.0, 0.0, 0.0, 0.0, 0.0, 0.0, 0.0, 0.0, 0.0, 0.0, 0.0, 0.0, 0.0, 0.0, 0.0, 0.0, 0.0, 0.0, 0.0, 0.0, 0.0, 0.0, 0.0, 0.0, 0.0, 0.0, 0.0, 0.0, 0.0, 0.0, 0.0, -6.0, -23.0, -42.0, -53.0, -56.0, -57.0, -60.0, -60.0, -60.0, -43.0, -21.0, 8.0, 47.0, 94.0, 155.0, 252.0, 324.0, 413.0, 504.0, 578.0, 641.0, 686.0, 715.0, 729.0, 738.0, 743.0, 747.0, 747.0, 748.0, 748.0, 748.0]	[-490.0, -490.0, -490.0, -490.0, -490.0, -490.0, -490.0, -490.0, -490.0, -490.0, -490.0, -490.0, -490.0, -490.0, -490.0, -490.0, -490.0, -490.0, -490.0, -490.0, -490.0, -490.0, -490.0, -490.0, -490.0, -490.0, -490.0, -490.0, -490.0, -490.0, -490.0, -476.0, -449.0, -425.0, -409.0, -402.0, -395.0, -376.0, -330.0, -305.0, -248.0, -194.0, -148.0, -100.0, -55.0, -8.0, 53.0, 91.0, 130.0, 169.0, 206.0, 241.0, 274.0, 303.0, 319.0, 329.0, 335.0, 340.0, 341.0, 341.0, 341.0, 341.0]	[0.004695035982877016, 0.01015192735940218, 0.025645034154877067, 0.0425676436861977, 0.05900078167906031, 0.07586434058612213, 0.09240363317076117, 0.10929313342785463, 0.12566005275584757, 0.14261952630477026, 0.1590270643355325, 0.17596742318710312, 0.19256747304461896, 0.20932453603018075, 0.22570510872174054, 0.24257310503162444, 0.2588103178422898, 0.2758609273005277, 0.2923490199027583, 0.3092620720854029, 0.3257146660471335, 0.34254409169079736, 0.359036962967366, 0.375904276559595, 0.3923196652322076, 0.4092388614662923, 0.4257139834226109, 0.4425601343391463, 0.45894241373753175, 0.475900863239076, 0.4924746304168366, 0.5090999389067292, 0.5256948687601835, 0.5425239530741237, 0.5590274056303315, 0.5758510286104865, 0.592440155800432, 0.6154852561303414, 0.6255760848289356, 0.6425731049966998, 0.6589895176584832, 0.6758872099453583, 0.6923705238732509, 0.7092968880897388, 0.725496212951839, 0.7425918783410452, 0.7590175069635734, 0.7758711672504432, 0.7923824705067091, 0.8092176988138817, 0.8256757541093975, 0.8424915264477022, 0.8589973683119752, 0.875816895335447, 0.892334001197014, 0.9091757148271427, 0.9257429967401549, 0.9424881130689755, 0.9590089736739174, 0.9759117859066464, 0.9923421932035126, 1.0091835655039176]
14	images/0079.jpg	images/0216.jpg	left	1.163	[0.0, 0.0, 0.0, 0.0, 0.0, 0.0, 0.0, 0.0, 0.0, 0.0, 0.0, 0.0, 0.0, 0.0, 0.0, 0.0, 0.0, 0.0, 0.0, 0.0, 0.0, 0.0, 0.0, 0.0, 0.0, 0.0, 0.0, 0.0, -1.0, 1.0, 7.0, 22.0, 59.0, 91.0, 127.0, 168.0, 210.0, 248.0, 282.0, 325.0, 369.0, 412.0, 441.0, 458.0, 472.0, 473.0, 474.0, 474.0, 474.0, 460.0, 430.0, 383.0, 331.0, 276.0, 222.0, 154.0, 25.0, -71.0, -172.0, -280.0, -394.0, -505.0, -592.0, -674.0, -734.0, -767.0, -778.0, -779.0, -779.0, -779.0]	[-490.0, -490.0, -490.0, -490.0, -490.0, -490.0, -490.0, -490.0, -490.0, -490.0, -490.0, -490.0, -490.0, -490.0, -490.0, -490.0, -490.0, -490.0, -490.0, -490.0, -490.0, -490.0, -490.0, -490.0, -490.0, -490.0, -490.0, -490.0, -482.0, -466.0, -444.0, -416.0, -329.0, -256.0, -189.0, -127.0, -69.0, -19.0, 15.0, 49.0, 81.0, 109.0, 129.0, 141.0, 156.0, 158.0, 158.0, 158.0, 159.0, 164.0, 169.0, 178.0, 185.0, 193.0, 201.0, 209.0, 228.0, 245.0, 264.0, 280.0, 296.0, 314.0, 325.0, 338.0, 348.0, 352.0, 354.0, 354.0, 354.0, 354.0]	[0.0056965071125887334, 0.010465612402185798, 0.027818301576189697, 0.04453542863484472, 0.06102317990735173, 0.077887762861792, 0.09434138081269339, 0.11125170235754922, 0.1276442217058502, 0.1446938071749173, 0.16083647072082385, 0.17788264283444732, 0.1941123463329859, 0.2112035744357854, 0.22755206178408116, 0.24456444196403027, 0.26097027328796685, 0.2778881042031571, 0.2942953008459881, 0.31130529165966436, 0.3276292030932382, 0.34462212724611163, 0.361027275910601, 0.37796183209866285, 0.39432499679969624, 0.4112561396905221, 0.4276851816684939, 0.44450129533652216, 0.4612327584181912, 0.4778764988295734, 0.4943768794182688, 0.5112605770118535, 0.527419283229392, 0.5444862766889855, 0.5608091640751809, 0.5779113148455508, 0.5943775621126406, 0.6112005024333484, 0.6276834750315174, 0.6444832046981901, 0.6611112438258715, 0.6778225682210177, 0.6943905327352695, 0.7112131317262538, 0.7276728936703876, 0.7445064153289422, 0.7610115745919757, 0.7779017575085163, 0.7943369434797205, 0.8111318944720551, 0.8277060029795393, 0.8445081220124848, 0.8609798306133598, 0.8778396348934621, 0.8943540101172403, 0.9111598837771453, 0.9276838163495995, 0.9444842286757194, 0.9608415907132439, 0.9778983441647142, 0.994322607468348, 1.0111660278053023, 1.02768722968176, 1.0444944686605595, 1.0609962145681493, 1.0777853629551828, 1.0943990661180578, 1.1112390730413608, 1.127422355231829, 1.14458662859397]
15	images/0396.jpg	images/0506.jpg	right	0.887	[0.0, 0.0, 0.0, 0.0, 0.0, 0.0, 0.0, 0.0, 0.0, 0.0, 0.0, 0.0, 0.0, 0.0, 0.0, 0.0, 0.0, 0.0, 0.0, 0.0, 0.0, 0.0, 0.0, 0.0, 0.0, 0.0, 0.0, 0.0, 0.0, 0.0, 0.0, 0.0, 0.0, 21.0, 81.0, 187.0, 225.0, 338.0, 410.0, 476.0, 522.0, 575.0, 616.0, 651.0, 670.0, 678.0, 681.0, 684.0, 687.0, 688.0, 689.0, 689.0, 689.0, 689.0]	[-490.0, -490.0, -490.0, -490.0, -490.0, -490.0, -490.0, -490.0, -490.0, -490.0, -490.0, -490.0, -490.0, -490.0, -490.0, -490.0, -490.0, -490.0, -490.0, -490.0, -490.0, -490.0, -490.0, -490.0, -490.0, -490.0, -490.0, -490.0, -490.0, -490.0, -490.0, -490.0, -490.0, -474.0, -432.0, -338.0, -294.0, -152.0, -61.0, 17.0, 66.0, 119.0, 155.0, 188.0, 210.0, 221.0, 226.0, 233.0, 240.0, 247.0, 249.0, 249.0, 249.0, 249.0]	[0.007651662803255022, 0.012114592362195253, 0.016278172784950584, 0.03233482042560354, 0.048653270467184484, 0.06562469067284837, 0.08204554067924619, 0.09898589953081682, 0.11532892560353503, 0.13238875102251768, 0.1487130037858151, 0.16555335209704936, 0.1818107035360299, 0.19893640623195097, 0.21535828022751957, 0.23227918311022222, 0.24868706247070804, 0.2655390161089599, 0.2820871833246201, 0.29884834232507274, 0.31532824295572937, 0.3322078445344232, 0.3487351904041134, 0.3654748454573564, 0.38200492202304304, 0.3988862303085625, 0.41533745895139873, 0.4322337858611718, 0.44868876913096756, 0.4655274107353762, 0.482045199314598, 0.49887257697992027, 0.5152924029389396, 0.5322587031405419, 0.5486454198253341, 0.5655018108082004, 0.5822650177869946, 0.5988452703459188, 0.6151258324389346, 0.6321928258985281, 0.6487549877492711, 0.6655530107673258, 0.6821394072612748, 0.6988114783889614, 0.7153197096195072, 0.7321825858671218, 0.7486795531585813, 0.7654758694698103, 0.7820011673611589, 0.7988322996534407, 0.8153292669449002, 0.832221839169506, 0.8485873932368122, 0.8655762213747948]
16	images/0101.jpg	images/0029.jpg	left	1.002	[0.0, 0.0, 0.0, 0.0, 0.0, 0.0, 0.0, 0.0, 0.0, 0.0, 0.0, 0.0, 0.0, 0.0, 0.0, 0.0, 0.0, 0.0, 0.0, 0.0, 0.0, 0.0, 0.0, 0.0, 0.0, 0.0, 0.0, 0.0, 0.0, 0.0, 0.0, 0.0, 0.0, 0.0, 0.0, 0.0, 0.0, 0.0, -1.0, -26.0, -73.0, -135.0, -206.0, -287.0, -372.0, -455.0, -539.0, -605.0, -703.0, -751.0, -780.0, -794.0, -804.0, -812.0, -818.0, -820.0, -820.0, -820.0, -820.0, -820.0, -820.0]	[-490.0, -490.0, -490.0, -490.0, -490.0, -490.0, -490.0, -490.0, -490.0, -490.0, -490.0, -490.0, -490.0, -490.0, -490.0, -490.0, -490.0, -490.0, -490.0, -490.0, -490.0, -490.0, -490.0, -490.0, -490.0, -490.0, -490.0, -490.0, -490.0, -490.0, -490.0, -490.0, -490.0, -490.0, -490.0, -490.0, -490.0, -490.0, -475.0, -426.0, -341.0, -246.0, -151.0, -59.0, 21.0, 95.0, 154.0, 199.0, 268.0, 295.0, 311.0, 321.0, 331.0, 344.0, 353.0, 362.0, 365.0, 365.0, 365.0, 365.0, 365.0]	[0.007507620262913406, 0.011725131364073604, 0.01552621612790972, 0.03175796760478988, 0.048223532212432474, 0.06508811516687274, 0.08165198366623372, 0.0984667320153676, 0.11486744333524257, 0.13202625536359847, 0.14824571885401383, 0.1650621738517657, 0.1816355996998027, 0.19839778274763376, 0.21479849406750873, 0.2317774235852994, 0.2482190948794596, 0.26508948049740866, 0.28150009049568325, 0.2984370360500179, 0.31487700063735247, 0.3318528581876308, 0.3479432977619581, 0.3650300885201432, 0.38147210114402696, 0.39840699872002006, 0.41481863270746544, 0.4317289542523213, 0.4482368442113511, 0.46506353915901855, 0.4815123784937896, 0.4984674146398902, 0.5148135127383284, 0.5317791302222759, 0.5481897402205504, 0.5651075711357407, 0.5814929225016385, 0.598374572058674, 0.6148292140569538, 0.6317548956139944, 0.6480904123163782, 0.6651809577597305, 0.6816342343809083, 0.6983066467801109, 0.7145967662218027, 0.7316763889975846, 0.7481764282565564, 0.7650225792312995, 0.7814772211713716, 0.798334636085201, 0.8148401366779581, 0.8317525062593631, 0.8481812069076113, 0.8651597950956784, 0.8814707358251326, 0.8983076707809232, 0.9148261420195922, 0.9316743409726769, 0.9482873614761047, 0.964988787251059, 0.9815263731288724]
17	images/0516.jpg	images/0250.jpg	left	0.95	[0.0, 0.0, 0.0, 0.0, 0.0, 0.0, 0.0, 0.0, 0.0, 0.0, 0.0, 0.0, 0.0, 0.0, 0.0, 0.0, 0.0, 0.0, 0.0, 0.0, 0.0, 0.0, 0.0, 0.0, 5.0, 16.0, 44.0, 91.0, 150.0, 200.0, 247.0, 300.0, 342.0, 368.0, 382.0, 390.0, 393.0, 393.0, 381.0, 340.0, 262.0, 169.0, 66.0, -51.0, -167.0, -286.0, -397.0, -498.0, -632.0, -688.0, -717.0, -725.0, -725.0, -725.0, -725.0, -725.0, -725.0]	[-490.0, -490.0, -490.0, -490.0, -490.0, -490.0, -490.0, -490.0, -490.0, -490.0, -490.0, -490.0, -490.0, -490.0, -490.0, -490.0, -490.0, -490.0, -490.0, -490.0, -490.0, -490.0, -490.0, -490.0, -457.0, -404.0, -322.0, -235.0, -145.0, -67.0, 5.0, 63.0, 111.0, 141.0, 161.0, 172.0, 178.0, 181.0, 193.0, 215.0, 244.0, 282.0, 309.0, 329.0, 343.0, 362.0, 379.0, 397.0, 425.0, 438.0, 444.0, 444.0, 444.0, 444.0, 444.0, 444.0, 444.0]	[0.006128976063337177, 0.010821964067872614, 0.028559676895383745, 0.04542050522286445, 0.06183623516699299, 0.0787335861241445, 0.09500356687931344, 0.11211595759959891, 0.12844635435612872, 0.14536657457938418, 0.16182599519379437, 0.17870662081986666, 0.19517969473963603, 0.21203028300078586, 0.2284668343490921, 0.24536623322637752, 0.26178435259498656, 0.2786895541357808, 0.295190958713647, 0.31206202699104324, 0.32848799700150266, 0.3454334758571349, 0.3618266778648831, 0.3786779488436878, 0.3952025640755892, 0.4119681604206562, 0.4285794742172584, 0.44531639863271266, 0.4615979847148992, 0.4787148127797991, 0.49517628143075854, 0.5118742938502692, 0.528387303755153, 0.545300014608074, 0.5617659206036478, 0.5785567755810916, 0.5949305216199718, 0.6119504111120477, 0.6284664929844439, 0.6452860199497081, 0.6617457819520496, 0.6787134474725462, 0.6952285053557716, 0.7119121818104759, 0.7283985677058809, 0.7452959186630324, 0.7619007471366785, 0.7786059275385924, 0.7950161962071434, 0.8119002351304516, 0.8284323596744798, 0.8453017213032581, 0.8618130245595239, 0.8786349408328533, 0.8951121107675135, 0.9119258351274766, 0.9282449678285047]
18	images/0420.jpg	images/0110.jpg	left	0.885	[0.0, 0.0, 0.0, 0.0, 0.0, 0.0, 0.0, 0.0, 0.0, 0.0, 0.0, 0.0, 0.0, 0.0, 0.0, 0.0, 0.0, 0.0, 0.0, 0.0, 0.0, 0.0, 0.0, 0.0, 0.0, 0.0, 0.0, 0.0, 0.0, 0.0, 0.0, 0.0, 0.0, 0.0, 0.0, 0.0, 0.0, -1.0, -32.0, -74.0, -144.0, -238.0, -351.0, -480.0, -602.0, -705.0, -767.0, -794.0, -802.0, -805.0, -806.0, -806.0, -806.0, -806.0]	[-490.0, -490.0, -490.0, -490.0, -490.0, -490.0, -490.0, -490.0, -490.0, -490.0, -490.0, -490.0, -490.0, -490.0, -490.0, -490.0, -490.0, -490.0, -490.0, -490.0, -490.0, -490.0, -490.0, -490.0, -490.0, -490.0, -490.0, -490.0, -490.0, -490.0, -490.0, -490.0, -490.0, -490.0, -490.0, -490.0, -490.0, -490.0, -451.0, -382.0, -276.0, -159.0, -42.0, 67.0, 155.0, 227.0, 266.0, 282.0, 287.0, 293.0, 295.0, 295.0, 295.0, 295.0]	[0.006017360195983201, 0.010800801450386643, 0.014595400833059102, 0.02844089304562658, 0.045120473485440016, 0.06169389933347702, 0.07856394362170249, 0.09495851094834507, 0.1118749764864333, 0.1283019704860635, 0.1452126334188506, 0.16161368606844917, 0.17848304769722745, 0.19497387093724683, 0.2118620058754459, 0.22806235472671688, 0.24516314011998475, 0.26155053946422413, 0.27851479162927717, 0.29497318825451657, 0.31188350985758007, 0.32828831719234586, 0.3451788414386101, 0.36162324337055907, 0.3785253729438409, 0.3948622550233267, 0.4117906672763638, 0.42830879712710157, 0.44518942275317386, 0.46161368605680764, 0.4785612129489891, 0.4949936682241969, 0.5118787311948836, 0.5283186958404258, 0.545222190732602, 0.561603446083609, 0.5784035170800053, 0.5949615829158574, 0.6118043205933645, 0.6282886585104279, 0.6451563134323806, 0.6617676272871904, 0.6785789622808807, 0.6948107137577608, 0.7117609712877311, 0.7281316453008913, 0.7450976041727699, 0.7616304113762453, 0.7784577890415676, 0.794935641635675, 0.81181251257658, 0.8282756878761575, 0.8451846441021189, 0.8613764595938846]
19	images/0095.jpg	images/0210.jpg	left	0.638	[0.0, 0.0, 0.0, 0.0, 0.0, 0.0, 0.0, 0.0, 0.0, 0.0, 0.0, 0.0, 0.0, 0.0, 0.0, 0.0, 0.0, 0.0, 0.0, 0.0, 0.0, -16.0, -64.0, -125.0, -191.0, -251.0, -316.0, -374.0, -440.0, -503.0, -562.0, -638.0, -662.0, -675.0, -681.0, -681.0, -681.0, -681.0, -681.0]	[-490.0, -490.0, -490.0, -490.0, -490.0, -490.0, -490.0, -490.0, -490.0, -490.0, -490.0, -490.0, -490.0, -490.0, -490.0, -490.0, -490.0, -490.0, -490.0, -490.0, -490.0, -454.0, -357.0, -237.0, -117.0, -3.0, 94.0, 176.0, 254.0, 313.0, 363.0, 413.0, 428.0, 436.0, 440.0, 440.0, 440.0, 440.0, 440.0]	[0.007936675916425884, 0.01297953026369214, 0.01743870513746515, 0.032264505804050714, 0.0492058887029998, 0.06554345338372514, 0.08262751350412145, 0.09899648086866364, 0.11573067458812147, 0.13197573804063722, 0.14890858758008108, 0.16543456818908453, 0.1824862016364932, 0.1989149022847414, 0.21574808255536482, 0.2322017005062662, 0.2490990514634177, 0.2655792933655903, 0.2824408042943105, 0.2988875955925323, 0.31567367195384577, 0.332291129801888, 0.3490775474347174, 0.36567213595844805, 0.3825363775831647, 0.3988224010099657, 0.4156494372873567, 0.4320955459261313, 0.44904682750348, 0.46551648806780577, 0.48234250041423365, 0.49884424632182345, 0.5157337465789169, 0.5321781485690735, 0.5490553607814945, 0.5655465254094452, 0.5824489963124506, 0.5989585928618908, 0.6156961999367923]
20	images/0375.jpg	images/0053.jpg	left	0.753	[0.0, 0.0, 0.0, 0.0, 0.0, 0.0, 0.0, 0.0, 0.0, 0.0, 0.0, 0.0, 0.0, 0.0, 0.0, 0.0, 0.0, 0.0, 0.0, 0.0, 0.0, 0.0, 0.0, 0.0, 0.0, 0.0, 0.0, 0.0, -8.0, -69.0, -157.0, -258.0, -368.0, -528.0, -606.0, -659.0, -685.0, -696.0, -699.0, -699.0, -700.0, -702.0, -702.0, -702.0, -703.0, -705.0]	[-490.0, -490.0, -490.0, -490.0, -490.0, -490.0, -490.0, -490.0, -490.0, -490.0, -490.0, -490.0, -490.0, -490.0, -490.0, -490.0, -490.0, -490.0, -490.0, -490.0, -490.0, -490.0, -490.0, -490.0, -490.0, -490.0, -490.0, -490.0, -467.0, -365.0, -243.0, -120.0, 9.0, 150.0, 204.0, 232.0, 249.0, 255.0, 257.0, 258.0, 259.0, 259.0, 259.0, 260.0, 265.0, 266.0]	[0.006650191615335643, 0.011462987517006695, 0.015502322698011994, 0.02965160133317113, 0.046452354989014566, 0.06288378627505153, 0.07978898787405342, 0.09623612050199881, 0.11316282604821026, 0.12965979328146204, 0.14660083485068753, 0.1629244048963301, 0.1798040065332316, 0.19628834445029497, 0.21309285279130563, 0.22968402795959264, 0.24653564026812091, 0.26293805823661387, 0.27980229986133054, 0.2962944884202443, 0.3131024101166986, 0.3296563799958676, 0.3464970695786178, 0.36290153558366, 0.37984530779067427, 0.39610948594054207, 0.41318501270143315, 0.429707579954993, 0.4464090056717396, 0.4629308902658522, 0.47976372920675203, 0.49622451519826427, 0.5130477967904881, 0.5296034733764827, 0.5464462109957822, 0.5628923196345568, 0.579795814526733, 0.5960142540279776, 0.6131331300712191, 0.6296109826653264, 0.6463953523780219, 0.6626786451088265, 0.6796039853361435, 0.696378797700163, 0.713095924758818, 0.7293857028707862]
21	images/0429.jpg	images/0229.jpg	right	1.183	[0.0, 0.0, 0.0, 0.0, 0.0, 0.0, 0.0, 0.0, 0.0, 0.0, 0.0, 0.0, 0.0, 0.0, 0.0, 0.0, 0.0, 0.0, 0.0, 0.0, 0.0, 0.0, 0.0, 0.0, 0.0, 0.0, 0.0, 0.0, -41.0, -90.0, -149.0, -217.0, -292.0, -361.0, -421.0, -479.0, -533.0, -585.0, -622.0, -646.0, -649.0, -650.0, -650.0, -650.0, -650.0, -650.0, -650.0, -650.0, -650.0, -650.0, -650.0, -650.0, -645.0, -624.0, -587.0, -514.0, -415.0, -277.0, -136.0, 19.0, 189.0, 329.0, 453.0, 559.0, 668.0, 703.0, 717.0, 718.0, 718.0, 718.0, 718.0]	[-490.0, -490.0, -490.0, -490.0, -490.0, -490.0, -490.0, -490.0, -490.0, -490.0, -490.0, -490.0, -490.0, -490.0, -490.0, -490.0, -490.0, -490.0, -490.0, -490.0, -490.0, -490.0, -490.0, -490.0, -490.0, -490.0, -490.0, -481.0, -391.0, -303.0, -202.0, -91.0, 17.0, 115.0, 192.0, 259.0, 319.0, 367.0, 397.0, 412.0, 413.0, 413.0, 413.0, 413.0, 413.0, 413.0, 413.0, 413.0, 413.0, 413.0, 413.0, 413.0, 412.0, 402.0, 390.0, 369.0, 347.0, 329.0, 322.0, 318.0, 318.0, 318.0, 318.0, 318.0, 318.0, 318.0, 318.0, 319.0, 319.0, 319.0, 319.0]	[0.004671142669394612, 0.009432397258933634, 0.02597954048542306, 0.04264956357656047, 0.059415842639282346, 0.07594762585358694, 0.09284019813640043, 0.1091740081901662, 0.12601162580540404, 0.14230549987405539, 0.15934928267961368, 0.17587116727372631, 0.19278626749292016, 0.20904669095762074, 0.225983977841679, 0.24258744099643081, 0.2594148186035454, 0.2758442019694485, 0.2928224487695843, 0.3091658161720261, 0.3260768204345368, 0.3423109612194821, 0.3592093361658044, 0.3757482873625122, 0.3927139049046673, 0.40921360277570784, 0.4259703244897537, 0.4425232703797519, 0.4594045786652714, 0.47584829793777317, 0.49276578752323985, 0.5093634480144829, 0.5261119776987471, 0.5422908226028085, 0.5593004720867611, 0.5758264526375569, 0.592688987555448, 0.6091286108712666, 0.6259850017959252, 0.642635227588471, 0.6593393840012141, 0.6758192846318707, 0.692712880903855, 0.7091869788127951, 0.7260512204375118, 0.7425116650410928, 0.7593834159779362, 0.7758226979640312, 0.7927094675251283, 0.8090190429938957, 0.8259460898698308, 0.8422884332248941, 0.8593025200534612, 0.8759199779015034, 0.8927548648207448, 0.9092603654135019, 0.9261310923611745, 0.9426307902904227, 0.9593523546936922, 0.9758377165999264, 0.9926671422435902, 1.0091719601769, 1.025989097834099, 1.0425048383767717, 1.059340408013668, 1.0758534179185517, 1.0926971795852296, 1.1091729841427878, 1.1260170871391892, 1.1425341930589639, 1.1594117466593161]
22	images/0586.jpg	images/0168.jpg	right	1.236	[0.0, 0.0, 0.0, 0.0, 0.0, 0.0, 0.0, 0.0, 0.0, 0.0, 0.0, 0.0, 0.0, 0.0, 0.0, 0.0, 0.0, 0.0, 0.0, 0.0, 0.0, 0.0, 0.0, 0.0, 0.0, 0.0, 0.0, 0.0, 0.0, 0.0, 0.0, 0.0, 0.0, 0.0, 0.0, 0.0, 0.0, 0.0, 0.0, 0.0, 0.0, 0.0, 0.0, 0.0, 0.0, 0.0, 0.0, 0.0, 0.0, 0.0, 0.0, 0.0, 0.0, 0.0, 11.0, 57.0, 119.0, 192.0, 271.0, 343.0, 405.0, 488.0, 529.0, 561.0, 580.0, 593.0, 602.0, 605.0, 607.0, 609.0, 613.0, 617.0, 618.0, 619.0, 619.0]	[-490.0, -490.0, -490.0, -490.0, -490.0, -490.0, -490.0, -490.0, -490.0, -490.0, -490.0, -490.0, -490.0, -490.0, -490.0, -490.0, -490.0, -490.0, -490.0, -490.0, -490.0, -490.0, -490.0, -490.0, -490.0, -490.0, -490.0, -490.0, -490.0, -490.0, -490.0, -490.0, -490.0, -490.0, -490.0, -490.0, -490.0, -490.0, -490.0, -490.0, -490.0, -490.0, -490.0, -490.0, -490.0, -490.0, -490.0, -490.0, -490.0, -490.0, -490.0, -490.0, -490.0, -490.0, -466.0, -393.0, -291.0, -173.0, -3.0, 148.0, 258.0, 359.0, 396.0, 417.0, 427.0, 436.0, 439.0, 440.0, 441.0, 442.0, 444.0, 446.0, 446.0, 446.0, 446.0]	[0.009359351999592036, 0.01410012663109228, 0.019410927430726588, 0.03504193277331069, 0.052002771582920104, 0.06832634168677032, 0.08532472717342898, 0.10155613732058555, 0.118597530759871, 0.1347835436463356, 0.1518942277180031, 0.16836730163777247, 0.1852223272435367, 0.20177117711864412, 0.21858148812316358, 0.23503476474434137, 0.2519252889906056, 0.26843181357253343, 0.2852523645851761, 0.3017404571874067, 0.31867501337546855, 0.33505353808868676, 0.351987752947025, 0.368239643110428, 0.3852192552876659, 0.40174284647218883, 0.4186862773494795, 0.4350043861195445, 0.452035880938638, 0.4681157391751185, 0.4850670207524672, 0.501786878448911, 0.5186221067560837, 0.5348699009045959, 0.5517556464765221, 0.5683870989596471, 0.585234273923561, 0.6017148571554571, 0.6186439520679414, 0.6350091647473164, 0.6519194863503799, 0.6684550242498517, 0.6852428072597831, 0.7017206598538905, 0.71865214407444, 0.735020428779535, 0.7519727342878468, 0.7684396642725915, 0.7852329085581005, 0.8017104198806919, 0.8185917281080037, 0.8350395433953963, 0.8519543022848666, 0.8685028108302504, 0.8853028818848543, 0.901452713413164, 0.9185705654672347, 0.9350142847979441, 0.9518559983698651, 0.9684854028746486, 0.985176247311756, 1.0016735558747314, 1.0185012748697773, 1.0349996074219234, 1.0518983236979693, 1.0682601230801083, 1.0852991272113286, 1.1014540787437, 1.1184200376155786, 1.1348060716409236, 1.151855657051783, 1.1683505763066933, 1.1851960446219891, 1.2016455665579997, 1.218585925467778]
23	images/0148.jpg	images/0075.jpg	right	1.802	[0.0, 0.0, 0.0, 0.0, 0.0, 0.0, 0.0, 0.0, 0.0, 0.0, 0.0, 0.0, 0.0, 0.0, 0.0, 0.0, 0.0, 0.0, 0.0, 0.0, 0.0, 0.0, 0.0, 0.0, 0.0, 0.0, 0.0, 0.0, 0.0, 0.0, 0.0, 0.0, 0.0, 0.0, 0.0, 0.0, 0.0, 0.0, 0.0, 0.0, 0.0, 0.0, 0.0, 0.0, 0.0, 0.0, 0.0, 0.0, 0.0, 0.0, 0.0, 0.0, 0.0, 0.0, 0.0, 0.0, 0.0, 0.0, 0.0, 0.0, 0.0, 0.0, 0.0, 24.0, 73.0, 132.0, 201.0, 291.0, 387.0, 507.0, 549.0, 569.0, 578.0, 579.0, 579.0, 579.0, 579.0, 579.0, 579.0, 579.0, 579.0, 579.0, 579.0, 579.0, 579.0, 579.0, 579.0, 579.0, 579.0, 579.0, 579.0, 579.0, 579.0, 579.0, 579.0, 579.0, 579.0, 579.0, 579.0, 579.0, 579.0, 579.0, 579.0, 583.0, 589.0, 592.0, 593.0, 593.0, 593.0]	[-490.0, -490.0, -490.0, -490.0, -490.0, -490.0, -490.0, -490.0, -490.0, -490.0, -490.0, -490.0, -490.0, -490.0, -490.0, -490.0, -490.0, -490.0, -490.0, -490.0, -490.0, -490.0, -490.0, -490.0, -490.0, -490.0, -490.0, -490.0, -490.0, -490.0, -490.0, -490.0, -490.0, -490.0, -490.0, -490.0, -490.0, -490.0, -490.0, -490.0, -490.0, -490.0, -490.0, -490.0, -490.0, -490.0, -490.0, -490.0, -490.0, -490.0, -490.0, -490.0, -490.0, -490.0, -490.0, -490.0, -490.0, -490.0, -490.0, -490.0, -490.0, -490.0, -485.0, -467.0, -424.0, -359.0, -268.0, -138.0, -6.0, 145.0, 201.0, 225.0, 234.0, 236.0, 236.0, 236.0, 236.0, 236.0, 236.0, 236.0, 236.0, 236.0, 236.0, 236.0, 236.0, 236.0, 236.0, 236.0, 236.0, 236.0, 236.0, 236.0, 236.0, 236.0, 236.0, 236.0, 236.0, 236.0, 236.0, 236.0, 236.0, 236.0, 237.0, 264.0, 305.0, 330.0, 331.0, 331.0, 331.0]	[0.006328314600978047, 0.010967713315039873, 0.015006707166321576, 0.02891637000720948, 0.04573623830219731, 0.06230898149078712, 0.07924626837484539, 0.09565892635146156, 0.11263444257201627, 0.12898190593114123, 0.14602329937042668, 0.16222535487031564, 0.17912543646525592, 0.1955787130864337, 0.21252077864483, 0.22891398065257818, 0.24585297418525442, 0.2623117121402174, 0.27919063105946407, 0.2954705105512403, 0.3124907413148321, 0.32892080734018236, 0.34603285673074424, 0.3621024750173092, 0.3791530844755471, 0.39569203567225486, 0.4124917653389275, 0.4289225139655173, 0.44581201422261074, 0.46223388821817935, 0.4792090630508028, 0.495461635873653, 0.5123432854306884, 0.5287453621276654, 0.5457686649169773, 0.5622209175489843, 0.5792650416842662, 0.595530926482752, 0.612459680007305, 0.6289453833014704, 0.6458164515788667, 0.6622168215690181, 0.6791411378071643, 0.6953592359786853, 0.7122958401450887, 0.7286665142164566, 0.7458703821757808, 0.7622465175227262, 0.7792363697080873, 0.7955295611172915, 0.8125429652864113, 0.8290327645372599, 0.8458679928444326, 0.8622345709009096, 0.8792271537240595, 0.8953554813051596, 0.9124327147146687, 0.9290143325924873, 0.9458318115212023, 0.962293962831609, 0.979185511067044, 0.9956841850071214, 1.0126119145425037, 1.0286869941628538, 1.0457256569643505, 1.0622826988692395, 1.0790889138588682, 1.0956087504164316, 1.1124183787032962, 1.128897255344782, 1.1457795876194723, 1.162256416224409, 1.1791087111341767, 1.195577689097263, 1.2124381760368124, 1.2290136499213986, 1.2458324942272156, 1.2622669975389726, 1.27920018840814, 1.2955582331051119, 1.312448074691929, 1.3289402633090504, 1.3458795981714502, 1.3622567575075664, 1.3791281671146862, 1.3953991719172336, 1.4124757226672955, 1.4289494793047197, 1.4457990435766988, 1.4622902081464417, 1.479217596410308, 1.4956162597518414, 1.5124313493724912, 1.5289436766179278, 1.5458150862250477, 1.5622376428800635, 1.5791554737952538, 1.5955459451070055, 1.6124996159924194, 1.628722834168002, 1.6455717157805339, 1.6622270615771413, 1.679143185785506, 1.6955947557580657, 1.7124340800219215, 1.7289013513363898, 1.745803139579948, 1.7622076055849902, 1.7792104284162633]
24	images/0419.jpg	images/0510.jpg	left	0.97	[0.0, 0.0, 0.0, 0.0, 0.0, 0.0, 0.0, 0.0, 0.0, 0.0, 0.0, 0.0, 0.0, 0.0, 0.0, 0.0, 0.0, 0.0, 0.0, 0.0, 0.0, 0.0, 0.0, 0.0, 0.0, 0.0, 0.0, 0.0, 0.0, -5.0, -32.0, -67.0, -120.0, -198.0, -331.0, -420.0, -505.0, -591.0, -668.0, -730.0, -785.0, -816.0, -827.0, -828.0, -830.0, -830.0, -830.0, -830.0, -830.0, -830.0, -829.0, -827.0, -827.0, -826.0, -824.0, -820.0, -816.0, -814.0, -813.0]	[-490.0, -490.0, -490.0, -490.0, -490.0, -490.0, -490.0, -490.0, -490.0, -490.0, -490.0, -490.0, -490.0, -490.0, -490.0, -490.0, -490.0, -490.0, -490.0, -490.0, -490.0, -490.0, -490.0, -490.0, -490.0, -490.0, -490.0, -490.0, -490.0, -488.0, -444.0, -396.0, -337.0, -267.0, -156.0, -92.0, -31.0, 24.0, 69.0, 108.0, 150.0, 177.0, 187.0, 190.0, 191.0, 191.0, 191.0, 191.0, 193.0, 198.0, 200.0, 206.0, 211.0, 214.0, 221.0, 231.0, 238.0, 242.0, 242.0]	[0.006930767383892089, 0.010895009327214211, 0.014639432833064348, 0.030689936480484903, 0.046876290638465434, 0.06402759335469455, 0.08016206492902711, 0.09739631152478978, 0.11375947622582316, 0.13070188311394304, 0.14708723447984084, 0.16400950268143788, 0.1804180647013709, 0.19731370895169675, 0.2137345588998869, 0.23070188309065998, 0.24686707463115454, 0.26385044149355963, 0.2801832275581546, 0.29738197557162493, 0.3137407029280439, 0.3305854885256849, 0.3470814318279736, 0.3639961907174438, 0.3804143100278452, 0.39742669014958665, 0.41377517755609006, 0.4305947045213543, 0.44683669600635767, 0.46395864407531917, 0.48048052861122414, 0.49749939411412925, 0.513812041550409, 0.5305861711967736, 0.5470773358247243, 0.5639115400845185, 0.5802293075248599, 0.5972037996980362, 0.6137854175758548, 0.6306134778424166, 0.6470834797946736, 0.6638739935006015, 0.6804627793026157, 0.6972355436882935, 0.7136860896134749, 0.7305673978989944, 0.7468629786744714, 0.763864777458366, 0.780386320722755, 0.7972584129893221, 0.8134881164878607, 0.8304810406407341, 0.8468049520161003, 0.8639385054120794, 0.880382907402236, 0.8972109676687978, 0.9137420682818629, 0.9305609125876799, 0.9470527598168701]
25	images/0376.jpg	images/0066.jpg	left	1.255	[0.0, 0.0, 0.0, 0.0, 0.0, 0.0, 0.0, 0.0, 0.0, 0.0, 0.0, 0.0, 0.0, 0.0, 0.0, 0.0, 0.0, 0.0, 0.0, 0.0, 0.0, 0.0, 0.0, 1.0, -1.0, -1.0, -1.0, -1.0, -1.0, -1.0, -1.0, -1.0, -1.0, -1.0, -1.0, -1.0, -1.0, -1.0, -1.0, -1.0, -1.0, -1.0, -1.0, -1.0, -2.0, -3.0, -11.0, -29.0, -69.0, -109.0, -173.0, -208.0, -242.0, -280.0, -326.0, -381.0, -427.0, -457.0, -473.0, -484.0, -490.0, -499.0, -517.0, -531.0, -539.0, -542.0, -543.0, -546.0, -550.0, -556.0, -563.0, -572.0, -574.0, -574.0, -574.0, -574.0]	[-490.0, -490.0, -490.0, -490.0, -490.0, -490.0, -490.0, -490.0, -490.0, -490.0, -490.0, -490.0, -490.0, -490.0, -490.0, -490.0, -490.0, -490.0, -490.0, -490.0, -490.0, -490.0, -490.0, -491.0, -492.0, -492.0, -492.0, -492.0, -492.0, -492.0, -492.0, -492.0, -492.0, -492.0, -492.0, -492.0, -492.0, -492.0, -492.0, -492.0, -492.0, -492.0, -492.0, -492.0, -484.0, -461.0, -432.0, -386.0, -322.0, -253.0, -150.0, -89.0, -40.0, 4.0, 53.0, 115.0, 156.0, 181.0, 194.0, 203.0, 210.0, 220.0, 248.0, 271.0, 286.0, 293.0, 296.0, 303.0, 309.0, 317.0, 325.0, 332.0, 333.0, 334.0, 334.0, 334.0]	[0.005961040209513158, 0.01052090828306973, 0.014333257044199854, 0.028288999805226922, 0.04515528940828517, 0.061501046118792146, 0.07838167174486443, 0.0946246872190386, 0.11169645929476246, 0.12794391211355105, 0.14507439348381013, 0.16156658210093156, 0.1784379917080514, 0.19490253232652321, 0.21171693928772584, 0.22819103725487366, 0.24501773220254108, 0.2616761499666609, 0.2783741623861715, 0.29492676694644615, 0.311731957946904, 0.32819410919910297, 0.34506210550898686, 0.36143551021814346, 0.3784321889979765, 0.39495885226642713, 0.41178554721409455, 0.4281982052489184, 0.4452051240368746, 0.4615802353946492, 0.47845710633555427, 0.49494690558640286, 0.5116944112814963, 0.5282227811985649, 0.545091460167896, 0.5615024114958942, 0.5783960077096708, 0.5948578176903538, 0.6116988486610353, 0.6282081038807519, 0.6450866814702749, 0.6615809180657379, 0.6783581197378226, 0.6946997804916464, 0.711751413939055, 0.7282354105263948, 0.7450231935363263, 0.7615071901236661, 0.7783297891146503, 0.7948329003411345, 0.811662667314522, 0.8281603172654286, 0.8450849748332985, 0.8615368861355819, 0.8784018103615381, 0.8946171778952703, 0.911694752634503, 0.9281801145989448, 0.9450115882209502, 0.9615368861122988, 0.9783594851032831, 0.9948598656919785, 1.0116862193099223, 1.0279364027664997, 1.0449006549897604, 1.0615232327836566, 1.0783973730285652, 1.0948564523714595, 1.111670859332662, 1.128140861284919, 1.144998617528472, 1.1615536114550196, 1.1783779170946218, 1.1948352896724828, 1.2117244485998526, 1.2281637305859476]
26	images/0257.jpg	images/0111.jpg	right	1.049	[0.0, 0.0, 0.0, 0.0, 0.0, 0.0, 0.0, 0.0, 0.0, 0.0, 0.0, 0.0, 0.0, 0.0, 0.0, 0.0, 0.0, 0.0, 0.0, 0.0, 0.0, 0.0, 0.0, 0.0, 0.0, 0.0, 0.0, 0.0, 0.0, 0.0, 0.0, 0.0, 0.0, 0.0, 0.0, 0.0, 0.0, 8.0, 40.0, 90.0, 192.0, 266.0, 339.0, 421.0, 504.0, 565.0, 616.0, 653.0, 679.0, 695.0, 705.0, 710.0, 711.0, 711.0, 709.0, 703.0, 699.0, 697.0, 697.0, 697.0, 697.0, 697.0, 697.0, 698.0]	[-490.0, -490.0, -490.0, -490.0, -490.0, -490.0, -490.0, -490.0, -490.0, -490.0, -490.0, -490.0, -490.0, -490.0, -490.0, -490.0, -490.0, -490.0, -490.0, -490.0, -490.0, -490.0, -490.0, -490.0, -490.0, -490.0, -490.0, -490.0, -490.0, -490.0, -490.0, -490.0, -490.0, -490.0, -490.0, -490.0, -490.0, -475.0, -446.0, -408.0, -326.0, -271.0, -210.0, -145.0, -80.0, -29.0, 15.0, 58.0, 94.0, 117.0, 132.0, 146.0, 159.0, 175.0, 188.0, 205.0, 222.0, 238.0, 258.0, 277.0, 295.0, 309.0, 315.0, 317.0]	[0.007992995844688267, 0.013023562205489725, 0.017409691819921136, 0.03233174839988351, 0.04925435793120414, 0.06544822145951912, 0.08266471879323944, 0.09906918479828164, 0.11605971958488226, 0.13238465500762686, 0.1492700592498295, 0.16569500527111813, 0.18262307613622397, 0.19899784616427496, 0.21586823178222403, 0.23240035632625222, 0.2492751792888157, 0.26565848261816427, 0.2826097641373053, 0.2988022623467259, 0.31575388519559056, 0.3323484737193212, 0.34920384065480903, 0.36564994929358363, 0.3825503722182475, 0.3989742941921577, 0.41589963441947475, 0.43238158302847296, 0.449192235362716, 0.4656649679527618, 0.48260259616654366, 0.49879611836513504, 0.5157040506019257, 0.5323918230133131, 0.5492161286529154, 0.5656676986254752, 0.582476302923169, 0.5989934088429436, 0.6158832504297607, 0.6323966016643681, 0.6492413873202167, 0.6657516665291041, 0.682581092172768, 0.6990855687763542, 0.7159784823306836, 0.7321129539050162, 0.7491581020294689, 0.7656820346019231, 0.7824978069402277, 0.7987613023724407, 0.8157767545199022, 0.8323795350152068, 0.8490792540833354, 0.8657462052069604, 0.8825350122060627, 0.8990545074339025, 0.9158962210640311, 0.9323600790230557, 0.949087446089834, 0.9656612132675946, 0.9824834709288552, 0.998789633042179, 1.0157873358693905, 1.0323341377079487]
27	images/0475.jpg	images/0528.jpg	left	1.172	[0.0, 0.0, 0.0, 0.0, 0.0, 0.0, 0.0, 0.0, 0.0, 0.0, 0.0, 0.0, 0.0, 0.0, 0.0, 0.0, 0.0, 0.0, 0.0, 0.0, 0.0, 0.0, 0.0, 0.0, 0.0, 0.0, 0.0, 0.0, 0.0, 0.0, 0.0, 0.0, 0.0, 0.0, 0.0, 0.0, 0.0, 0.0, -1.0, -2.0, -5.0, -9.0, -17.0, -37.0, -81.0, -145.0, -227.0, -319.0, -396.0, -490.0, -539.0, -578.0, -615.0, -641.0, -660.0, -672.0, -680.0, -685.0, -687.0, -691.0, -695.0, -697.0, -697.0, -697.0, -697.0, -696.0, -694.0, -692.0, -690.0, -690.0, -690.0]	[-490.0, -490.0, -490.0, -490.0, -490.0, -490.0, -490.0, -490.0, -490.0, -490.0, -490.0, -490.0, -490.0, -490.0, -490.0, -490.0, -490.0, -490.0, -490.0, -490.0, -490.0, -490.0, -490.0, -490.0, -490.0, -490.0, -490.0, -490.0, -490.0, -490.0, -490.0, -490.0, -490.0, -490.0, -490.0, -490.0, -490.0, -490.0, -473.0, -457.0, -441.0, -419.0, -394.0, -348.0, -281.0, -215.0, -154.0, -97.0, -49.0, -4.0, 18.0, 37.0, 58.0, 75.0, 91.0, 102.0, 111.0, 121.0, 132.0, 143.0, 157.0, 188.0, 212.0, 237.0, 261.0, 283.0, 303.0, 318.0, 328.0, 331.0, 331.0]	[0.007647566788364202, 0.012070901691913605, 0.016338929999619722, 0.031550437037367374, 0.048437889316119254, 0.06486044597113505, 0.08178339683217928, 0.09818888682639226, 0.11508043512003496, 0.13134870922658592, 0.14831876405514777, 0.16485566727351397, 0.18178476218599826, 0.19826432142872363, 0.2150667817913927, 0.23123914131429046, 0.24835221469402313, 0.26489901659078896, 0.2818366448045708, 0.29824554815422744, 0.31507736310595647, 0.33154326904332265, 0.3484081933274865, 0.36464096879353747, 0.3816953329369426, 0.39827183075249195, 0.4151009150664322, 0.4315644316957332, 0.4484457399812527, 0.46477681933902204, 0.48183766880538315, 0.49824827880365774, 0.5151353896944784, 0.5315115250996314, 0.5485624758875929, 0.5649212032440118, 0.5817349275457673, 0.5982527161249891, 0.6150288938079029, 0.6315473650465719, 0.6484829452820122, 0.6648331393371336, 0.6817574555170722, 0.6979656550101936, 0.7149933952023275, 0.7315149384085089, 0.7483959053643048, 0.7646788567653857, 0.7817332209087908, 0.798221654840745, 0.8150800937437452, 0.8315657970379107, 0.8484600759693421, 0.8648597633000463, 0.8818796527921222, 0.897932545747608, 0.9150053418125026, 0.931492751755286, 0.9484180919826031, 0.9647781847161241, 0.9817093275487423, 0.9981018468970433, 1.0150336724473163, 1.0315156210563146, 1.0483918093377724, 1.0648935552453622, 1.081735951534938, 1.0979728230158798, 1.1149978325120173, 1.1315016263979487, 1.1484010253334418]
28	images/0558.jpg	images/0129.jpg	right	0.85	[0.0, 0.0, 0.0, 0.0, 0.0, 0.0, 0.0, 0.0, 0.0, 0.0, 0.0, 0.0, 0.0, 0.0, 0.0, 0.0, 0.0, 0.0, 0.0, 0.0, 0.0, 0.0, 0.0, 0.0, 2.0, 11.0, 25.0, 48.0, 78.0, 113.0, 151.0, 194.0, 239.0, 290.0, 347.0, 413.0, 504.0, 557.0, 601.0, 643.0, 677.0, 701.0, 720.0, 734.0, 745.0, 754.0, 759.0, 760.0, 761.0, 763.0, 765.0]	[-490.0, -490.0, -490.0, -490.0, -490.0, -490.0, -490.0, -490.0, -490.0, -490.0, -490.0, -490.0, -490.0, -490.0, -490.0, -490.0, -490.0, -490.0, -490.0, -490.0, -490.0, -490.0, -488.0, -479.0, -465.0, -441.0, -411.0, -371.0, -318.0, -260.0, -200.0, -135.0, -75.0, -11.0, 43.0, 92.0, 160.0, 201.0, 231.0, 253.0, 274.0, 287.0, 297.0, 307.0, 312.0, 317.0, 320.0, 321.0, 321.0, 321.0, 321.0]	[0.00449433212634176, 0.00910505885258317, 0.02548085286980495, 0.041940956201869994, 0.059087138855829835, 0.07549570087576285, 0.09234048653161153, 0.10859135264763609, 0.12572115135844797, 0.14220992662012577, 0.1589871282922104, 0.1755182288470678, 0.19233536650426686, 0.2088446217821911, 0.22579112462699413, 0.2421443906496279, 0.2591219548485242, 0.2755486075184308, 0.2923462891485542, 0.30883096845354885, 0.3257153487065807, 0.3421979799750261, 0.3590550535591319, 0.37562165275448933, 0.3923172758659348, 0.4088016137829982, 0.42576313531026244, 0.44221948395716026, 0.4590198962832801, 0.4755793274962343, 0.4922882625251077, 0.5088002484408207, 0.525676095392555, 0.5421351746772416, 0.5589560670196079, 0.5755117435473949, 0.5922858731937595, 0.6089623816660605, 0.6257122766692191, 0.6421775000053458, 0.6590530055691488, 0.6752335571218282, 0.692265051882714, 0.7088381364010274, 0.7256716580595821, 0.7418860015459359, 0.758951629686635, 0.7755554341711104, 0.7923162518418394, 0.808851107081864, 0.8258051192970015]
29	images/0014.jpg	images/0365.jpg	left	1.021	[0.0, 0.0, 0.0, 0.0, 0.0, 0.0, 0.0, 0.0, 0.0, 0.0, 0.0, 0.0, 0.0, 0.0, 0.0, 0.0, 0.0, 0.0, 0.0, 0.0, 0.0, 0.0, 0.0, 0.0, 0.0, 0.0, 0.0, 0.0, 0.0, 0.0, -2.0, -9.0, -19.0, -36.0, -71.0, -140.0, -206.0, -279.0, -350.0, -413.0, -473.0, -523.0, -570.0, -612.0, -642.0, -660.0, -672.0, -680.0, -689.0, -693.0, -696.0, -698.0, -700.0, -702.0, -705.0, -707.0, -708.0, -709.0, -710.0, -710.0, -710.0, -710.0]	[-490.0, -490.0, -490.0, -490.0, -490.0, -490.0, -490.0, -490.0, -490.0, -490.0, -490.0, -490.0, -490.0, -490.0, -490.0, -490.0, -490.0, -490.0, -490.0, -490.0, -490.0, -490.0, -490.0, -490.0, -490.0, -490.0, -490.0, -490.0, -490.0, -488.0, -478.0, -461.0, -428.0, -385.0, -327.0, -240.0, -174.0, -113.0, -56.0, -11.0, 31.0, 57.0, 82.0, 104.0, 122.0, 133.0, 145.0, 157.0, 178.0, 193.0, 208.0, 222.0, 232.0, 242.0, 254.0, 260.0, 271.0, 276.0, 280.0, 280.0, 280.0, 280.0]	[0.00900095229735598, 0.012916724954266101, 0.017756486195139587, 0.03451013588346541, 0.05124262295430526, 0.06771057687001303, 0.08460724510950968, 0.10089190321741626, 0.11801897129043937, 0.13437940529547632, 0.15134399884846061, 0.16780717414803803, 0.18454375717556104, 0.20102195109939203, 0.21796640602406114, 0.2343691653222777, 0.25125388690503314, 0.2677153555559926, 0.284624311781954, 0.3011690656421706, 0.3179237393778749, 0.3343869146774523, 0.3512552522588521, 0.3676979475421831, 0.38457550114253536, 0.4010567670920864, 0.41800736595178023, 0.43436165602179244, 0.4513047455693595, 0.46754059300292283, 0.48459393315715715, 0.5010690550552681, 0.5179152060300112, 0.5343623386579566, 0.5514692680444568, 0.5676836115890183, 0.5845625305082649, 0.6009915724862367, 0.6178605927270837, 0.634352098684758, 0.6512108789756894, 0.6674672064254992, 0.6845604825066403, 0.700989524484612, 0.7178803900605999, 0.7343920346465893, 0.7511197430430911, 0.7676849769195542, 0.784516109211836, 0.8009854285046458, 0.8178585447603837, 0.8343756506801583, 0.8512398922466673, 0.8674429717939347, 0.8844376025954261, 0.9010137591394596, 0.9177971048047766, 0.9343230853555724, 0.9511811829870567, 0.9677368595148437, 0.9845652611693367, 1.000746836711187]
30	images/0182.jpg	images/0485.jpg	right	0.935	[0.0, 0.0, 0.0, 0.0, 0.0, 0.0, 0.0, 0.0, 0.0, 0.0, 0.0, 0.0, 0.0, 0.0, 0.0, 0.0, 0.0, 0.0, 0.0, 0.0, 0.0, 0.0, 0.0, 0.0, 0.0, 0.0, 0.0, 0.0, 0.0, 0.0, 1.0, 20.0, 48.0, 89.0, 127.0, 179.0, 232.0, 270.0, 301.0, 328.0, 350.0, 377.0, 422.0, 457.0, 489.0, 521.0, 549.0, 566.0, 583.0, 602.0, 621.0, 636.0, 646.0, 652.0, 655.0, 655.0, 657.0]	[-490.0, -490.0, -490.0, -490.0, -490.0, -490.0, -490.0, -490.0, -490.0, -490.0, -490.0, -490.0, -490.0, -490.0, -490.0, -490.0, -490.0, -490.0, -490.0, -490.0, -490.0, -490.0, -490.0, -490.0, -490.0, -490.0, -490.0, -490.0, -490.0, -490.0, -490.0, -479.0, -464.0, -437.0, -404.0, -345.0, -283.0, -223.0, -165.0, -96.0, -30.0, 37.0, 121.0, 173.0, 217.0, 257.0, 294.0, 316.0, 338.0, 357.0, 373.0, 387.0, 396.0, 401.0, 404.0, 404.0, 404.0]	[0.005460304673761129, 0.009169912140350789, 0.013808969524689019, 0.02761657373048365, 0.04404868773417547, 0.06094569730339572, 0.0773696192773059, 0.09439940744778141, 0.11071000684751198, 0.12754660047357902, 0.14405824505956843, 0.16095593728823587, 0.17737303260946646, 0.19426048488821834, 0.21072092949179932, 0.2277732455986552, 0.24402957310667261, 0.26090371335158125, 0.27741569926729426, 0.29433387151220813, 0.3106772388564423, 0.32768518169177696, 0.3440927197225392, 0.3609040546580218, 0.3774757738574408, 0.3942908635362983, 0.4107970467885025, 0.42770941636990756, 0.4440404957276769, 0.46091156400507316, 0.47746109653962776, 0.49426867690635845, 0.5106335482560098, 0.5275964351021685, 0.5440613170503639, 0.5610259106033482, 0.5774187712813728, 0.594223962223623, 0.6107038628542796, 0.627514173858799, 0.6438042933004908, 0.6609187319991179, 0.6774993258295581, 0.6942816475057043, 0.7107062521972694, 0.727670845692046, 0.7437971252948046, 0.7608306680922396, 0.7771528728189878, 0.7942130395676941, 0.8107301454874687, 0.8275708351284266, 0.8440418610698543, 0.8608617293648422, 0.8773679126170464, 0.8942109915660694, 0.9106782628805377]
31	images/0230.jpg	images/0254.jpg	right	1.168	[0.0, 0.0, 0.0, 0.0, 0.0, 0.0, 0.0, 0.0, 0.0, 0.0, 0.0, 0.0, 0.0, 0.0, 0.0, 0.0, 0.0, 0.0, 0.0, 0.0, 0.0, 0.0, 0.0, 0.0, 0.0, 0.0, 0.0, 0.0, 0.0, 0.0, 0.0, -1.0, -13.0, -33.0, -74.0, -127.0, -182.0, -230.0, -271.0, -302.0, -322.0, -341.0, -396.0, -443.0, -483.0, -510.0, -527.0, -534.0, -535.0, -535.0, -527.0, -509.0, -474.0, -416.0, -335.0, -192.0, -70.0, 68.0, 210.0, 317.0, 407.0, 483.0, 565.0, 623.0, 672.0, 694.0, 700.0, 700.0, 700.0, 700.0]	[-490.0, -490.0, -490.0, -490.0, -490.0, -490.0, -490.0, -490.0, -490.0, -490.0, -490.0, -490.0, -490.0, -490.0, -490.0, -490.0, -490.0, -490.0, -490.0, -490.0, -490.0, -490.0, -490.0, -490.0, -490.0, -490.0, -490.0, -490.0, -490.0, -490.0, -490.0, -490.0, -476.0, -447.0, -394.0, -330.0, -266.0, -209.0, -161.0, -126.0, -98.0, -73.0, -7.0, 42.0, 88.0, 118.0, 145.0, 165.0, 178.0, 189.0, 205.0, 219.0, 234.0, 254.0, 276.0, 300.0, 317.0, 335.0, 346.0, 358.0, 371.0, 383.0, 394.0, 397.0, 405.0, 407.0, 407.0, 407.0, 407.0, 407.0]	[0.005779451050329953, 0.01049462566152215, 0.027839805523399264, 0.04462554055498913, 0.06106379849370569, 0.07792838144814596, 0.09443797805579379, 0.11135819827904925, 0.12772750697331503, 0.14470302313566208, 0.16125357971759513, 0.17794578947359696, 0.19440794072579592, 0.21128583565587178, 0.22773160296492279, 0.24466752453008667, 0.26114162243902683, 0.2779840187286027, 0.2943721007904969, 0.31128720100969076, 0.3276961043011397, 0.3446327085257508, 0.3611457184306346, 0.3780202000634745, 0.3944547033752315, 0.4112936863093637, 0.42754830711055547, 0.44446101802168414, 0.4611399158020504, 0.4779717307537794, 0.494262874184642, 0.5112523850402795, 0.5277763176127337, 0.5446501165279187, 0.5610620918450877, 0.578062184038572, 0.5945509593002498, 0.6111967477481812, 0.6277735869516619, 0.6445576152764261, 0.6610747211962007, 0.677921554830391, 0.6944570926716551, 0.711262283672113, 0.7277831442770548, 0.7445562499342486, 0.7611436704755761, 0.7780089360894635, 0.7941358982934617, 0.81121517973952, 0.8277196562848985, 0.8445668312488124, 0.8610590198659338, 0.877889810828492, 0.8944222767022438, 0.9112400970188901, 0.9274807231849991, 0.9443640794488601, 0.9608446626807563, 0.9779379387618974, 0.9941423836280592, 1.0112104010768235, 1.0277718802681193, 1.0445746819023043, 1.061061750515364, 1.0778601148631424, 1.094509657996241, 1.111302561010234, 1.1277442323043942, 1.1446487511857413]
32	images/0305.jpg	images/0352.jpg	left	0.934	[0.0, 0.0, 0.0, 0.0, 0.0, 0.0, 0.0, 0.0, 0.0, 0.0, 0.0, 0.0, 0.0, 0.0, 0.0, 0.0, 0.0, 0.0, 0.0, 0.0, 0.0, 0.0, 0.0, 0.0, 0.0, 0.0, -12.0, -41.0, -87.0, -141.0, -210.0, -281.0, -355.0, -449.0, -539.0, -628.0, -731.0, -784.0, -813.0, -831.0, -841.0, -845.0, -847.0, -847.0, -847.0, -844.0, -839.0, -830.0, -828.0, -825.0, -825.0, -825.0, -825.0, -825.0, -824.0, -824.0, -824.0]	[-490.0, -490.0, -490.0, -490.0, -490.0, -490.0, -490.0, -490.0, -490.0, -490.0, -490.0, -490.0, -490.0, -490.0, -490.0, -490.0, -490.0, -490.0, -490.0, -490.0, -490.0, -490.0, -490.0, -490.0, -490.0, -490.0, -474.0, -444.0, -395.0, -346.0, -294.0, -239.0, -186.0, -130.0, -81.0, -38.0, 16.0, 53.0, 77.0, 102.0, 124.0, 146.0, 167.0, 188.0, 204.0, 222.0, 240.0, 262.0, 269.0, 277.0, 281.0, 285.0, 288.0, 291.0, 291.0, 291.0, 291.0]	[0.006747471517883241, 0.011423392861615866, 0.015717703849077225, 0.029733862553257495, 0.04667831741971895, 0.0631865487084724, 0.08004703564802185, 0.09651260025566444, 0.11346968443831429, 0.1298553771339357, 0.14672064274782315, 0.16324047930538654, 0.18002962763421237, 0.1965416135499254, 0.21346012712456286, 0.22989667841466144, 0.2467373680556193, 0.2632138553308323, 0.28005386231234297, 0.2966201201779768, 0.313447839114815, 0.329859814431984, 0.3467394160688855, 0.36314490606309846, 0.3800463529769331, 0.3966580081032589, 0.4133823032025248, 0.42984206514665857, 0.44678993336856365, 0.46334458590717986, 0.47996340901590884, 0.49651123490184546, 0.5133031139266677, 0.5298447958193719, 0.5466438428265974, 0.5631954233394936, 0.5799968596547842, 0.5965740401879884, 0.6133212045533583, 0.6297867691610008, 0.6466902641113847, 0.6628831035923213, 0.6799511210410856, 0.696498264267575, 0.7132747832802124, 0.729795302497223, 0.7465820615179837, 0.7631387620349415, 0.7800074410042726, 0.7964477469795384, 0.8133113058866002, 0.8297683371929452, 0.8466493041487411, 0.8631548047414981, 0.8799200597568415, 0.8964115656563081, 0.913341001898516]
33	images/0541.jpg	images/0055.jpg	right	1.684	[0.0, 0.0, 0.0, 0.0, 0.0, 0.0, 0.0, 0.0, 0.0, 0.0, 0.0, 0.0, 0.0, 0.0, 0.0, 0.0, 0.0, 0.0, 0.0, 0.0, 0.0, 0.0, 0.0, 0.0, 0.0, 0.0, 0.0, 0.0, 0.0, 0.0, -15.0, -34.0, -61.0, -101.0, -147.0, -202.0, -280.0, -364.0, -441.0, -498.0, -530.0, -551.0, -557.0, -566.0, -572.0, -581.0, -589.0, -594.0, -596.0, -598.0, -603.0, -606.0, -610.0, -615.0, -619.0, -619.0, -619.0, -619.0, -619.0, -616.0, -590.0, -538.0, -460.0, -363.0, -263.0, -95.0, 16.0, 116.0, 202.0, 292.0, 374.0, 450.0, 499.0, 525.0, 536.0, 537.0, 537.0, 537.0, 537.0, 537.0, 537.0, 537.0, 537.0, 537.0, 537.0, 537.0, 537.0, 537.0, 537.0, 537.0, 538.0, 541.0, 548.0, 566.0, 594.0, 620.0, 640.0, 657.0, 666.0, 668.0, 670.0]	[-490.0, -490.0, -490.0, -490.0, -490.0, -490.0, -490.0, -490.0, -490.0, -490.0, -490.0, -490.0, -490.0, -490.0, -490.0, -490.0, -490.0, -490.0, -490.0, -490.0, -490.0, -490.0, -490.0, -490.0, -490.0, -490.0, -490.0, -490.0, -490.0, -479.0, -443.0, -411.0, -366.0, -309.0, -248.0, -176.0, -95.0, -10.0, 67.0, 139.0, 187.0, 229.0, 252.0, 273.0, 291.0, 313.0, 329.0, 342.0, 353.0, 362.0, 372.0, 380.0, 389.0, 396.0, 400.0, 401.0, 401.0, 401.0, 401.0, 401.0, 398.0, 390.0, 381.0, 372.0, 372.0, 372.0, 372.0, 372.0, 380.0, 393.0, 395.0, 395.0, 395.0, 395.0, 395.0, 395.0, 395.0, 395.0, 395.0, 395.0, 395.0, 395.0, 395.0, 395.0, 395.0, 395.0, 395.0, 395.0, 395.0, 395.0, 395.0, 395.0, 395.0, 395.0, 390.0, 387.0, 386.0, 386.0, 386.0, 385.0, 385.0]	[0.004514470754656941, 0.009207800088915974, 0.025717055308632553, 0.04216452926630154, 0.05916018411517143, 0.07574248465243727, 0.09270434750942513, 0.10904088820097968, 0.12590888451086357, 0.14215189992683008, 0.15923425339860842, 0.17586058587767184, 0.19263847020920366, 0.20903167221695185, 0.2259576951037161, 0.2423986837384291, 0.2592373254010454, 0.2757510179653764, 0.29256201162934303, 0.30908082419773564, 0.32588874583598226, 0.3423812757828273, 0.35923493606969714, 0.3758189431973733, 0.3925838569412008, 0.4090504455380142, 0.4259256097720936, 0.4422341611934826, 0.4592448347248137, 0.4757605752674863, 0.4925787369138561, 0.5089477042783983, 0.5260126497014426, 0.5424331583781168, 0.5593185626203194, 0.57547556218924, 0.5925681556109339, 0.6090545415063389, 0.6258962551364675, 0.6423710357630625, 0.6592339120688848, 0.6758196259033866, 0.6925975102349184, 0.7090521521749906, 0.7260235723806545, 0.7423822997370735, 0.7592595120077021, 0.7755117435008287, 0.7924858943442814, 0.80902894155588, 0.8258959138183855, 0.8424249663949013, 0.8591878321021795, 0.8757551139569841, 0.8925664489506744, 0.9092067760648206, 0.9260000204085372, 0.9424232597230002, 0.9593014959827997, 0.9754861434921622, 0.9925285609788261, 1.009048056206666, 1.0259177591651678, 1.04238707839977, 1.0592130907461978, 1.0755055994959548, 1.0925893182284199, 1.108903330983594, 1.1258624632027932, 1.1424259903724305, 1.159267021343112, 1.175486826163251, 1.1924937450094149, 1.2090545415412635, 1.2259406284429133, 1.2424857236910611, 1.2592455173726194, 1.275779007235542, 1.2925695209414698, 1.3090675121638924, 1.3259085431345738, 1.342416433035396, 1.3592875013127923, 1.3757411192636937, 1.392605702218134, 1.4090685361879878, 1.4260160630801693, 1.4424198463675566, 1.459378637257032, 1.475761599256657, 1.4925531369517557, 1.509048056206666, 1.525910591124557, 1.5423860544105992, 1.559296034683939, 1.5754653221811168, 1.5925248063285835, 1.609044642886147, 1.6258983031730168, 1.6423969770548865, 1.6592724826768972]
34	images/0367.jpg	images/0036.jpg	right	0.902	[0.0, 0.0, 0.0, 0.0, 0.0, 0.0, 0.0, 0.0, 0.0, 0.0, 0.0, 0.0, 0.0, 0.0, 0.0, 0.0, 0.0, 0.0, 0.0, 0.0, 0.0, 0.0, 0.0, 0.0, 0.0, 0.0, 0.0, 0.0, 0.0, 0.0, 0.0, 0.0, 1.0, 27.0, 72.0, 115.0, 168.0, 238.0, 311.0, 396.0, 473.0, 528.0, 585.0, 613.0, 630.0, 643.0, 653.0, 659.0, 664.0, 673.0, 682.0, 696.0, 705.0, 708.0, 708.0]	[-490.0, -490.0, -490.0, -490.0, -490.0, -490.0, -490.0, -490.0, -490.0, -490.0, -490.0, -490.0, -490.0, -490.0, -490.0, -490.0, -490.0, -490.0, -490.0, -490.0, -490.0, -490.0, -490.0, -490.0, -490.0, -490.0, -490.0, -490.0, -490.0, -490.0, -490.0, -490.0, -490.0, -471.0, -422.0, -368.0, -295.0, -207.0, -113.0, 6.0, 107.0, 174.0, 242.0, 274.0, 295.0, 307.0, 318.0, 324.0, 330.0, 344.0, 357.0, 378.0, 391.0, 398.0, 398.0]	[0.007112697931006551, 0.011999904410913587, 0.016077810258138925, 0.030628155160229653, 0.047492055455222726, 0.06382893753470853, 0.08071707241469994, 0.09728333028033376, 0.11412367859156802, 0.13070358976256102, 0.1473620075848885, 0.16383474017493427, 0.1806778191239573, 0.1971198317478411, 0.21408681460889056, 0.23051653924630955, 0.24735688755754381, 0.2637811508611776, 0.28074198972899467, 0.2971495277597569, 0.31403254269389436, 0.3305373605689965, 0.34737293020589277, 0.3638190388446674, 0.3807518883841112, 0.3971143704256974, 0.4140578013029881, 0.43042710999725387, 0.44745792215690017, 0.46382825484033674, 0.4807071737595834, 0.4972068716888316, 0.5140793052851222, 0.5304960592766292, 0.5473650795756839, 0.5635319777647965, 0.5806351525243372, 0.5971437250846066, 0.6139943133457564, 0.6304281339980662, 0.6472756502917036, 0.6637893428560346, 0.6806006778497249, 0.6971884397207759, 0.714060531987343, 0.7302035368629731, 0.7472360556712374, 0.763535391073674, 0.7805935099022463, 0.7971177837462164, 0.8139693960547447, 0.8304407633258961, 0.8472585836425424, 0.8637702282285318, 0.88067201647209]
35	images/0261.jpg	images/0424.jpg	right	1.034	[0.0, 0.0, 0.0, 0.0, 0.0, 0.0, 0.0, 0.0, 0.0, 0.0, 0.0, 0.0, 0.0, 0.0, 0.0, 0.0, 0.0, 0.0, 0.0, 0.0, 0.0, 0.0, 0.0, 0.0, 0.0, 0.0, 0.0, 0.0, 0.0, 0.0, 0.0, 0.0, 0.0, 0.0, 0.0, 0.0, 0.0, 0.0, 0.0, 0.0, 0.0, 0.0, 39.0, 102.0, 189.0, 264.0, 342.0, 418.0, 511.0, 608.0, 690.0, 751.0, 785.0, 804.0, 815.0, 819.0, 820.0, 821.0, 822.0, 825.0, 826.0, 827.0]	[-490.0, -490.0, -490.0, -490.0, -490.0, -490.0, -490.0, -490.0, -490.0, -490.0, -490.0, -490.0, -490.0, -490.0, -490.0, -490.0, -490.0, -490.0, -490.0, -490.0, -490.0, -490.0, -490.0, -490.0, -490.0, -490.0, -490.0, -490.0, -490.0, -490.0, -490.0, -490.0, -490.0, -490.0, -490.0, -490.0, -490.0, -490.0, -490.0, -490.0, -490.0, -490.0, -467.0, -420.0, -324.0, -233.0, -137.0, -48.0, 57.0, 165.0, 245.0, 308.0, 348.0, 371.0, 383.0, 388.0, 390.0, 392.0, 395.0, 398.0, 400.0, 401.0]	[0.005677051143720746, 0.010963617300149053, 0.027524413831997663, 0.04438797279726714, 0.060756940161809325, 0.07779184827813879, 0.09423249558312818, 0.11115510511444882, 0.1275780030991882, 0.14450300199678168, 0.16068389487918466, 0.17771880299551412, 0.19427243154495955, 0.2110895692021586, 0.22759302175836638, 0.24447910871822387, 0.2608654840150848, 0.2777771709370427, 0.2942594608757645, 0.31110083317616954, 0.3276339817093685, 0.3444610180449672, 0.3609641292714514, 0.37787649885285646, 0.394229082216043, 0.4111206305096857, 0.4275042751687579, 0.44439821277046576, 0.4610603852197528, 0.4777908242540434, 0.4941905115847476, 0.5110813772189431, 0.527575955085922, 0.5444490713998675, 0.5608344227075577, 0.5777720509213395, 0.5942379569169134, 0.6111028811428696, 0.6275848297518678, 0.6445412313332781, 0.660850124026183, 0.6777642003144138, 0.6942345435381867, 0.7110404171980917, 0.727635347051546, 0.7443818287574686, 0.7608948386623524, 0.7777269950020127, 0.7942393222474493, 0.8110943478532135, 0.8273141526733525, 0.8443913860828616, 0.8606415695394389, 0.8777358696679585, 0.8942219142336398, 0.9110636278637685, 0.9275681044673547, 0.9444466820568778, 0.9606214308878407, 0.9776433684164658, 0.9942420528968796, 1.0110963958431967]
36	images/0218.jpg	images/0289.jpg	left	1.153	[0.0, 0.0, 0.0, 0.0, 0.0, 0.0, 0.0, 0.0, 0.0, 0.0, 0.0, 0.0, 0.0, 0.0, 0.0, 0.0, 0.0, 0.0, 0.0, 0.0, 0.0, 0.0, 0.0, 0.0, 0.0, 0.0, 0.0, 0.0, 0.0, 0.0, 0.0, 0.0, 0.0, 0.0, 0.0, 0.0, 0.0, -1.0, -7.0, -13.0, -25.0, -63.0, -97.0, -146.0, -197.0, -243.0, -288.0, -332.0, -368.0, -412.0, -450.0, -481.0, -502.0, -523.0, -548.0, -561.0, -572.0, -580.0, -589.0, -597.0, -605.0, -613.0, -619.0, -626.0, -631.0, -636.0, -639.0, -640.0, -640.0, -640.0]	[-490.0, -490.0, -490.0, -490.0, -490.0, -490.0, -490.0, -490.0, -490.0, -490.0, -490.0, -490.0, -490.0, -490.0, -490.0, -490.0, -490.0, -490.0, -490.0, -490.0, -490.0, -490.0, -490.0, -490.0, -490.0, -490.0, -490.0, -490.0, -490.0, -490.0, -490.0, -490.0, -490.0, -490.0, -490.0, -490.0, -490.0, -490.0, -478.0, -458.0, -429.0, -358.0, -304.0, -240.0, -179.0, -118.0, -65.0, -13.0, 27.0, 83.0, 126.0, 155.0, 174.0, 190.0, 210.0, 219.0, 229.0, 237.0, 245.0, 254.0, 263.0, 272.0, 280.0, 287.0, 293.0, 299.0, 304.0, 307.0, 307.0, 307.0]	[0.00715536461211741, 0.011774965969379991, 0.01633312739431858, 0.030753424449358135, 0.04768661531852558, 0.06388901214813814, 0.08095395762939006, 0.09729869035072625, 0.11415951861999929, 0.13052950997371227, 0.14762722339946777, 0.16411258530570194, 0.18102222419111058, 0.19744102621916682, 0.21431311848573387, 0.23071724316105247, 0.2476210793829523, 0.2641511559486389, 0.2810348535422236, 0.29739699425408617, 0.31435715046245605, 0.33079848042689264, 0.3477006100001745, 0.3641357959713787, 0.38097136560827494, 0.3974935914739035, 0.41443736368091777, 0.430831931065768, 0.4476951486431062, 0.464128969295416, 0.4811058508348651, 0.497198338387534, 0.5141755612567067, 0.5305482833064161, 0.5475299434619956, 0.5640552413533442, 0.5809324536239728, 0.597446828847751, 0.6143086811644025, 0.6307667364599183, 0.6475848981062882, 0.6641733425785787, 0.6809368909453042, 0.6973686636192724, 0.7142817158601247, 0.7309527629404329, 0.7476866153301671, 0.7638156255707145, 0.7808529230533168, 0.7974348822026514, 0.8142899078084156, 0.8307861924404278, 0.8476173247327097, 0.8641074653132819, 0.881000378925819, 0.8972891329904087, 0.9143127771676518, 0.930860944383312, 0.9477012926363386, 0.9638436148525216, 0.980918800283689, 0.9974645781912841, 1.0142899078200571, 1.0308056484209374, 1.0475702207768336, 1.0640566066722386, 1.080913680314552, 1.097404844884295, 1.114359198429156, 1.1307281657936983]
37	images/0553.jpg	images/0171.jpg	left	1.3	[0.0, 0.0, 0.0, 0.0, 0.0, 0.0, 0.0, 0.0, 0.0, 0.0, -2.0, -2.0, -2.0, -2.0, -2.0, -2.0, -2.0, -2.0, -2.0, -2.0, -2.0, -2.0, -2.0, -2.0, -2.0, 10.0, 26.0, 50.0, 81.0, 132.0, 186.0, 253.0, 319.0, 377.0, 422.0, 446.0, 462.0, 467.0, 470.0, 473.0, 474.0, 476.0, 479.0, 483.0, 487.0, 492.0, 494.0, 495.0, 495.0, 495.0, 495.0, 495.0, 486.0, 451.0, 388.0, 320.0, 252.0, 171.0, 87.0, -2.0, -133.0, -175.0, -292.0, -358.0, -410.0, -446.0, -471.0, -493.0, -515.0, -536.0, -559.0, -587.0, -617.0, -676.0, -700.0, -708.0, -709.0, -709.0, -709.0]	[-490.0, -490.0, -490.0, -490.0, -490.0, -490.0, -490.0, -490.0, -490.0, -490.0, -490.0, -490.0, -490.0, -490.0, -490.0, -490.0, -490.0, -490.0, -490.0, -490.0, -490.0, -490.0, -490.0, -490.0, -485.0, -463.0, -434.0, -394.0, -336.0, -240.0, -144.0, -49.0, 41.0, 108.0, 154.0, 184.0, 209.0, 221.0, 229.0, 234.0, 240.0, 245.0, 251.0, 259.0, 266.0, 273.0, 277.0, 277.0, 277.0, 277.0, 277.0, 277.0, 283.0, 295.0, 313.0, 334.0, 353.0, 376.0, 398.0, 409.0, 426.0, 429.0, 431.0, 435.0, 435.0, 436.0, 436.0, 436.0, 436.0, 436.0, 436.0, 436.0, 435.0, 419.0, 414.0, 411.0, 411.0, 411.0, 411.0]	[0.006023162801284343, 0.010350583121180534, 0.013360457902308553, 0.02869689278304577, 0.04514812142588198, 0.062196000188123435, 0.07849601830821484, 0.09567804099060595, 0.1119838617159985, 0.12895016191760078, 0.14521911868359894, 0.16226836282294244, 0.17875235941028222, 0.1956087503931485, 0.21187258715508506, 0.22879007674055174, 0.24545941717224196, 0.2622376428334974, 0.2787721567437984, 0.29557188641047105, 0.3118654191493988, 0.3289146632887423, 0.3454334758571349, 0.36222706153057516, 0.37877318070968613, 0.3955585744115524, 0.4120889923069626, 0.4289532339316793, 0.4453935399069451, 0.46230044815456495, 0.47852434893138707, 0.4956210383679718, 0.5118811205029488, 0.5289167112787254, 0.5453525799093768, 0.5621939522097819, 0.5786871648160741, 0.5955097638070583, 0.6119964910321869, 0.6289187592919916, 0.6453396092401817, 0.6622629014891572, 0.6784622263512574, 0.6954438865068369, 0.7120080963941291, 0.7288777992944233, 0.7453396092751063, 0.762189514876809, 0.7787622580653988, 0.7955964623834006, 0.8120217496762052, 0.8290187698439695, 0.8453297106316313, 0.8622318402049132, 0.8784465250209905, 0.8954739238251932, 0.9120053657097742, 0.9288549299817532, 0.9453314172569662, 0.9621413869317621, 0.9786475701839663, 0.9954954278073274, 1.0119176431326196, 1.0288887219503522, 1.0453495079418644, 1.062217162863817, 1.0784229730488732, 1.0954981584800407, 1.1119824963971041, 1.1288542473339476, 1.145336878602393, 1.162171765579842, 1.1787195914657786, 1.1955083984648809, 1.211788619228173, 1.2289467485970818, 1.2453665745561011, 1.2621881495579146, 1.2784420876996592]
38	images/0479.jpg	images/0457.jpg	left	1.568	[0.0, 0.0, 0.0, 0.0, 0.0, 0.0, 0.0, 0.0, 0.0, 0.0, 0.0, 0.0, 0.0, 0.0, 0.0, 0.0, 0.0, 0.0, 0.0, 0.0, 0.0, 0.0, 0.0, 0.0, 0.0, 0.0, 0.0, 0.0, 0.0, 0.0, 0.0, 0.0, 0.0, 0.0, 0.0, 0.0, 0.0, 0.0, 0.0, 0.0, 0.0, 0.0, 0.0, 0.0, 0.0, 0.0, 0.0, 0.0, 0.0, 0.0, 0.0, 0.0, 0.0, 0.0, -7.0, -37.0, -81.0, -136.0, -205.0, -288.0, -359.0, -405.0, -421.0, -434.0, -448.0, -469.0, -478.0, -489.0, -499.0, -513.0, -529.0, -548.0, -568.0, -583.0, -596.0, -609.0, -623.0, -647.0, -662.0, -677.0, -689.0, -700.0, -713.0, -723.0, -733.0, -739.0, -742.0, -743.0, -745.0, -745.0, -745.0, -745.0, -745.0, -745.0]	[-490.0, -490.0, -490.0, -490.0, -490.0, -490.0, -490.0, -490.0, -490.0, -490.0, -490.0, -490.0, -490.0, -490.0, -490.0, -490.0, -490.0, -490.0, -490.0, -490.0, -490.0, -490.0, -490.0, -490.0, -490.0, -490.0, -490.0, -490.0, -490.0, -490.0, -490.0, -490.0, -490.0, -490.0, -490.0, -490.0, -490.0, -490.0, -490.0, -490.0, -490.0, -490.0, -490.0, -490.0, -490.0, -490.0, -490.0, -490.0, -490.0, -490.0, -490.0, -490.0, -490.0, -490.0, -471.0, -428.0, -370.0, -278.0, -109.0, 56.0, 156.0, 205.0, 229.0, 247.0, 267.0, 296.0, 308.0, 323.0, 336.0, 351.0, 366.0, 382.0, 395.0, 407.0, 416.0, 423.0, 428.0, 434.0, 435.0, 438.0, 439.0, 439.0, 440.0, 440.0, 440.0, 440.0, 440.0, 440.0, 440.0, 440.0, 440.0, 440.0, 440.0, 440.0]	[0.005793787015136331, 0.01107011322164908, 0.027884520182851702, 0.04473749781027436, 0.06102317990735173, 0.0782024718937464, 0.09429598349379376, 0.11146571818972006, 0.12771590164629743, 0.1447504684329033, 0.1612201290554367, 0.17815195460570976, 0.1945229700068012, 0.2113926729070954, 0.2278507282026112, 0.24479552439879626, 0.26120613439707085, 0.27810553333256394, 0.2945130713051185, 0.3113752649514936, 0.32788008282659575, 0.344793135067448, 0.3609682252863422, 0.37807003466878086, 0.39452228730078787, 0.41143943555653095, 0.42799033340997994, 0.4448013270739466, 0.4612293450627476, 0.47805945336585864, 0.4945448152720928, 0.5114015475846827, 0.5278657468734309, 0.5447142871562392, 0.5612221770570613, 0.5780935866641812, 0.5945311620016582, 0.6113919902709313, 0.6276421737275086, 0.6446989271789789, 0.6612651850446127, 0.6780608186963946, 0.6945649539702572, 0.711396086262539, 0.727822738874238, 0.7447252098354511, 0.7612412917078473, 0.7780570640461519, 0.7945410606334917, 0.8114889288553968, 0.8278783761779778, 0.844726916460786, 0.8612351477495395, 0.8780754960025661, 0.894505220639985, 0.9113947208970785, 0.9279015868087299, 0.9447473964537494, 0.960930337314494, 0.9780137147172354, 0.9945472046383657, 1.0113346463185735, 1.0279050001408905, 1.0446856151684187, 1.0612238837056793, 1.0780075707589276, 1.0945943085826002, 1.1114500168478116, 1.1278589201974683, 1.1447286231559701, 1.1609463799977675, 1.1779973307275213, 1.194536964641884, 1.2114080329192802, 1.227848338894546, 1.2446750338422135, 1.2612348063848913, 1.278054674679879, 1.294536964618601, 1.311484832840506, 1.3278841788414866, 1.3447275991202332, 1.3609074680134654, 1.3780195174040273, 1.3943731247563846, 1.4113640009309165, 1.4277063443441875, 1.4446593325119466, 1.4612136437208392, 1.478127037291415, 1.4945332100032829, 1.5113530782982707, 1.5278596028801985, 1.5447528577642515]
