trialIndex	stimulus	isAnimate	left_option	right_option	response	response_time	xTrajectory	yTrajectory	tTrajectory
0	炸弹	False	inanimate	animate	left	2.132	[0.0, 0.0, 0.0, 0.0, 0.0, 0.0, 0.0, 0.0, 0.0, 0.0, 0.0, 0.0, 0.0, 0.0, 0.0, 0.0, 0.0, 0.0, 0.0, 0.0, 0.0, 0.0, 0.0, 0.0, 0.0, 0.0, 0.0, 0.0, 0.0, 0.0, 0.0, 0.0, 0.0, 0.0, 0.0, 0.0, 0.0, 0.0, 0.0, 0.0, 0.0, 0.0, 0.0, 0.0, 0.0, 0.0, 0.0, 0.0, 0.0, 0.0, 0.0, 0.0, 0.0, 0.0, 0.0, 0.0, 0.0, 0.0, 0.0, 0.0, 0.0, 0.0, 0.0, 0.0, 0.0, 0.0, 0.0, 0.0, 0.0, 0.0, 0.0, 0.0, 0.0, 0.0, 0.0, 0.0, 27.0, 82.0, 157.0, 250.0, 342.0, 417.0, 478.0, 509.0, 515.0, 464.0, 278.0, 207.0, -40.0, -216.0, -380.0, -518.0, -637.0, -748.0, -900.0, -945.0, -960.0, -960.0, -960.0, -960.0, -960.0, -960.0, -960.0, -960.0, -960.0, -960.0, -960.0, -960.0, -960.0, -960.0, -960.0, -960.0, -956.0, -951.0, -946.0, -939.0, -932.0, -927.0, -926.0, -926.0, -926.0, -925.0, -925.0, -925.0, -925.0, -925.0, -925.0]	[-490.0, -490.0, -490.0, -490.0, -490.0, -490.0, -490.0, -490.0, -490.0, -490.0, -490.0, -490.0, -490.0, -490.0, -490.0, -490.0, -490.0, -490.0, -490.0, -490.0, -490.0, -490.0, -490.0, -490.0, -490.0, -490.0, -490.0, -490.0, -490.0, -490.0, -490.0, -490.0, -490.0, -490.0, -490.0, -490.0, -490.0, -490.0, -490.0, -490.0, -490.0, -490.0, -490.0, -490.0, -490.0, -490.0, -490.0, -490.0, -490.0, -490.0, -490.0, -490.0, -490.0, -490.0, -490.0, -490.0, -490.0, -490.0, -490.0, -490.0, -490.0, -490.0, -490.0, -490.0, -490.0, -490.0, -490.0, -490.0, -490.0, -490.0, -490.0, -490.0, -490.0, -490.0, -490.0, -490.0, -456.0, -399.0, -310.0, -197.0, -80.0, 28.0, 115.0, 166.0, 205.0, 256.0, 333.0, 352.0, 387.0, 393.0, 393.0, 393.0, 393.0, 393.0, 397.0, 405.0, 415.0, 426.0, 438.0, 439.0, 439.0, 439.0, 439.0, 439.0, 439.0, 439.0, 439.0, 439.0, 439.0, 440.0, 441.0, 441.0, 441.0, 441.0, 441.0, 441.0, 441.0, 441.0, 441.0, 441.0, 441.0, 441.0, 441.0, 441.0, 441.0, 441.0, 441.0]	[0.014006191806402057, 0.02197836630512029, 0.02598117891466245, 0.04462035233154893, 0.06105895165819675, 0.0764342985348776, 0.09443040052428842, 0.11117312754504383, 0.12620475207222626, 0.14449747244361788, 0.16109103697817773, 0.17645785049535334, 0.19437715254025534, 0.21123251947574317, 0.22622454934753478, 0.24445924314204603, 0.26153784192865714, 0.2764598985086195, 0.2943880751845427, 0.3112369568552822, 0.32620304537704214, 0.3444483205094002, 0.36108591698575765, 0.37647662381641567, 0.3944362031761557, 0.41124037018744275, 0.42623888538219035, 0.44448416045634076, 0.46108728228136897, 0.4764581918134354, 0.4944242564961314, 0.5112144288723357, 0.5262791626737453, 0.5444629978155717, 0.5610893302946351, 0.5764766238280572, 0.5943392645567656, 0.6112717728246935, 0.6262351307086647, 0.6448797654593363, 0.6611125409253873, 0.6764974451507442, 0.694385344570037, 0.7112256928230636, 0.7262242080178112, 0.7446411736309528, 0.761098887596745, 0.7764930078410544, 0.7943788592237979, 0.8112127222120762, 0.8260252109030262, 0.8443240752676502, 0.8610924023087136, 0.8764387358678505, 0.8942983046290465, 0.9112311541684903, 0.9262361546861939, 0.9445029337657616, 0.9610999115975574, 0.9764738931553438, 0.9945157337933779, 1.0116830791230313, 1.0262231840169989, 1.0444821124547161, 1.0611101515823975, 1.076461605145596, 1.0944563418161124, 1.1112451488152146, 1.1263194399653003, 1.1444821124896407, 1.1610831862781197, 1.176490277168341, 1.1944635098334402, 1.2112045302055776, 1.2259883469087072, 1.2444810884771869, 1.2610951329697855, 1.276432933169417, 1.2943733978900127, 1.311183026235085, 1.326266874675639, 1.3443861978594214, 1.3609841997385956, 1.376447269169148, 1.3942669020034373, 1.4114735006005503, 1.4262228427105583, 1.4444022405077703, 1.4609572343761101, 1.4764431731891818, 1.4943819312029518, 1.51114172488451, 1.526253562711645, 1.5444452484953217, 1.560943239775952, 1.5764267892227508, 1.5943088859203272, 1.6111239755991846, 1.626230010704603, 1.644431936496403, 1.6609640610404313, 1.6765117811155505, 1.6942669019917957, 1.7112516341730952, 1.7262146507273428, 1.7444411524920724, 1.7609975116793066, 1.7764981277869083, 1.7942802139441483, 1.8115612232359126, 1.8262719946797006, 1.8444322778377682, 1.8609473357209936, 1.8764735518489033, 1.8942819206276909, 1.9113434527534992, 1.9263515252387151, 1.9443930245470256, 1.9609347064397298, 1.9764441971783526, 1.994308203284163, 2.0111260236008093, 2.026248784037307, 2.0443930245237425, 2.061029597010929, 2.0764312265091576, 2.0943358512595296]
1	篮球	False	inanimate	animate	left	1.167	[0.0, -17.0, -17.0, -17.0, -16.0, -16.0, -16.0, -16.0, -16.0, -16.0, -16.0, -16.0, -16.0, -16.0, -16.0, -16.0, -16.0, -16.0, -16.0, -16.0, -16.0, -16.0, -16.0, -16.0, -16.0, -16.0, -16.0, -16.0, -16.0, -16.0, -16.0, -16.0, -16.0, -16.0, -16.0, -16.0, -16.0, -13.0, -9.0, 3.0, 20.0, 53.0, 99.0, 180.0, 301.0, 419.0, 516.0, 641.0, 672.0, 742.0, 763.0, 774.0, 777.0, 776.0, 754.0, 689.0, 583.0, 446.0, 273.0, 19.0, -59.0, -282.0, -417.0, -534.0, -630.0, -685.0, -710.0, -718.0, -718.0, -718.0, -718.0]	[-490.0, -498.0, -501.0, -501.0, -502.0, -502.0, -502.0, -502.0, -502.0, -502.0, -502.0, -502.0, -502.0, -502.0, -502.0, -502.0, -502.0, -502.0, -502.0, -502.0, -502.0, -502.0, -502.0, -502.0, -502.0, -502.0, -502.0, -502.0, -502.0, -502.0, -502.0, -502.0, -502.0, -502.0, -502.0, -502.0, -502.0, -502.0, -499.0, -489.0, -472.0, -445.0, -406.0, -335.0, -229.0, -126.0, -41.0, 82.0, 120.0, 233.0, 270.0, 291.0, 301.0, 308.0, 317.0, 330.0, 345.0, 358.0, 362.0, 362.0, 362.0, 373.0, 391.0, 409.0, 431.0, 446.0, 455.0, 460.0, 461.0, 462.0, 462.0]	[0.013199416978750378, 0.01846823381492868, 0.02486993500497192, 0.04322068201145157, 0.05971457727719098, 0.07512986013898626, 0.09288668766384944, 0.10986834781942889, 0.12488836701959372, 0.14311896479921415, 0.15972618263913319, 0.1750977748306468, 0.19305155152687803, 0.20983523852191865, 0.22485901234904304, 0.24307834613136947, 0.2596913666347973, 0.27514453744515777, 0.29307749279541895, 0.309652284020558, 0.32572224363684654, 0.34309097548248246, 0.3596756653278135, 0.3750510122044943, 0.3928648423170671, 0.40988029446452856, 0.424869935028255, 0.4431189647875726, 0.45955176145071164, 0.4751165481284261, 0.49300717818550766, 0.5098499158630148, 0.5248839296982624, 0.5431223781197332, 0.5596285613719374, 0.5750503295566887, 0.5930160528514534, 0.6098113452317193, 0.6248808577074669, 0.6431493434356526, 0.6597500759526156, 0.67506944417255, 0.6930996794835664, 0.7097304492490366, 0.7248747136909515, 0.7430704954895191, 0.7596145666902885, 0.7750124415615574, 0.7929160422645509, 0.8096993879880756, 0.8248788096825592, 0.8430438715149648, 0.8595640494022518, 0.8750479401787743, 0.8929767995723523, 0.909668326668907, 0.9248726656660438, 0.942960586224217, 0.95961456670193, 0.9750107349245809, 0.9928593810182065, 1.0097413719049655, 1.0248402390279807, 1.0430670821806416, 1.0595452761044726, 1.0750977748539299, 1.0929327675839886, 1.1097417132696137, 1.1248637910466641, 1.1430551355006173, 1.159289617673494]
2	珍珠	False	inanimate	animate	left	1.202	[0.0, 0.0, 0.0, 0.0, 0.0, 0.0, 0.0, 0.0, 0.0, 0.0, 0.0, 0.0, 0.0, 0.0, 0.0, 0.0, 0.0, 0.0, 0.0, 0.0, 0.0, 0.0, 0.0, 0.0, 0.0, 0.0, 0.0, 0.0, 0.0, 0.0, 0.0, 0.0, 0.0, 0.0, 0.0, 0.0, 0.0, 0.0, 0.0, 0.0, 7.0, 23.0, 28.0, 36.0, 38.0, 39.0, 39.0, 39.0, 39.0, 37.0, 30.0, 15.0, -14.0, -96.0, -136.0, -280.0, -382.0, -492.0, -584.0, -637.0, -659.0, -675.0, -688.0, -699.0, -709.0, -716.0, -717.0, -717.0, -718.0, -722.0, -727.0, -732.0, -733.0]	[-490.0, -490.0, -490.0, -490.0, -490.0, -490.0, -490.0, -490.0, -490.0, -490.0, -490.0, -490.0, -490.0, -490.0, -490.0, -490.0, -490.0, -490.0, -490.0, -490.0, -490.0, -490.0, -490.0, -490.0, -490.0, -490.0, -490.0, -490.0, -490.0, -490.0, -490.0, -490.0, -490.0, -490.0, -490.0, -490.0, -490.0, -490.0, -490.0, -490.0, -483.0, -470.0, -466.0, -461.0, -459.0, -458.0, -458.0, -458.0, -458.0, -456.0, -450.0, -435.0, -393.0, -279.0, -224.0, -16.0, 130.0, 261.0, 366.0, 430.0, 461.0, 481.0, 498.0, 508.0, 512.0, 516.0, 516.0, 516.0, 516.0, 516.0, 514.0, 511.0, 510.0]	[0.015227617928758264, 0.02041622146498412, 0.028602411854080856, 0.04687192157143727, 0.0637091978569515, 0.0786162358126603, 0.09710419870680198, 0.11347794474568218, 0.12898402218706906, 0.14693643350619823, 0.16372626449447125, 0.17850905726663768, 0.19707279605790973, 0.21360560331959277, 0.2289638835354708, 0.2469811481423676, 0.2637180724996142, 0.27878690231591463, 0.2970588013995439, 0.3137943604378961, 0.329032150155399, 0.34697534545557573, 0.36369144852505997, 0.3801918291137554, 0.39708747336408123, 0.41356464329874143, 0.4289632008294575, 0.4469251694972627, 0.4637146592140198, 0.4787251210655086, 0.49706938274903223, 0.5135909259552136, 0.5289550088346004, 0.5468954735551961, 0.5636897418880835, 0.5787858783151023, 0.5971216066973284, 0.6135707873036154, 0.6289997234707698, 0.6467377776862122, 0.6636934965499677, 0.6787298996932805, 0.6970369560876861, 0.7135745419654995, 0.7289522782084532, 0.7469125402276404, 0.7637115871766582, 0.7787903156713583, 0.7969686894793995, 0.8135793206747621, 0.8289888008148409, 0.8467231003451161, 0.8636556085548364, 0.8787333130603656, 0.8968901828629896, 0.9135195873677731, 0.9289427208714187, 0.9468278895947151, 0.9636371766100638, 0.9788251316640526, 0.9969642521464266, 1.0132963555515744, 1.028961494215764, 1.046603292459622, 1.0636218166328035, 1.0787725663394667, 1.0969628868042491, 1.1135219766874798, 1.1289512541843578, 1.1468125295941718, 1.1636853045783937, 1.1787633503554389, 1.1969761988148093]
3	香蕉	False	animate	inanimate	left	1.299	[0.0, 0.0, 0.0, 0.0, 0.0, 0.0, 0.0, 0.0, 0.0, 0.0, 0.0, 0.0, 0.0, 0.0, 0.0, 0.0, 0.0, 0.0, 0.0, 0.0, 0.0, 0.0, 0.0, 0.0, 0.0, 0.0, 0.0, 0.0, 0.0, 0.0, 0.0, 0.0, 0.0, 0.0, 0.0, 0.0, 0.0, 0.0, 0.0, 0.0, 0.0, 0.0, 0.0, 0.0, 0.0, 0.0, 0.0, 0.0, 0.0, 0.0, 0.0, 0.0, 0.0, 0.0, 0.0, 0.0, 0.0, 0.0, 1.0, -9.0, -23.0, -53.0, -105.0, -167.0, -284.0, -393.0, -450.0, -616.0, -684.0, -709.0, -717.0, -721.0, -723.0, -723.0, -723.0, -723.0, -723.0, -723.0]	[-490.0, -490.0, -490.0, -490.0, -490.0, -490.0, -490.0, -490.0, -490.0, -490.0, -490.0, -490.0, -490.0, -490.0, -490.0, -490.0, -490.0, -490.0, -490.0, -490.0, -490.0, -490.0, -490.0, -490.0, -490.0, -490.0, -490.0, -490.0, -490.0, -490.0, -490.0, -490.0, -490.0, -490.0, -490.0, -490.0, -490.0, -490.0, -490.0, -490.0, -490.0, -490.0, -490.0, -490.0, -490.0, -490.0, -490.0, -490.0, -490.0, -490.0, -490.0, -490.0, -490.0, -490.0, -490.0, -490.0, -490.0, -490.0, -487.0, -466.0, -441.0, -400.0, -326.0, -239.0, -76.0, 73.0, 144.0, 312.0, 380.0, 406.0, 420.0, 426.0, 431.0, 432.0, 433.0, 433.0, 433.0, 433.0]	[0.0011609419016167521, 0.00597919913707301, 0.01712201628834009, 0.03555809654062614, 0.05177994933910668, 0.06739866669522598, 0.0853043154347688, 0.10210302111227065, 0.11723533883923665, 0.13547276327153668, 0.1519338905927725, 0.167416074720677, 0.18513842759421095, 0.20211018907139078, 0.21718789357692003, 0.23532667272957042, 0.25194754387484863, 0.26742597337579355, 0.28532752610044554, 0.30208766111172736, 0.3171790189226158, 0.3353925500414334, 0.35195300524355844, 0.3673515627742745, 0.38534629938658327, 0.4021211117506027, 0.41724523750599474, 0.43537138734245673, 0.451974167895969, 0.46734507742803544, 0.485295440768823, 0.5020835651084781, 0.5171769708977081, 0.5354215633124113, 0.5519386692321859, 0.5673669227398932, 0.585101563599892, 0.6020787864690647, 0.6171612695907243, 0.6353993766824715, 0.6520141038345173, 0.6673932053963654, 0.6852910034358501, 0.702199618332088, 0.7171462509431876, 0.7354376059956849, 0.7517563973669894, 0.7674061760189943, 0.7853104594396427, 0.8020907330792397, 0.8168864964973181, 0.835323600738775, 0.8519550532219, 0.8674123200471513, 0.8853340114001185, 0.9021002904046327, 0.9170472643454559, 0.9353758246870711, 0.9519922585459426, 0.9673754560644738, 0.9851005395757966, 1.0020344131626189, 1.0172186135314405, 1.0353075580787845, 1.0518591386498883, 1.0673426880966872, 1.0851602728944272, 1.101991405186709, 1.1170080110314302, 1.1353201874298975, 1.1519393519265577, 1.1673003627802245, 1.1851926995441318, 1.2020579651580192, 1.2171325975796208, 1.2352894674404524, 1.2515884615131654, 1.2674010560149327]
4	蚊子	True	animate	inanimate	left	1.054	[0.0, 0.0, 0.0, 0.0, 0.0, 0.0, 0.0, 2.0, 3.0, 3.0, 3.0, 3.0, 3.0, 3.0, 3.0, 3.0, 3.0, 3.0, 3.0, 3.0, 3.0, 3.0, 3.0, 3.0, 3.0, 3.0, 3.0, 3.0, 3.0, 3.0, 3.0, 3.0, 3.0, 3.0, 3.0, 3.0, 3.0, 3.0, 3.0, 2.0, -9.0, -30.0, -82.0, -165.0, -261.0, -345.0, -406.0, -485.0, -512.0, -570.0, -590.0, -603.0, -611.0, -617.0, -625.0, -637.0, -649.0, -653.0, -654.0, -656.0, -657.0, -663.0, -670.0, -675.0]	[-490.0, -490.0, -490.0, -490.0, -490.0, -490.0, -490.0, -487.0, -486.0, -486.0, -486.0, -486.0, -486.0, -486.0, -486.0, -486.0, -486.0, -486.0, -486.0, -486.0, -486.0, -486.0, -486.0, -486.0, -486.0, -486.0, -486.0, -486.0, -486.0, -486.0, -486.0, -486.0, -486.0, -486.0, -486.0, -486.0, -486.0, -486.0, -486.0, -478.0, -465.0, -444.0, -383.0, -281.0, -146.0, -21.0, 75.0, 202.0, 240.0, 322.0, 348.0, 363.0, 371.0, 375.0, 377.0, 380.0, 380.0, 380.0, 380.0, 380.0, 380.0, 379.0, 377.0, 377.0]	[0.01644344622036442, 0.021180124895181507, 0.03111803636420518, 0.04929129022639245, 0.0662179957726039, 0.08118852163897827, 0.09947543940506876, 0.11603248125175014, 0.1313876895001158, 0.14937833015574142, 0.16614426783053204, 0.18098064983496442, 0.1993709914968349, 0.21605808124877512, 0.23147575341863558, 0.24942509277025238, 0.2662517877179198, 0.2810642764088698, 0.29953790333820507, 0.31601063592825085, 0.33147950808051974, 0.34945069276727736, 0.36618795845424756, 0.3812076363246888, 0.3994146821205504, 0.416025654587429, 0.4314764360897243, 0.4493783301440999, 0.46615792118245736, 0.48120968433795497, 0.499471343413461, 0.5159601186751388, 0.5314661961165257, 0.5492196102859452, 0.5661906891036779, 0.5812141216592863, 0.5994406234240159, 0.6160730998963118, 0.6314064628095366, 0.6495247620041482, 0.6661801078007556, 0.6812741962494329, 0.6994498394196853, 0.7158249507774599, 0.73140612145653, 0.74929470353527, 0.7660657612141222, 0.7811861323425546, 0.7993897647829726, 0.8159481720067561, 0.8313702815212309, 0.8490755677339621, 0.8660620065638795, 0.881101823062636, 0.8994041007827036, 0.9158959480701014, 0.9314085108344443, 0.9492701275739819, 0.9660230946028605, 0.9811987616703846, 0.9994710020837374, 1.0157065081875771, 1.031490089430008, 1.049296410230454]
5	灯泡	False	inanimate	animate	left	1.124	[0.0, 0.0, 0.0, 0.0, 0.0, 0.0, 0.0, 0.0, 0.0, 0.0, 0.0, 0.0, 0.0, 0.0, 0.0, 0.0, 0.0, 0.0, 0.0, 0.0, 0.0, 0.0, 0.0, 0.0, 0.0, 0.0, 0.0, 0.0, 0.0, 0.0, 0.0, 0.0, 0.0, 0.0, 0.0, 0.0, 0.0, 0.0, 0.0, 0.0, 0.0, 0.0, 0.0, 0.0, 0.0, 0.0, 0.0, 0.0, 0.0, 0.0, 0.0, 0.0, 0.0, 0.0, -1.0, -13.0, -66.0, -158.0, -289.0, -436.0, -575.0, -692.0, -797.0, -809.0, -819.0, -819.0, -819.0, -819.0]	[-490.0, -490.0, -490.0, -490.0, -490.0, -490.0, -490.0, -490.0, -490.0, -490.0, -490.0, -490.0, -490.0, -490.0, -490.0, -490.0, -490.0, -490.0, -490.0, -490.0, -490.0, -490.0, -490.0, -490.0, -490.0, -490.0, -490.0, -490.0, -490.0, -490.0, -490.0, -490.0, -490.0, -490.0, -490.0, -490.0, -490.0, -490.0, -490.0, -490.0, -490.0, -490.0, -490.0, -490.0, -490.0, -490.0, -490.0, -490.0, -490.0, -490.0, -490.0, -490.0, -490.0, -490.0, -488.0, -451.0, -345.0, -205.0, -21.0, 158.0, 317.0, 439.0, 538.0, 540.0, 540.0, 540.0, 540.0, 540.0]	[0.007781778869684786, 0.012497977528255433, 0.01716365886386484, 0.03251101647038013, 0.048695663979742676, 0.06428331998176873, 0.08211967814713717, 0.09900781302712858, 0.11411657882854342, 0.13242670719046146, 0.14885233587119728, 0.16431335732340813, 0.18219033407513052, 0.19898938108235598, 0.21400018426356837, 0.2322987072984688, 0.24883970653172582, 0.26421266404213384, 0.2822067180532031, 0.2989975730306469, 0.31409848819021136, 0.33235229656565934, 0.34868166933301836, 0.36431233334587887, 0.38219101674621925, 0.39895900239935145, 0.41378719243220985, 0.43244923517340794, 0.4487041973043233, 0.464311309333425, 0.4821787287364714, 0.49898255441803485, 0.5140425095451064, 0.5322826646734029, 0.5488615518552251, 0.5643068719655275, 0.5821865794132464, 0.598971973056905, 0.6140315869124606, 0.6323246486135758, 0.6488878344534896, 0.6642952666734345, 0.6821572247426957, 0.6989811890525743, 0.7137912884354591, 0.7323127019335516, 0.7486710880184546, 0.7642659120028839, 0.7823039979557507, 0.7990917809656821, 0.8138066484243609, 0.832115070137661, 0.8488089865422808, 0.8642894640215673, 0.8820654061855748, 0.8989791410858743, 0.9140742535237223, 0.9321604674332775, 0.9487294559367001, 0.9642341680591926, 0.9821101208217442, 0.9989101918181404, 1.0138046003994532, 1.032157395442482, 1.0487106826039962, 1.0642396293696947, 1.0821101207984611, 1.098971973056905]
6	蝌蚪	True	animate	inanimate	left	1.274	[0.0, 0.0, 1.0, 1.0, 1.0, 1.0, 1.0, 1.0, 1.0, 1.0, 1.0, 1.0, 1.0, 1.0, 1.0, 1.0, 1.0, 1.0, 1.0, 1.0, 1.0, 1.0, 1.0, 1.0, 1.0, 1.0, 1.0, 1.0, 1.0, 1.0, 1.0, 1.0, 1.0, 1.0, 1.0, 1.0, 1.0, 1.0, 1.0, 2.0, 0.0, -4.0, -9.0, -24.0, -54.0, -107.0, -175.0, -259.0, -302.0, -358.0, -435.0, -525.0, -627.0, -718.0, -771.0, -789.0, -795.0, -795.0, -795.0, -795.0, -795.0, -795.0, -795.0, -795.0, -795.0, -795.0, -795.0, -795.0, -795.0, -793.0, -786.0, -781.0, -776.0, -771.0, -769.0, -768.0]	[-490.0, -490.0, -491.0, -491.0, -491.0, -491.0, -491.0, -491.0, -491.0, -491.0, -491.0, -491.0, -491.0, -491.0, -491.0, -491.0, -491.0, -491.0, -491.0, -491.0, -491.0, -491.0, -491.0, -491.0, -491.0, -491.0, -491.0, -491.0, -491.0, -491.0, -491.0, -491.0, -491.0, -491.0, -491.0, -491.0, -491.0, -491.0, -491.0, -491.0, -486.0, -478.0, -471.0, -455.0, -423.0, -368.0, -310.0, -238.0, -200.0, -133.0, -44.0, 63.0, 169.0, 246.0, 287.0, 301.0, 307.0, 307.0, 307.0, 307.0, 307.0, 307.0, 307.0, 307.0, 307.0, 307.0, 312.0, 314.0, 318.0, 341.0, 390.0, 410.0, 426.0, 440.0, 448.0, 449.0]	[0.016623533563688397, 0.021448617393616587, 0.03146879019914195, 0.049881659797392786, 0.06641856307396665, 0.08167853933991864, 0.09954800677951425, 0.11649621633114293, 0.1315582194365561, 0.14971747860545292, 0.16618031257530674, 0.18185842188540846, 0.1996920492965728, 0.2164634483633563, 0.2317046513198875, 0.24975161196198314, 0.2662980724708177, 0.2817573872744106, 0.2996125187491998, 0.31650952831842005, 0.33150019287131727, 0.3497144066495821, 0.3663410804583691, 0.38169867801479995, 0.39964255603263155, 0.4164552563452162, 0.4315548061276786, 0.4497277186019346, 0.4662711071432568, 0.4817130140145309, 0.4996060333796777, 0.5164487709989771, 0.5314759581815451, 0.5497423959313892, 0.566306947148405, 0.5817181339953095, 0.5996514306752943, 0.6165003122878261, 0.6315005341893993, 0.6497741399216466, 0.6664236830547452, 0.6819256644812413, 0.6996015960467048, 0.7164108830620535, 0.7315756274620071, 0.7497133826254867, 0.7662458484992385, 0.7816758087137714, 0.7995838467613794, 0.8163859657361172, 0.8314660595497116, 0.8496843693428673, 0.8663298164610751, 0.8816764913499355, 0.8995090948301367, 0.9163354484480806, 0.931417248910293, 0.9495679747778922, 0.9661734859109856, 0.9817048219847493, 0.9995077294879593, 1.0163303284789436, 1.031493024842348, 1.0497509292908944, 1.0661516406107694, 1.0816584007116035, 1.0995145561173558, 1.1164119070745073, 1.1314312435570173, 1.1496423853677697, 1.1661796299158596, 1.1816768326680176, 1.199479398841504, 1.2163282804540358, 1.2315722141065635, 1.2496935853268951]
7	葡萄	False	inanimate	animate	right	1.126	[0.0, 0.0, 0.0, 0.0, 0.0, 0.0, 0.0, 0.0, 0.0, 0.0, 0.0, 0.0, 0.0, 0.0, 0.0, 0.0, 0.0, 0.0, 0.0, 0.0, 0.0, 0.0, 0.0, 0.0, 0.0, 0.0, 0.0, 0.0, -2.0, -12.0, -27.0, -57.0, -111.0, -176.0, -273.0, -316.0, -331.0, -362.0, -375.0, -380.0, -380.0, -380.0, -380.0, -384.0, -403.0, -451.0, -565.0, -639.0, -701.0, -735.0, -746.0, -748.0, -748.0, -746.0, -727.0, -678.0, -575.0, -440.0, -193.0, -23.0, 64.0, 309.0, 447.0, 578.0, 686.0, 760.0, 792.0, 797.0]	[-490.0, -490.0, -490.0, -490.0, -490.0, -490.0, -490.0, -490.0, -490.0, -490.0, -490.0, -490.0, -490.0, -490.0, -490.0, -490.0, -490.0, -490.0, -490.0, -490.0, -490.0, -490.0, -490.0, -490.0, -490.0, -490.0, -490.0, -490.0, -481.0, -464.0, -443.0, -409.0, -340.0, -245.0, -114.0, -63.0, -41.0, 5.0, 22.0, 32.0, 38.0, 43.0, 50.0, 66.0, 96.0, 144.0, 239.0, 296.0, 339.0, 360.0, 365.0, 365.0, 365.0, 367.0, 370.0, 371.0, 371.0, 371.0, 359.0, 359.0, 359.0, 359.0, 374.0, 387.0, 400.0, 413.0, 419.0, 421.0]	[0.0081828452530317, 0.013078243762720376, 0.017713546461891383, 0.03332714381394908, 0.04956538061378524, 0.06510149536188692, 0.08299895207164809, 0.09975123644107953, 0.11479446629527956, 0.13300492544658482, 0.14961999392835423, 0.16512504732236266, 0.18297266942681745, 0.20002635091077536, 0.21457362378714606, 0.23297557077603415, 0.24964047386310995, 0.26518682861933485, 0.2829750587698072, 0.29977035109186545, 0.31478013028390706, 0.33305988006759435, 0.34968621254665777, 0.3650690687354654, 0.38296140544116497, 0.399786735069938, 0.4148081195889972, 0.43304964003618807, 0.4497671084245667, 0.46505439141765237, 0.4829784721368924, 0.4997884417534806, 0.5148285995819606, 0.532988200080581, 0.5496046339394525, 0.5650264020659961, 0.5828665148583241, 0.599705497850664, 0.614850786223542, 0.6329663547803648, 0.6495670872973278, 0.6650960340630263, 0.6828876775107346, 0.6996833111625165, 0.7148825302137993, 0.7329567974666134, 0.7495059886714444, 0.765110028674826, 0.7828637842321768, 0.7997153964824975, 0.8146866050665267, 0.8330076560960151, 0.8495937112602405, 0.865017868753057, 0.8829433147911914, 0.8996676098904572, 0.914838156895712, 0.9330100454390049, 0.9495032579870895, 0.9650226474041119, 0.9829033788410015, 0.9997338284738362, 1.0145732825039886, 1.0330363280372694, 1.0496350125758909, 1.0649970474769361, 1.0828661735286005, 1.0997317804722115]
8	狐狸	True	inanimate	animate	right	1.3	[0.0, 0.0, 0.0, 0.0, 0.0, 0.0, 0.0, 0.0, 0.0, 0.0, 0.0, 0.0, 0.0, 0.0, 0.0, 0.0, 0.0, 0.0, 0.0, 0.0, 0.0, 0.0, 0.0, 0.0, 0.0, 0.0, 0.0, 0.0, 0.0, 0.0, 0.0, 0.0, 0.0, 0.0, 0.0, 0.0, 0.0, 0.0, 0.0, 0.0, 0.0, 0.0, 0.0, 0.0, 0.0, 0.0, 0.0, 0.0, 0.0, 0.0, 4.0, 8.0, 13.0, 19.0, 27.0, 34.0, 43.0, 46.0, 46.0, 22.0, 6.0, -27.0, -34.0, -34.0, -16.0, 33.0, 104.0, 200.0, 309.0, 423.0, 573.0, 620.0, 687.0, 749.0, 771.0, 785.0, 788.0, 788.0, 788.0]	[-490.0, -490.0, -490.0, -490.0, -490.0, -490.0, -490.0, -490.0, -490.0, -490.0, -490.0, -490.0, -490.0, -490.0, -490.0, -490.0, -490.0, -490.0, -490.0, -490.0, -490.0, -490.0, -490.0, -490.0, -490.0, -490.0, -490.0, -490.0, -490.0, -490.0, -490.0, -490.0, -490.0, -490.0, -490.0, -490.0, -490.0, -490.0, -490.0, -490.0, -490.0, -490.0, -490.0, -490.0, -490.0, -490.0, -490.0, -479.0, -475.0, -462.0, -450.0, -436.0, -420.0, -396.0, -370.0, -337.0, -276.0, -213.0, -164.0, -99.0, -77.0, -25.0, -2.0, 14.0, 35.0, 69.0, 106.0, 141.0, 178.0, 216.0, 264.0, 283.0, 314.0, 351.0, 369.0, 381.0, 385.0, 385.0, 385.0]	[0.012147087196353823, 0.017281760170590132, 0.02234065718948841, 0.04070778813911602, 0.05753243516664952, 0.07266543555306271, 0.09095883864210919, 0.10731108067557216, 0.12282466742908582, 0.1407886840752326, 0.15751263784477487, 0.17264700355008245, 0.1907680334406905, 0.20736125664552674, 0.22276288614375517, 0.24068491882644594, 0.25751058984315023, 0.2725483583053574, 0.29075847612693906, 0.30738651525462046, 0.3227424061624333, 0.3405296123237349, 0.35751024849014357, 0.3725538196740672, 0.3907676921226084, 0.407354429946281, 0.42273080081213266, 0.4408620707108639, 0.4574440298601985, 0.47263539826963097, 0.49075711076147854, 0.5073653525905684, 0.522743088833522, 0.5406924281851389, 0.5574764565099031, 0.5725029610330239, 0.5907745187869295, 0.6073619392700493, 0.6227110035251826, 0.6407292921212502, 0.6575095658190548, 0.6722698305384256, 0.6907291215029545, 0.7072315500699915, 0.72281374479644, 0.7405630629509687, 0.757448808522895, 0.7723735957988538, 0.7907339001540095, 0.8072199447196908, 0.8226918888976797, 0.8405910522560589, 0.8574665578780696, 0.872537094342988, 0.8907424334902316, 0.9073097153450362, 0.9227591314702295, 0.9404507643776014, 0.9576109417248517, 0.9724923797184601, 0.990669388207607, 1.0072803606744856, 1.022752646182198, 1.0406125562731177, 1.0574460778734647, 1.072552112978883, 1.0906666575465351, 1.1071892247418873, 1.1227161235292442, 1.140602657571435, 1.1573576726368628, 1.1725657663191669, 1.190715126809664, 1.207211070053745, 1.2227430888451636, 1.240616993571166, 1.2574191125459038, 1.2724780437420122, 1.290714785514865]
9	毛驴	True	inanimate	animate	right	1.371	[0.0, 0.0, 0.0, 0.0, 0.0, 0.0, 0.0, 0.0, 0.0, 0.0, 0.0, 0.0, 0.0, 0.0, 0.0, 0.0, 0.0, 0.0, 0.0, 0.0, 0.0, 0.0, 0.0, 0.0, 0.0, 0.0, 0.0, 0.0, 0.0, 0.0, 0.0, 0.0, -2.0, -17.0, -60.0, -99.0, -148.0, -212.0, -288.0, -369.0, -431.0, -484.0, -517.0, -530.0, -541.0, -549.0, -555.0, -556.0, -555.0, -532.0, -487.0, -393.0, -254.0, -78.0, 92.0, 257.0, 406.0, 524.0, 621.0, 633.0, 634.0, 634.0, 634.0, 634.0, 634.0, 634.0, 634.0, 634.0, 634.0, 634.0, 634.0, 634.0, 634.0, 634.0, 635.0, 660.0, 699.0, 753.0, 804.0, 842.0, 853.0, 857.0, 859.0]	[-490.0, -490.0, -490.0, -490.0, -490.0, -490.0, -490.0, -490.0, -490.0, -490.0, -490.0, -490.0, -490.0, -490.0, -490.0, -490.0, -490.0, -490.0, -490.0, -490.0, -490.0, -490.0, -490.0, -490.0, -490.0, -490.0, -490.0, -490.0, -490.0, -490.0, -490.0, -490.0, -488.0, -460.0, -397.0, -342.0, -269.0, -164.0, -63.0, 26.0, 96.0, 158.0, 207.0, 229.0, 249.0, 265.0, 279.0, 286.0, 289.0, 304.0, 318.0, 339.0, 370.0, 399.0, 423.0, 445.0, 466.0, 497.0, 529.0, 536.0, 536.0, 536.0, 536.0, 536.0, 536.0, 536.0, 536.0, 536.0, 536.0, 536.0, 536.0, 536.0, 536.0, 536.0, 537.0, 526.0, 504.0, 481.0, 461.0, 451.0, 450.0, 450.0, 449.0]	[6.608205148950219e-05, 0.005763954541180283, 0.015026026638224721, 0.03323750972049311, 0.050063522066920996, 0.06512108788592741, 0.08344794157892466, 0.09994900482706726, 0.11527417571051046, 0.1332487737527117, 0.15014134597731754, 0.16514156782068312, 0.18331550434231758, 0.1999104341957718, 0.21533015434397385, 0.23326345102395862, 0.2500672767055221, 0.2650784212164581, 0.28325201640836895, 0.29994559148326516, 0.31533015437889844, 0.3331446671509184, 0.35006318072555587, 0.3648480214178562, 0.3833783096051775, 0.3999684607842937, 0.4153349330299534, 0.43323853373294696, 0.45003007142804563, 0.46511903987266123, 0.4833120910334401, 0.5000138580799103, 0.5152543784352019, 0.5332829070393927, 0.550073420687113, 0.565076373226475, 0.5833595363073982, 0.5998909781919792, 0.6152980690239929, 0.6331712911487557, 0.6501041406881995, 0.6652395304408856, 0.6833520269719884, 0.699833634251263, 0.7152967037400231, 0.7331385231809691, 0.7499942314461805, 0.7649156053666957, 0.7832018404151313, 0.7996544343768619, 0.81529670371674, 0.833191771118436, 0.8499795541283675, 0.8649272106704302, 0.8832991203526035, 0.8998541142209433, 0.9153011410380714, 0.9329036860144697, 0.9500194900901988, 0.9651279145036824, 0.9832806883496232, 0.9997940395842306, 1.0152912423945963, 1.0331569551490247, 1.050153975316789, 1.0650849065859802, 1.0832922937115654, 1.0997537623043172, 1.115343807672616, 1.1331368164974265, 1.1500351913855411, 1.165126207866706, 1.1831632697721943, 1.1998575275647454, 1.2153369809966534, 1.2331985977943987, 1.250073079369031, 1.265100266551599, 1.2832120804232545, 1.2998199809226207, 1.3152977277059108, 1.3331770937656984, 1.350005836749915]
10	绵羊	True	animate	inanimate	left	0.801	[0.0, 0.0, 0.0, 0.0, 0.0, 0.0, 0.0, 0.0, 0.0, 0.0, 0.0, 0.0, 0.0, 0.0, 0.0, 0.0, 0.0, 0.0, 0.0, 0.0, -1.0, -9.0, -82.0, -154.0, -227.0, -298.0, -372.0, -440.0, -481.0, -503.0, -510.0, -515.0, -516.0, -516.0, -516.0, -516.0, -516.0, -518.0, -525.0, -543.0, -574.0, -617.0, -671.0, -732.0, -750.0, -756.0, -756.0, -756.0, -756.0]	[-490.0, -490.0, -490.0, -490.0, -490.0, -490.0, -490.0, -490.0, -490.0, -490.0, -490.0, -490.0, -490.0, -490.0, -490.0, -490.0, -490.0, -490.0, -490.0, -490.0, -487.0, -475.0, -367.0, -261.0, -127.0, 1.0, 124.0, 224.0, 291.0, 328.0, 346.0, 358.0, 361.0, 362.0, 362.0, 362.0, 362.0, 363.0, 371.0, 380.0, 387.0, 390.0, 390.0, 390.0, 390.0, 392.0, 392.0, 392.0, 392.0]	[0.008565820928197354, 0.012877198576461524, 0.017808095668442547, 0.03404394316021353, 0.050470595830120146, 0.06580191070679575, 0.08382907399209216, 0.1006233423249796, 0.11558977223467082, 0.13382037001429126, 0.1505180411040783, 0.16585379338357598, 0.18374783673789352, 0.200739054242149, 0.21558977226959541, 0.23388795397477224, 0.25022688403259963, 0.2658316066954285, 0.2837150687701069, 0.3005707770353183, 0.3156116175814532, 0.33384084998397157, 0.3503965265699662, 0.36581624671816826, 0.3838300980278291, 0.4004639398190193, 0.4155873829149641, 0.4337360607460141, 0.450340889277868, 0.46579952142201364, 0.483665234176442, 0.5005011451430619, 0.5156771534821019, 0.5338394846767187, 0.5501623720629141, 0.5658773453324102, 0.5836874208180234, 0.6006144676939584, 0.6156447268440388, 0.63377292471705, 0.650388334528543, 0.6658111267024651, 0.6835232396260835, 0.700480665138457, 0.7156638415181078, 0.733888977963943, 0.7503825318999588, 0.7658991906209849, 0.7836672821431421]
11	小鸡	True	animate	inanimate	left	1.65	[0.0, 0.0, 0.0, 0.0, 0.0, 0.0, 0.0, 0.0, 0.0, 0.0, 0.0, 0.0, 0.0, 0.0, 0.0, 0.0, 0.0, 0.0, 0.0, 0.0, 0.0, 0.0, 0.0, 0.0, 0.0, 0.0, 0.0, 0.0, 0.0, 0.0, 0.0, 0.0, 0.0, 0.0, 0.0, 0.0, 0.0, 0.0, 0.0, 0.0, 0.0, -13.0, -53.0, -150.0, -228.0, -315.0, -396.0, -467.0, -518.0, -546.0, -562.0, -570.0, -573.0, -575.0, -577.0, -583.0, -589.0, -596.0, -616.0, -627.0, -635.0, -637.0, -638.0, -641.0, -643.0, -647.0, -648.0, -652.0, -653.0, -654.0, -654.0, -656.0, -657.0, -658.0, -658.0, -658.0, -658.0, -658.0, -660.0, -662.0, -665.0, -666.0, -679.0, -690.0, -701.0, -704.0, -704.0, -704.0, -704.0, -704.0, -704.0, -704.0, -704.0, -704.0, -704.0, -704.0, -704.0, -704.0, -704.0, -704.0]	[-490.0, -490.0, -490.0, -490.0, -490.0, -490.0, -490.0, -490.0, -490.0, -490.0, -490.0, -490.0, -490.0, -490.0, -490.0, -490.0, -490.0, -490.0, -490.0, -490.0, -490.0, -490.0, -490.0, -490.0, -490.0, -490.0, -490.0, -490.0, -490.0, -490.0, -490.0, -490.0, -490.0, -490.0, -490.0, -490.0, -490.0, -490.0, -490.0, -490.0, -490.0, -468.0, -397.0, -215.0, -79.0, 58.0, 162.0, 243.0, 295.0, 328.0, 348.0, 361.0, 366.0, 370.0, 375.0, 382.0, 385.0, 386.0, 393.0, 396.0, 398.0, 398.0, 399.0, 400.0, 400.0, 400.0, 400.0, 400.0, 400.0, 400.0, 400.0, 399.0, 398.0, 397.0, 397.0, 397.0, 397.0, 397.0, 397.0, 395.0, 393.0, 393.0, 392.0, 392.0, 392.0, 392.0, 392.0, 392.0, 392.0, 392.0, 392.0, 392.0, 392.0, 392.0, 392.0, 392.0, 392.0, 392.0, 392.0, 392.0]	[0.014967180788516998, 0.01992845651693642, 0.02808802289655432, 0.046431260590907186, 0.06338390742894262, 0.0782148280995898, 0.09686492418404669, 0.11287310253828764, 0.12846178258769214, 0.14643774589058012, 0.16343101143138483, 0.17804757494013757, 0.196485020511318, 0.21292635053396225, 0.2284669025684707, 0.24642409256193787, 0.26319788093678653, 0.27799569233320653, 0.2965133512043394, 0.3130591290537268, 0.3285563318640925, 0.35014496406074613, 0.3631634063203819, 0.37798545230180025, 0.3964983324985951, 0.4131973689654842, 0.42850240122061223, 0.44644423126010224, 0.4632572729024105, 0.47830494004301727, 0.4967294149682857, 0.5129181584925391, 0.5284706572419964, 0.5462083701277152, 0.5632289422210306, 0.5782595427590422, 0.596468977862969, 0.6130639077164233, 0.6284983052173629, 0.6462329460773617, 0.6631982222897932, 0.6780025189509615, 0.6965014045126736, 0.7128778811893426, 0.7285017185495235, 0.7461325941840187, 0.7631797902868129, 0.7779912549885921, 0.796482972567901, 0.8130366010591388, 0.8284436919493601, 0.846109724836424, 0.8633040355052799, 0.8780752228922211, 0.8966485190903768, 0.9130908730439842, 0.9284945505787618, 0.9463029193575494, 0.9633723021252081, 0.9780052496353164, 0.9964188019512221, 1.0127611453062855, 1.0284477879176848, 1.0461599008413032, 1.0631296143401414, 1.0781042362214066, 1.0966488603735343, 1.1130055397516116, 1.1286235744482838, 1.1463350046542473, 1.1631053796736524, 1.1781298362184316, 1.1964420125586912, 1.2127652413328178, 1.2285095691913739, 1.246274588687811, 1.263425208744593, 1.2783998306258582, 1.2964068552828394, 1.3129942757659592, 1.3284628065885045, 1.3462844874011353, 1.3634221367537975, 1.3783045987365767, 1.3964338205987588, 1.41272769466741, 1.4285037665395066, 1.4463083806913346, 1.4634566113818437, 1.4782851427444257, 1.496794609585777, 1.5126949266996235, 1.5284494945663027, 1.5461209888453595, 1.5632695608655922, 1.5780137829715386, 1.5964693191926926, 1.6127703613019548, 1.6284747532336041, 1.6462824393529445]
12	狮子	True	inanimate	animate	right	1.085	[0.0, 0.0, 0.0, 0.0, 0.0, 0.0, 0.0, 0.0, 0.0, 0.0, 0.0, 0.0, 0.0, 0.0, 0.0, 0.0, 0.0, 0.0, 0.0, 0.0, 0.0, 0.0, 0.0, 2.0, 8.0, 8.0, 8.0, 8.0, 8.0, 8.0, 8.0, 8.0, 8.0, 8.0, 8.0, 8.0, 8.0, 11.0, 11.0, 7.0, -12.0, -32.0, -41.0, -42.0, -42.0, -42.0, -24.0, 44.0, 88.0, 232.0, 327.0, 409.0, 468.0, 524.0, 580.0, 633.0, 674.0, 694.0, 708.0, 709.0, 709.0, 709.0, 709.0, 709.0, 709.0]	[-490.0, -490.0, -490.0, -490.0, -490.0, -490.0, -490.0, -490.0, -490.0, -490.0, -490.0, -490.0, -490.0, -490.0, -490.0, -490.0, -490.0, -490.0, -490.0, -490.0, -490.0, -490.0, -495.0, -501.0, -512.0, -512.0, -512.0, -512.0, -512.0, -512.0, -512.0, -512.0, -512.0, -512.0, -512.0, -512.0, -512.0, -521.0, -526.0, -524.0, -510.0, -492.0, -475.0, -460.0, -437.0, -406.0, -341.0, -249.0, -199.0, -76.0, 13.0, 110.0, 194.0, 288.0, 357.0, 402.0, 430.0, 441.0, 449.0, 449.0, 449.0, 449.0, 449.0, 449.0, 449.0]	[0.006697363802231848, 0.012348473654128611, 0.02317897108150646, 0.04122047033160925, 0.058188135852105916, 0.07302178721874952, 0.091588256706018, 0.10784833884099498, 0.12342814420117065, 0.14122012903681025, 0.1581167972763069, 0.1730108645861037, 0.19160600600298494, 0.20794664276763797, 0.22357628273312002, 0.24121500900946558, 0.25813420524355024, 0.27300608588848263, 0.29152715811505914, 0.3078558481647633, 0.3235530721140094, 0.34184306184761226, 0.35794715472729877, 0.37552136910380796, 0.39149985142285004, 0.4078575548483059, 0.42334622429916635, 0.44116415042662993, 0.4582226105267182, 0.4730286138947122, 0.4913824328687042, 0.507832296192646, 0.5235032374621369, 0.5412218357087113, 0.5581212345859967, 0.5728869606391527, 0.5913749235332943, 0.6078459494747221, 0.623350320267491, 0.6411641503800638, 0.6581546852248721, 0.6728804753511213, 0.691350688925013, 0.7077790482435375, 0.7233513442915864, 0.741316384926904, 0.7580778853152879, 0.7728920806548558, 0.7913360116071999, 0.8079531280673109, 0.823716570623219, 0.8411050997674465, 0.8580359013285488, 0.872879792645108, 0.8913308915798552, 0.907830930838827, 0.9233806988922879, 0.9411931636859663, 0.9581116772606038, 0.972908464667853, 0.9912964169634506, 1.007679037633352, 1.0233677282813005, 1.0410057718399912, 1.0581458105589263]
13	钢琴	False	inanimate	animate	left	1.213	[0.0, 0.0, 0.0, 0.0, 0.0, 0.0, 0.0, 0.0, 0.0, 0.0, 0.0, 0.0, 0.0, 0.0, 0.0, 0.0, 0.0, 0.0, 0.0, 0.0, 0.0, 0.0, 0.0, 0.0, 0.0, 0.0, 0.0, 0.0, 1.0, -1.0, -1.0, -1.0, -1.0, -1.0, -1.0, -1.0, -1.0, -7.0, -8.0, -9.0, -10.0, -14.0, -24.0, -37.0, -48.0, -56.0, -65.0, -73.0, -81.0, -81.0, -81.0, -74.0, -56.0, -57.0, -70.0, -99.0, -161.0, -273.0, -394.0, -512.0, -617.0, -706.0, -811.0, -835.0, -866.0, -871.0, -873.0, -873.0, -873.0, -869.0, -865.0, -862.0, -859.0, -859.0]	[-490.0, -490.0, -490.0, -490.0, -490.0, -490.0, -490.0, -490.0, -490.0, -490.0, -490.0, -490.0, -490.0, -490.0, -490.0, -490.0, -490.0, -490.0, -490.0, -490.0, -490.0, -490.0, -490.0, -490.0, -490.0, -490.0, -490.0, -490.0, -493.0, -495.0, -498.0, -498.0, -498.0, -498.0, -499.0, -499.0, -499.0, -498.0, -497.0, -497.0, -494.0, -491.0, -487.0, -476.0, -464.0, -446.0, -428.0, -406.0, -371.0, -297.0, -276.0, -263.0, -208.0, -171.0, -139.0, -95.0, -43.0, 17.0, 67.0, 119.0, 161.0, 200.0, 254.0, 269.0, 302.0, 318.0, 335.0, 352.0, 368.0, 387.0, 401.0, 413.0, 420.0, 421.0]	[0.014340151974465698, 0.021475377900060266, 0.026914178568404168, 0.04549259471241385, 0.06175984482979402, 0.07737173553323373, 0.0952456402592361, 0.11207813792861998, 0.12715652503538877, 0.1453762001474388, 0.16193290066439658, 0.17733350623166189, 0.19507702172268182, 0.21206619124859571, 0.2270967917283997, 0.24533353350125253, 0.261951674008742, 0.2773396502016112, 0.29523403494386, 0.3121419671806507, 0.3271466263686307, 0.3453345575253479, 0.3620233539259061, 0.3773379435297102, 0.39526475488673896, 0.41208496456965804, 0.42713502107653767, 0.44530247221700847, 0.4619561113649979, 0.4773492075619288, 0.49527192290406674, 0.5120457112789154, 0.5271520877140574, 0.5453287548734806, 0.561945530003868, 0.5773089302238077, 0.5952545149484649, 0.6120074819773436, 0.6271083970787004, 0.6453430908732116, 0.6619653273373842, 0.6773280448978767, 0.6952418856089935, 0.7120559512404725, 0.7268267972976901, 0.7451888083014637, 0.7619107140344568, 0.7772846955922432, 0.7950422057765536, 0.8119607193511911, 0.8268919919501059, 0.8453355815145187, 0.8618885274045169, 0.877275820937939, 0.8951917096273974, 0.9120040686102584, 0.92684249865124, 0.9452226003049873, 0.9618011461570859, 0.9773164395592175, 0.9951579176704399, 1.0119596953154542, 1.0271077143843286, 1.0452488829032518, 1.0618683887296356, 1.077307906234637, 1.0951166164013557, 1.11202488996787, 1.1268578586168587, 1.1452683389070444, 1.1617963674943894, 1.1772901568911038, 1.1951483603334054, 1.2120057753054425]
14	黑猫	True	animate	inanimate	left	0.991	[0.0, 0.0, 0.0, 0.0, 0.0, 0.0, 0.0, 1.0, 1.0, 1.0, 1.0, 1.0, 1.0, 1.0, 1.0, 1.0, 1.0, 1.0, 1.0, 1.0, 1.0, 1.0, 1.0, 1.0, 1.0, 1.0, 1.0, 1.0, 1.0, 1.0, 1.0, 1.0, 1.0, 1.0, 1.0, 1.0, 1.0, 1.0, 1.0, 1.0, 1.0, 1.0, 1.0, 1.0, -33.0, -132.0, -262.0, -450.0, -509.0, -642.0, -683.0, -704.0, -710.0, -716.0, -722.0, -729.0, -737.0, -746.0, -746.0, -746.0]	[-490.0, -490.0, -490.0, -490.0, -490.0, -490.0, -490.0, -490.0, -490.0, -490.0, -490.0, -490.0, -490.0, -490.0, -490.0, -490.0, -490.0, -490.0, -490.0, -490.0, -490.0, -490.0, -490.0, -490.0, -490.0, -490.0, -490.0, -490.0, -490.0, -490.0, -490.0, -490.0, -490.0, -490.0, -490.0, -490.0, -490.0, -490.0, -490.0, -490.0, -490.0, -490.0, -490.0, -490.0, -462.0, -336.0, -163.0, 102.0, 189.0, 376.0, 438.0, 468.0, 485.0, 504.0, 524.0, 540.0, 540.0, 540.0, 540.0, 540.0]	[0.008135741227306426, 0.013241742213722318, 0.017827551637310535, 0.033186855842359364, 0.049454105959739536, 0.06499397539300844, 0.08281565620563924, 0.09969559911405668, 0.11458249838324264, 0.13286224816692993, 0.1495773271890357, 0.1649550634319894, 0.18289382144575939, 0.19975089508807287, 0.21471937297610566, 0.2329322214354761, 0.24964115652255714, 0.26494379941141233, 0.2829484347603284, 0.2996679511270486, 0.314710839651525, 0.33287590148393065, 0.34954797255340964, 0.3649441407760605, 0.38273476023459807, 0.39979697501985356, 0.4147920769173652, 0.4331284879008308, 0.44977495906641707, 0.4649605247541331, 0.48294092540163547, 0.4996682924684137, 0.5145736237755045, 0.5328939921455458, 0.5496012205258012, 0.5649489194038324, 0.5829644774203189, 0.5996495191357099, 0.6147552129114047, 0.6329830800532363, 0.6495824471930973, 0.6649728127522394, 0.6829330747714266, 0.699656345823314, 0.7145565571263433, 0.7329417787259445, 0.7494899459416047, 0.764921271475032, 0.7826740029850043, 0.7996017325203866, 0.8147524822852574, 0.8329929786850698, 0.8494404526427388, 0.8649571114219725, 0.8829084987519309, 0.8995993431890383, 0.9147176662809215, 0.9329431440564804, 0.949503940588329, 0.9649861247162335]
15	诗人	True	inanimate	animate	right	2.326	[0.0, 0.0, 0.0, 0.0, 0.0, 0.0, 0.0, 0.0, 0.0, 0.0, 0.0, 0.0, 0.0, 0.0, 0.0, 0.0, 0.0, 0.0, 0.0, 0.0, 0.0, 0.0, 0.0, 0.0, 0.0, 0.0, 0.0, 0.0, 0.0, 0.0, 0.0, 0.0, 0.0, 0.0, 0.0, 0.0, 0.0, 0.0, 0.0, 0.0, 0.0, 0.0, 0.0, 0.0, 0.0, 0.0, 0.0, 0.0, 0.0, -34.0, -96.0, -194.0, -310.0, -437.0, -559.0, -667.0, -758.0, -825.0, -868.0, -890.0, -900.0, -901.0, -901.0, -901.0, -900.0, -893.0, -884.0, -877.0, -871.0, -865.0, -862.0, -860.0, -859.0, -858.0, -856.0, -855.0, -853.0, -851.0, -849.0, -847.0, -845.0, -845.0, -845.0, -845.0, -845.0, -845.0, -845.0, -845.0, -845.0, -845.0, -845.0, -845.0, -845.0, -845.0, -845.0, -845.0, -845.0, -845.0, -845.0, -845.0, -844.0, -835.0, -806.0, -748.0, -654.0, -545.0, -365.0, -232.0, -166.0, 44.0, 173.0, 268.0, 341.0, 412.0, 472.0, 519.0, 547.0, 565.0, 576.0, 580.0, 580.0, 580.0, 580.0, 580.0, 583.0, 590.0, 598.0, 609.0, 621.0, 634.0, 649.0, 669.0, 694.0, 737.0, 763.0, 787.0, 812.0, 828.0, 838.0, 841.0]	[-490.0, -490.0, -490.0, -490.0, -490.0, -490.0, -490.0, -490.0, -490.0, -490.0, -490.0, -490.0, -490.0, -490.0, -490.0, -490.0, -490.0, -490.0, -490.0, -490.0, -490.0, -490.0, -490.0, -490.0, -490.0, -490.0, -490.0, -490.0, -490.0, -490.0, -490.0, -490.0, -490.0, -490.0, -490.0, -490.0, -490.0, -490.0, -490.0, -490.0, -490.0, -490.0, -490.0, -490.0, -490.0, -490.0, -490.0, -490.0, -490.0, -440.0, -346.0, -235.0, -130.0, -46.0, 39.0, 116.0, 187.0, 245.0, 281.0, 302.0, 317.0, 329.0, 335.0, 339.0, 341.0, 346.0, 351.0, 354.0, 356.0, 358.0, 359.0, 360.0, 361.0, 361.0, 363.0, 365.0, 367.0, 368.0, 370.0, 373.0, 375.0, 375.0, 375.0, 375.0, 375.0, 375.0, 375.0, 375.0, 375.0, 375.0, 375.0, 375.0, 375.0, 375.0, 375.0, 375.0, 375.0, 375.0, 375.0, 375.0, 376.0, 377.0, 381.0, 382.0, 394.0, 412.0, 436.0, 457.0, 465.0, 496.0, 515.0, 528.0, 537.0, 540.0, 540.0, 540.0, 540.0, 540.0, 540.0, 540.0, 540.0, 540.0, 540.0, 540.0, 540.0, 540.0, 540.0, 540.0, 540.0, 539.0, 538.0, 534.0, 531.0, 524.0, 522.0, 517.0, 514.0, 512.0, 511.0, 509.0]	[0.007025726197753102, 0.011365434504114091, 0.01599049725336954, 0.03125047357752919, 0.04756175563670695, 0.06293778517283499, 0.08070519403554499, 0.09779573942068964, 0.11269765737233683, 0.13087364187231287, 0.1476266089011915, 0.16301833977922797, 0.18087995651876554, 0.1976974355056882, 0.21283760393271223, 0.23103338573127985, 0.24759964359691367, 0.26295519317500293, 0.2808881485252641, 0.2976438462501392, 0.3127208680380136, 0.3308698871987872, 0.34757677430752665, 0.3628865852369927, 0.38095436710864305, 0.3977230354794301, 0.41272394004045054, 0.4309483938268386, 0.44737402244936675, 0.46292071853531525, 0.48086288990452886, 0.49764828354818746, 0.5127379346522503, 0.5309610231197439, 0.5475440063164569, 0.5629760144511238, 0.5808659618487582, 0.5976557928952388, 0.612729059997946, 0.6308709112345241, 0.6476088595809415, 0.6629060411942191, 0.6808748365147039, 0.6977093821624294, 0.7124952469021082, 0.7309135778341442, 0.7475781395914964, 0.7629046758520417, 0.7808905378333293, 0.7976742248865776, 0.8128345319419168, 0.8309845750918612, 0.8473866517888382, 0.8629678224679083, 0.8808867831830867, 0.8976213182322681, 0.9126850280445069, 0.9308459939202294, 0.9473784597939812, 0.962886243883986, 0.9807772152707912, 0.9975605609361082, 1.012509582855273, 1.0307538339984603, 1.0475334249786101, 1.0629545105039142, 1.0808891725027934, 1.0975315476534888, 1.1126846867264248, 1.1308934391709045, 1.1474409237271175, 1.1629551931400783, 1.1807659512851387, 1.1975742143113166, 1.2126956093707122, 1.2308490658761002, 1.2472613825812005, 1.2629425638588145, 1.2807297700201161, 1.2975424703327008, 1.3128266813000664, 1.3309204045217484, 1.3474003050941974, 1.3628517692559399, 1.3808048632345162, 1.3975967422593385, 1.4125317695434205, 1.4308005966013297, 1.447440923715476, 1.462855523917824, 1.4808226125896908, 1.497587184945587, 1.512710628041532, 1.5308289272361435, 1.5474904170259833, 1.5629695291281678, 1.5807516152854078, 1.5976008382858709, 1.6124471189104952, 1.6306473380536772, 1.647442971705459, 1.6629302758374251, 1.680579242121894, 1.6974789823871106, 1.7126652307342738, 1.7309009485179558, 1.7473835797864012, 1.762824462610297, 1.780779263295699, 1.7975667049759068, 1.8127154067042284, 1.8309227938298136, 1.8471593239810318, 1.8629295931896195, 1.8805853861267678, 1.8977332754875533, 1.9126648894161917, 1.930881833890453, 1.9474381930776872, 1.9628920465474948, 1.98062634607777, 1.9975690942956135, 2.0126164201064967, 2.0308767138631083, 2.0474108864436857, 2.062888291897252, 2.080489471554756, 2.09755817160476, 2.112665913417004, 2.1308490658993833, 2.147282886551693, 2.1629033105564304, 2.180767999321688, 2.1975540756247938, 2.212682980054524, 2.2310009591165, 2.2473852864350192, 2.2629265211871825, 2.2805973327485844, 2.2976783208432607]
16	镜子	False	animate	inanimate	right	1.005	[0.0, 0.0, 0.0, 0.0, 0.0, 0.0, 0.0, 0.0, 0.0, 0.0, 0.0, 0.0, 0.0, 0.0, 0.0, 0.0, 0.0, 0.0, 0.0, 0.0, 0.0, 0.0, 0.0, 0.0, 0.0, 0.0, 0.0, 0.0, 0.0, 0.0, 0.0, 0.0, 0.0, 0.0, 0.0, 0.0, 0.0, 0.0, 0.0, 0.0, 0.0, 0.0, 0.0, -6.0, -55.0, -97.0, -252.0, -314.0, -324.0, -259.0, -132.0, 35.0, 234.0, 405.0, 560.0, 670.0, 776.0, 791.0, 805.0, 806.0]	[-490.0, -490.0, -490.0, -490.0, -490.0, -490.0, -490.0, -490.0, -490.0, -490.0, -490.0, -490.0, -490.0, -490.0, -490.0, -490.0, -490.0, -490.0, -490.0, -490.0, -490.0, -490.0, -490.0, -490.0, -490.0, -490.0, -490.0, -490.0, -490.0, -490.0, -490.0, -490.0, -490.0, -490.0, -490.0, -490.0, -490.0, -490.0, -490.0, -490.0, -490.0, -490.0, -490.0, -487.0, -443.0, -398.0, -201.0, -74.0, 46.0, 149.0, 228.0, 278.0, 326.0, 361.0, 395.0, 421.0, 451.0, 457.0, 461.0, 461.0]	[0.008484924968797714, 0.012839310569688678, 0.017876362253446132, 0.03383846062934026, 0.05020708666415885, 0.06561315356520936, 0.08348159695742652, 0.10030180658213794, 0.11508425796637312, 0.13341486634453759, 0.15015827608294785, 0.16558687092037871, 0.18348193826386705, 0.2002625532913953, 0.21505831665126607, 0.23343261564150453, 0.2501558867515996, 0.2655779962078668, 0.283399335690774, 0.30024275596952066, 0.3153279697871767, 0.3336080608423799, 0.35002959350822493, 0.3656035962048918, 0.3834785249782726, 0.4003062439151108, 0.41533138311933726, 0.4335681248921901, 0.4501514494186267, 0.46558823622763157, 0.48329283978091553, 0.5002591399825178, 0.5153248977730982, 0.5335623222053982, 0.5501347240642644, 0.5655858468962833, 0.5834792076493613, 0.6002615293255076, 0.6153668817714788, 0.6335722208605148, 0.6501780733815394, 0.6655797028797679, 0.6834856929490343, 0.7002185213495977, 0.7153385510900989, 0.7335227275616489, 0.7500654334435239, 0.7655223589390516, 0.7833781730150804, 0.8002174973371439, 0.8150808446807787, 0.8334698209655471, 0.8500910334405489, 0.8654745723470114, 0.8833423330797814, 0.9001864360179752, 0.9153112444328144, 0.9335575435543433, 0.9500835241051391, 0.9655899428762496]
17	抽屉	False	animate	inanimate	right	0.884	[0.0, 0.0, 0.0, 0.0, 0.0, 0.0, 0.0, 0.0, 0.0, 0.0, 0.0, 0.0, 0.0, 0.0, 0.0, 0.0, 0.0, 0.0, 0.0, 0.0, 0.0, 0.0, 0.0, 0.0, 0.0, 0.0, 0.0, 0.0, 0.0, 0.0, 0.0, 0.0, 0.0, 0.0, 0.0, 0.0, 0.0, 0.0, 0.0, 0.0, 0.0, 3.0, 24.0, 86.0, 250.0, 312.0, 507.0, 632.0, 736.0, 814.0, 862.0, 886.0, 891.0, 891.0]	[-490.0, -490.0, -490.0, -490.0, -490.0, -490.0, -490.0, -490.0, -490.0, -490.0, -490.0, -490.0, -490.0, -490.0, -490.0, -490.0, -490.0, -490.0, -490.0, -490.0, -490.0, -490.0, -490.0, -490.0, -490.0, -490.0, -490.0, -490.0, -490.0, -490.0, -490.0, -490.0, -490.0, -490.0, -490.0, -490.0, -490.0, -490.0, -490.0, -490.0, -490.0, -486.0, -442.0, -345.0, -133.0, -61.0, 155.0, 283.0, 384.0, 455.0, 495.0, 513.0, 514.0, 514.0]	[0.01598435326013714, 0.0213446473935619, 0.030206677154637873, 0.048379248299170285, 0.06523051927797496, 0.08020650647813454, 0.09858899743994698, 0.1150996180367656, 0.13055347150657326, 0.14847413887036964, 0.1652056019520387, 0.1800767999375239, 0.19844051758991554, 0.21511258865939453, 0.23054391419282183, 0.2484468322363682, 0.2652561192517169, 0.28003208531299606, 0.2984149176045321, 0.31509927671868354, 0.33047871955204755, 0.34843317890772596, 0.365250316564925, 0.38029388774884865, 0.39851595216896385, 0.4149716181564145, 0.43053162621799856, 0.44844102958450094, 0.4652653352241032, 0.4803911676281132, 0.49854052817681804, 0.5151095166802406, 0.5305316261947155, 0.5484444429166615, 0.565254753921181, 0.5802525864564814, 0.5985326775116846, 0.6151361406664364, 0.6305439141578972, 0.6484594615758397, 0.6651793192722835, 0.6802529277629219, 0.6985190241830423, 0.7150504660676233, 0.730423423636239, 0.748355696327053, 0.7651257300167345, 0.7802795517491177, 0.7984405175666325, 0.8149890261120163, 0.8304947622236796, 0.8482171150972135, 0.8652124286163598, 0.8803140263771638]
18	野猪	True	animate	inanimate	left	0.862	[0.0, 0.0, 0.0, 0.0, 0.0, 0.0, 0.0, 0.0, 0.0, 0.0, 0.0, 0.0, 0.0, 0.0, 0.0, 0.0, 0.0, 0.0, 0.0, 0.0, 0.0, 0.0, 0.0, 0.0, 0.0, 0.0, 0.0, 0.0, 0.0, 0.0, 0.0, 0.0, 0.0, -18.0, -80.0, -172.0, -272.0, -430.0, -523.0, -561.0, -648.0, -677.0, -700.0, -718.0, -729.0, -734.0, -736.0, -736.0, -737.0, -739.0, -739.0, -739.0]	[-490.0, -490.0, -490.0, -490.0, -490.0, -490.0, -490.0, -490.0, -490.0, -490.0, -490.0, -490.0, -490.0, -490.0, -490.0, -490.0, -490.0, -490.0, -490.0, -490.0, -490.0, -490.0, -490.0, -490.0, -490.0, -490.0, -490.0, -490.0, -490.0, -490.0, -490.0, -490.0, -489.0, -457.0, -360.0, -199.0, -17.0, 207.0, 299.0, 327.0, 389.0, 409.0, 427.0, 442.0, 451.0, 457.0, 458.0, 458.0, 460.0, 462.0, 462.0, 462.0]	[0.015284961787983775, 0.02207783068297431, 0.02865565975662321, 0.0474026944139041, 0.06392662698635831, 0.07924087520223111, 0.09717724390793592, 0.11396502691786736, 0.12904682738007978, 0.14730063581373543, 0.16391160833882168, 0.1791999152628705, 0.1971673452644609, 0.21398892026627436, 0.22904307272983715, 0.2472303212271072, 0.2637750750873238, 0.27931938180699944, 0.29717929189791903, 0.3140199815388769, 0.3290229340782389, 0.34723509987816215, 0.36382115504238755, 0.3793101658229716, 0.3971796332625672, 0.41412545344792306, 0.42901474208338186, 0.4472159852157347, 0.46397407224867493, 0.4792712538619526, 0.49717280658660457, 0.5139626375748776, 0.5290133767412044, 0.5472272491897456, 0.5638928349944763, 0.5792180059361272, 0.5970734786824323, 0.6139271389693022, 0.6290096220909618, 0.6471876545692794, 0.6636477578431368, 0.6792521392344497, 0.6970857666456141, 0.7140001842635684, 0.7290085980785079, 0.747160347935278, 0.7637443551211618, 0.7793098245165311, 0.7970840600319207, 0.8139814109308645, 0.8290539953741245, 0.8472508012200706]
19	钉子	False	inanimate	animate	left	0.921	[0.0, 0.0, 0.0, 0.0, 0.0, 0.0, 0.0, 0.0, 0.0, 0.0, 0.0, 0.0, 0.0, 0.0, 0.0, 0.0, 0.0, 0.0, 0.0, 0.0, 0.0, 0.0, 0.0, 0.0, 0.0, 0.0, 0.0, 0.0, 0.0, 0.0, 0.0, 0.0, 0.0, 0.0, 0.0, 0.0, 0.0, 0.0, 0.0, 0.0, -4.0, -97.0, -145.0, -307.0, -412.0, -514.0, -596.0, -657.0, -694.0, -717.0, -736.0, -744.0, -749.0, -749.0, -749.0]	[-490.0, -490.0, -490.0, -490.0, -490.0, -490.0, -490.0, -490.0, -490.0, -490.0, -490.0, -490.0, -490.0, -490.0, -490.0, -490.0, -490.0, -490.0, -490.0, -490.0, -490.0, -490.0, -490.0, -490.0, -490.0, -490.0, -490.0, -490.0, -490.0, -490.0, -490.0, -490.0, -490.0, -490.0, -490.0, -490.0, -490.0, -490.0, -490.0, -490.0, -488.0, -350.0, -280.0, -58.0, 93.0, 222.0, 316.0, 388.0, 431.0, 464.0, 496.0, 516.0, 530.0, 534.0, 534.0]	[0.0002949800109490752, 0.005035754642449319, 0.015408865816425532, 0.03381422610254958, 0.05010912416037172, 0.06564080162206665, 0.08339797041844577, 0.10037314530927688, 0.11540579376742244, 0.13364219421055168, 0.1502081107464619, 0.16562612424604595, 0.18355088762473315, 0.2004113745642826, 0.2151788073242642, 0.23356539430096745, 0.25004119891673326, 0.26568073756061494, 0.28341230645310134, 0.30040898523293436, 0.3154232017695904, 0.3336486795451492, 0.35019002010812983, 0.3657148708589375, 0.3835809249430895, 0.40036051598144695, 0.41543685510987416, 0.4336084022652358, 0.4502221054281108, 0.4656558202696033, 0.4835747809847817, 0.5003823612933047, 0.5153819004772231, 0.5336800821823999, 0.5502046974143013, 0.5656138362828642, 0.583551911637187, 0.6003895292524248, 0.6154105724417605, 0.6336244448903017, 0.6502855933504179, 0.665666401560884, 0.683548498316668, 0.7004349265480414, 0.7154068177915178, 0.7335752929793671, 0.7501306281774305, 0.7657039482146502, 0.7834433677489869, 0.800226713414304, 0.8154351484263316, 0.8335295543074608, 0.8502654547337443, 0.8656370469252579, 0.8834682850283571]
20	花瓶	False	animate	inanimate	right	1.309	[0.0, 0.0, 0.0, 0.0, 0.0, 0.0, 0.0, 0.0, 0.0, 0.0, 0.0, 0.0, 0.0, 0.0, 0.0, 0.0, 0.0, 0.0, 0.0, 0.0, 0.0, 0.0, 0.0, 0.0, 0.0, 0.0, 0.0, 0.0, 0.0, 0.0, 0.0, 0.0, 0.0, 0.0, 0.0, 0.0, 0.0, -2.0, -45.0, -56.0, -74.0, -80.0, -90.0, -107.0, -134.0, -157.0, -167.0, -169.0, -170.0, -170.0, -153.0, -141.0, -101.0, -91.0, -89.0, -89.0, -86.0, -81.0, -72.0, -61.0, -45.0, -25.0, 52.0, 94.0, 211.0, 273.0, 312.0, 336.0, 361.0, 393.0, 469.0, 547.0, 631.0, 709.0, 777.0, 846.0, 924.0, 946.0, 948.0]	[-490.0, -490.0, -490.0, -490.0, -490.0, -490.0, -490.0, -490.0, -490.0, -490.0, -490.0, -490.0, -490.0, -490.0, -490.0, -490.0, -490.0, -490.0, -490.0, -490.0, -490.0, -490.0, -490.0, -490.0, -490.0, -490.0, -490.0, -490.0, -490.0, -490.0, -490.0, -490.0, -490.0, -490.0, -490.0, -490.0, -490.0, -476.0, -378.0, -350.0, -306.0, -290.0, -269.0, -229.0, -155.0, -66.0, 7.0, 65.0, 99.0, 125.0, 169.0, 190.0, 247.0, 268.0, 280.0, 287.0, 293.0, 301.0, 311.0, 319.0, 327.0, 335.0, 345.0, 350.0, 363.0, 363.0, 363.0, 363.0, 363.0, 363.0, 363.0, 363.0, 363.0, 370.0, 380.0, 391.0, 409.0, 416.0, 416.0]	[0.016327256511431187, 0.021172820357605815, 0.04037553461967036, 0.049219473788980395, 0.06552392919547856, 0.08108530257595703, 0.0989714952884242, 0.11585792357800528, 0.13082230545114726, 0.14905051392270252, 0.1656864036922343, 0.1810771105811, 0.19882438075728714, 0.21581593959126621, 0.230826401442755, 0.2490767965791747, 0.2657041530474089, 0.28107915859436616, 0.29901791660813615, 0.3158347129356116, 0.33061545761302114, 0.34893650870071724, 0.36549798789201304, 0.3810808652197011, 0.3990428338875063, 0.41582140093669295, 0.4308223054395057, 0.449008529947605, 0.465507545217406, 0.48105253459652886, 0.4991213405155577, 0.5157486969837919, 0.5307427748921327, 0.5489378740312532, 0.5656536357128061, 0.5810504865949042, 0.5988499807426706, 0.6157715662848204, 0.6308502947795205, 0.6490457352483645, 0.6656321317423135, 0.6810535585973412, 0.698975591280032, 0.7157469903468154, 0.7308687267359346, 0.7491757831303403, 0.7655345104867592, 0.7810839372687042, 0.7989165406906977, 0.8157377743627876, 0.830843809468206, 0.8489703006343916, 0.865305817394983, 0.8810358092887327, 0.8989882206078619, 0.9157370916800573, 0.9308847694192082, 0.9490453939069994, 0.965522222511936, 0.9810238626087084, 0.9989151753834449, 1.015694425033871, 1.0305953189963475, 1.04894231131766, 1.0656546597601846, 1.0810358093003742, 1.0989001566777006, 1.1156998863443732, 1.1308663374511525, 1.1490976178902201, 1.1655471398262307, 1.181033419969026, 1.198931900667958, 1.2157316303346306, 1.2305673296796158, 1.2490593885886483, 1.2657314596581273, 1.2810228386078961, 1.2990506845526397]
21	月亮	False	inanimate	animate	left	0.923	[0.0, 0.0, 0.0, 0.0, 0.0, 0.0, 0.0, 0.0, 0.0, 0.0, 0.0, 0.0, 0.0, 0.0, 0.0, 0.0, 0.0, 0.0, 0.0, 0.0, 0.0, 0.0, 0.0, 0.0, 0.0, 0.0, 0.0, 0.0, 0.0, 0.0, 0.0, 0.0, 0.0, 0.0, 0.0, 0.0, 0.0, 0.0, 0.0, 0.0, 0.0, -3.0, -46.0, -119.0, -219.0, -339.0, -462.0, -576.0, -660.0, -716.0, -728.0, -733.0, -740.0, -740.0, -740.0]	[-490.0, -490.0, -490.0, -490.0, -490.0, -490.0, -490.0, -490.0, -490.0, -490.0, -490.0, -490.0, -490.0, -490.0, -490.0, -490.0, -490.0, -490.0, -490.0, -490.0, -490.0, -490.0, -490.0, -490.0, -490.0, -490.0, -490.0, -490.0, -490.0, -490.0, -490.0, -490.0, -490.0, -490.0, -490.0, -490.0, -490.0, -490.0, -490.0, -490.0, -490.0, -489.0, -440.0, -345.0, -211.0, -44.0, 132.0, 284.0, 376.0, 439.0, 456.0, 463.0, 475.0, 475.0, 475.0]	[0.005219391779974103, 0.009562172112055123, 0.025893251469824463, 0.04366714565549046, 0.06065460847457871, 0.07554082514252514, 0.09376630291808397, 0.1103916114079766, 0.12573009432526305, 0.1437016202835366, 0.16052421927452087, 0.1755452624638565, 0.1937482122448273, 0.21027726482134312, 0.225857752840966, 0.2436954763252288, 0.26052012329455465, 0.27558997710002586, 0.2937314869486727, 0.3104486140073277, 0.325791192939505, 0.34374838293297216, 0.3605088592739776, 0.37558588112005964, 0.39377790823346004, 0.41040321672335267, 0.42582635022699833, 0.4437418975867331, 0.46052968059666455, 0.47561182238860056, 0.4937758602318354, 0.5103940007393248, 0.5258389795199037, 0.5438023135648109, 0.5604846246424131, 0.5755862224032171, 0.5938291081693023, 0.6103625980904326, 0.6257795876008458, 0.6436975243268535, 0.6605805392027833, 0.6755483344313689, 0.6937529909191653, 0.7102117288741283, 0.7258256675559096, 0.7435842017293908, 0.760437520686537, 0.7755732517689466, 0.7937663029297255, 0.8103380221291445, 0.8258086009300314, 0.8435848844237626, 0.8604463953524828, 0.8756913529941812, 0.8937953162239864]
22	工人	True	inanimate	animate	right	0.9	[0.0, 0.0, 0.0, 0.0, 0.0, 0.0, 0.0, 0.0, 0.0, 0.0, 0.0, 0.0, 0.0, 0.0, 0.0, 0.0, 0.0, 0.0, 0.0, 0.0, 0.0, 0.0, 0.0, 0.0, 0.0, 0.0, 0.0, 0.0, 0.0, 0.0, 0.0, 0.0, 0.0, 0.0, 0.0, 0.0, 0.0, 0.0, 0.0, 0.0, 0.0, 0.0, 2.0, 81.0, 196.0, 259.0, 481.0, 635.0, 768.0, 878.0, 956.0, 959.0, 959.0, 959.0, 959.0]	[-490.0, -490.0, -490.0, -490.0, -490.0, -490.0, -490.0, -490.0, -490.0, -490.0, -490.0, -490.0, -490.0, -490.0, -490.0, -490.0, -490.0, -490.0, -490.0, -490.0, -490.0, -490.0, -490.0, -490.0, -490.0, -490.0, -490.0, -490.0, -490.0, -490.0, -490.0, -490.0, -490.0, -490.0, -490.0, -490.0, -490.0, -490.0, -490.0, -490.0, -490.0, -490.0, -489.0, -400.0, -309.0, -259.0, -62.0, 116.0, 292.0, 429.0, 530.0, 540.0, 540.0, 540.0, 540.0]	[0.013637688593007624, 0.019097993266768754, 0.025336878607049584, 0.044130675902124494, 0.06054742989363149, 0.07597192871617153, 0.09395983873400837, 0.11068003776017576, 0.12575023295357823, 0.14398970536421984, 0.1606982991215773, 0.1759562274091877, 0.19374002021504566, 0.21068857109639794, 0.22577480890322477, 0.24398322001798078, 0.26057576056336984, 0.2759633954265155, 0.29394482006318867, 0.31071894976776093, 0.32583693152992055, 0.34396956668933854, 0.36059453384950757, 0.3759531553951092, 0.39391000411706045, 0.4109032695996575, 0.42572395026218146, 0.4439856093376875, 0.46058429387630895, 0.4759541794192046, 0.49380931083578616, 0.5106899364618585, 0.5257362382835709, 0.5439907293766737, 0.5604166993289255, 0.5759770487202331, 0.593882697459776, 0.6106913017574698, 0.6257201956468634, 0.643972638703417, 0.6606078458717093, 0.6759347234619781, 0.6938639241270721, 0.7106824271031655, 0.7258184995152988, 0.7438698974438012, 0.7604115793365054, 0.7760145953507163, 0.7938403721782379, 0.8106493178056553, 0.8257239502854645, 0.843928606773261, 0.860548795259092, 0.87594257411547, 0.8938987401197664]
23	信封	False	inanimate	animate	left	0.915	[0.0, 0.0, 0.0, 0.0, 0.0, 0.0, 0.0, 0.0, 0.0, 0.0, 0.0, 0.0, 0.0, 0.0, 0.0, 0.0, 0.0, 0.0, 0.0, 0.0, 0.0, 0.0, 0.0, 0.0, 0.0, 0.0, 0.0, 0.0, 0.0, 0.0, 0.0, 0.0, 0.0, 0.0, 0.0, 0.0, 0.0, 0.0, 0.0, 0.0, 0.0, 0.0, 0.0, -65.0, -218.0, -379.0, -533.0, -642.0, -701.0, -745.0, -774.0, -786.0, -792.0, -803.0, -807.0, -809.0]	[-490.0, -490.0, -490.0, -490.0, -490.0, -490.0, -490.0, -490.0, -490.0, -490.0, -490.0, -490.0, -490.0, -490.0, -490.0, -490.0, -490.0, -490.0, -490.0, -490.0, -490.0, -490.0, -490.0, -490.0, -490.0, -490.0, -490.0, -490.0, -490.0, -490.0, -490.0, -490.0, -490.0, -490.0, -490.0, -490.0, -490.0, -490.0, -490.0, -490.0, -490.0, -490.0, -489.0, -380.0, -156.0, 73.0, 245.0, 354.0, 420.0, 460.0, 484.0, 494.0, 500.0, 512.0, 516.0, 517.0]	[0.014021688257344067, 0.020029149774927646, 0.026493656274396926, 0.04492905386723578, 0.06137447984656319, 0.07673173607327044, 0.09467561409110203, 0.11140844249166548, 0.12630592309869826, 0.1446993367280811, 0.1613638984854333, 0.1768744132714346, 0.1946605954435654, 0.21148899709805846, 0.22658615751424804, 0.24492017918964848, 0.2613365918514319, 0.27680000266991556, 0.29466298478655517, 0.3114514504559338, 0.3265411015599966, 0.34482494730036706, 0.36138233047677204, 0.3768215066520497, 0.3946913154213689, 0.41153063968522474, 0.42652608291245997, 0.4447286913637072, 0.46136458119144663, 0.4767757680383511, 0.4946718594292179, 0.5114640797837637, 0.5265158429392613, 0.5447420033742674, 0.5612393119372427, 0.5768034160137177, 0.5947029207018204, 0.611454181082081, 0.6262926111230627, 0.6446378967957571, 0.6611522720195353, 0.6768194586620666, 0.694720670056995, 0.7114883143804036, 0.7262635977822356, 0.7445303768618032, 0.761090149404481, 0.7767535813618451, 0.794651038129814, 0.811355194542557, 0.8265090162749402, 0.8446590594248846, 0.8610191521584056, 0.8767587014008313, 0.8943663663230836, 0.911487631732598]
24	蝙蝠	True	animate	inanimate	left	1.734	[0.0, 0.0, 0.0, 0.0, 0.0, 0.0, 0.0, 0.0, 0.0, 0.0, 0.0, 0.0, 0.0, 0.0, 0.0, 0.0, 0.0, 0.0, 0.0, 0.0, 0.0, 0.0, 0.0, 0.0, 0.0, 0.0, 0.0, 0.0, 0.0, 0.0, 0.0, 0.0, 0.0, 0.0, 0.0, 0.0, 0.0, 0.0, 0.0, 0.0, -2.0, -15.0, -59.0, -203.0, -342.0, -494.0, -649.0, -800.0, -928.0, -960.0, -960.0, -960.0, -960.0, -960.0, -960.0, -960.0, -960.0, -960.0, -960.0, -960.0, -960.0, -960.0, -960.0, -960.0, -955.0, -943.0, -912.0, -850.0, -674.0, -617.0, -452.0, -344.0, -222.0, -110.0, -30.0, 17.0, 36.0, 38.0, 38.0, -35.0, -190.0, -288.0, -558.0, -648.0, -677.0, -698.0, -713.0, -717.0, -717.0, -717.0, -717.0, -717.0, -717.0, -717.0, -717.0, -717.0, -718.0, -718.0, -726.0, -729.0, -734.0, -735.0, -735.0, -735.0]	[-490.0, -490.0, -490.0, -490.0, -490.0, -490.0, -490.0, -490.0, -490.0, -490.0, -490.0, -490.0, -490.0, -490.0, -490.0, -490.0, -490.0, -490.0, -490.0, -490.0, -490.0, -490.0, -490.0, -490.0, -490.0, -490.0, -490.0, -490.0, -490.0, -490.0, -490.0, -490.0, -490.0, -490.0, -490.0, -490.0, -490.0, -490.0, -490.0, -490.0, -487.0, -466.0, -415.0, -294.0, -172.0, -25.0, 132.0, 270.0, 370.0, 431.0, 474.0, 496.0, 510.0, 514.0, 514.0, 514.0, 514.0, 514.0, 514.0, 514.0, 514.0, 514.0, 514.0, 514.0, 515.0, 512.0, 493.0, 457.0, 334.0, 291.0, 174.0, 79.0, -39.0, -151.0, -237.0, -281.0, -297.0, -298.0, -298.0, -209.0, -54.0, 30.0, 213.0, 260.0, 275.0, 292.0, 304.0, 307.0, 307.0, 307.0, 307.0, 307.0, 307.0, 307.0, 307.0, 307.0, 310.0, 327.0, 348.0, 371.0, 394.0, 411.0, 426.0, 428.0]	[0.016196184617001563, 0.02056456491118297, 0.030545143061317503, 0.04923824709840119, 0.06550481455633417, 0.08092112140730023, 0.0988974260399118, 0.11566814238904044, 0.13072400155942887, 0.14891500468365848, 0.16539183328859508, 0.18095798534341156, 0.198813799477648, 0.21576815302250907, 0.23069874290376902, 0.24890066869556904, 0.2655962918070145, 0.28092146274866536, 0.2988025354570709, 0.3156435664277524, 0.3306512976414524, 0.348956988658756, 0.36550140124745667, 0.3809088334091939, 0.3988206261419691, 0.41574835567735136, 0.4306707535870373, 0.44886448740726337, 0.46539592929184437, 0.48092624137643725, 0.49881277547683567, 0.5156408357433975, 0.5306673402665183, 0.548858002119232, 0.5654502012766898, 0.5809003000613302, 0.5989144927007146, 0.6157121743890457, 0.6305209083948284, 0.6489214900648221, 0.6655652304762043, 0.680896204081364, 0.6988004875020124, 0.7156401530955918, 0.7305714256945066, 0.7488870153902099, 0.7653102547046728, 0.7809125880594365, 0.7987731808098033, 0.8155886118183844, 0.8304342098417692, 0.8488289887900464, 0.8653054760652594, 0.8808805027510971, 0.8985854476341046, 0.915675993077457, 0.9305321723804809, 0.9487255648709834, 0.9652826067176647, 0.9808999587548897, 0.9986653195810504, 1.0158654329134151, 1.0307260495610535, 1.0488562954124063, 1.0654713638941757, 1.0808562681195326, 1.098730172845535, 1.1155305851716548, 1.130696353618987, 1.1488204554771073, 1.1654085586196743, 1.1808835747651756, 1.1988291594316252, 1.2158691875520162, 1.2306086309836246, 1.248847079463303, 1.2654986705747433, 1.2808562681311741, 1.2988127754651941, 1.3155449212063104, 1.3307236602413468, 1.3488385461387224, 1.3652006867923774, 1.3808552441187203, 1.3985048930626363, 1.4155230758478865, 1.4306874789181165, 1.4488532234099694, 1.4654276733053848, 1.480878796079196, 1.4985618956852704, 1.5156360571272671, 1.5306946469354443, 1.548817724804394, 1.5652085374458693, 1.5809183907113038, 1.5987561141955666, 1.6156486864201725, 1.6306489083217457, 1.6487928074784577, 1.665330393356271, 1.6808497827732936, 1.6987230048980564, 1.7157674703048542]
25	青蛙	True	animate	inanimate	left	0.9	[0.0, 0.0, 0.0, 0.0, 0.0, 0.0, 0.0, 0.0, 0.0, 0.0, 0.0, 0.0, 0.0, 0.0, 0.0, 0.0, 0.0, 0.0, 0.0, 0.0, 0.0, 0.0, 0.0, 0.0, 0.0, 0.0, 0.0, 0.0, 0.0, 0.0, 0.0, 0.0, 0.0, 0.0, 0.0, 0.0, 0.0, -9.0, -46.0, -110.0, -255.0, -307.0, -403.0, -523.0, -582.0, -618.0, -639.0, -654.0, -668.0, -681.0, -688.0, -693.0, -699.0, -714.0, -718.0]	[-490.0, -490.0, -490.0, -490.0, -490.0, -490.0, -490.0, -490.0, -490.0, -490.0, -490.0, -490.0, -490.0, -490.0, -490.0, -490.0, -490.0, -490.0, -490.0, -490.0, -490.0, -490.0, -490.0, -490.0, -490.0, -490.0, -490.0, -490.0, -490.0, -490.0, -490.0, -490.0, -490.0, -490.0, -490.0, -490.0, -490.0, -474.0, -409.0, -297.0, -61.0, 17.0, 158.0, 311.0, 374.0, 406.0, 424.0, 440.0, 452.0, 461.0, 466.0, 469.0, 470.0, 474.0, 474.0]	[0.013897443015594035, 0.019645832770038396, 0.026250285794958472, 0.04467817407567054, 0.06114612804958597, 0.07648904825327918, 0.09442507562926039, 0.11125586659181863, 0.12631274975137785, 0.1445068249013275, 0.16114373871823773, 0.17649177892599255, 0.19443190231686458, 0.21128556260373443, 0.22631445643492043, 0.24448190757539123, 0.26115090667735785, 0.27651669626357034, 0.2944404355948791, 0.3112773706088774, 0.3262990964576602, 0.3444904409116134, 0.36111540807178244, 0.37652522954158485, 0.39426703844219446, 0.4112473332788795, 0.42629226978169754, 0.4445174062275328, 0.46122531726723537, 0.47648734162794426, 0.49436704901745543, 0.5112978505785577, 0.5262687177746557, 0.5445873794960789, 0.5611119947279803, 0.5764928029384464, 0.5944554542656988, 0.6112527946243063, 0.626231171132531, 0.6445013635675423, 0.6610191521467641, 0.6764409203315154, 0.6942759130615741, 0.7112418719334528, 0.7262547231512144, 0.744471667567268, 0.7610362187842838, 0.7764702749554999, 0.7943434970220551, 0.811122746730689, 0.8262414111522958, 0.8443894063238986, 0.8609061709139496, 0.8764398962957785, 0.8940970545518212]
26	教室	False	inanimate	animate	left	1.39	[0.0, 0.0, 0.0, 0.0, 0.0, 0.0, 0.0, 0.0, 0.0, 0.0, 0.0, 0.0, 0.0, 0.0, 0.0, 0.0, 0.0, 0.0, 0.0, 0.0, 0.0, 0.0, 0.0, 0.0, 0.0, 0.0, 0.0, 0.0, 0.0, 0.0, 0.0, 0.0, 0.0, 0.0, 0.0, 0.0, 0.0, 0.0, 0.0, 0.0, 0.0, 0.0, 0.0, 0.0, 0.0, 0.0, 0.0, 0.0, 0.0, 0.0, 0.0, 0.0, 0.0, 0.0, 0.0, 0.0, 0.0, 0.0, 0.0, 0.0, 0.0, 0.0, 0.0, 0.0, 0.0, 0.0, 0.0, 0.0, 0.0, 0.0, -18.0, -64.0, -161.0, -291.0, -451.0, -620.0, -768.0, -874.0, -913.0, -917.0, -917.0, -914.0, -910.0, -907.0]	[-490.0, -490.0, -490.0, -490.0, -490.0, -490.0, -490.0, -490.0, -490.0, -490.0, -490.0, -490.0, -490.0, -490.0, -490.0, -490.0, -490.0, -490.0, -490.0, -490.0, -490.0, -490.0, -490.0, -490.0, -490.0, -490.0, -490.0, -490.0, -490.0, -490.0, -490.0, -490.0, -490.0, -490.0, -490.0, -490.0, -490.0, -490.0, -490.0, -490.0, -490.0, -490.0, -490.0, -490.0, -490.0, -490.0, -490.0, -490.0, -490.0, -490.0, -490.0, -490.0, -490.0, -490.0, -490.0, -490.0, -490.0, -490.0, -490.0, -490.0, -490.0, -490.0, -490.0, -490.0, -490.0, -490.0, -490.0, -490.0, -490.0, -490.0, -474.0, -423.0, -312.0, -144.0, 39.0, 217.0, 359.0, 456.0, 502.0, 519.0, 533.0, 538.0, 540.0, 540.0]	[0.008616338251158595, 0.013078585092443973, 0.01769170118495822, 0.034139516472350806, 0.05050233984366059, 0.06588553736219183, 0.08384409273276106, 0.10064621170749888, 0.11547098838491365, 0.13377804477931932, 0.15055046777706593, 0.16588417202001438, 0.183826343389228, 0.20061412639915943, 0.21543071110500023, 0.2340145885827951, 0.2505712890997529, 0.265955169335939, 0.28394956461852416, 0.30061378510436043, 0.3155402790289372, 0.33383265807060525, 0.35049039317527786, 0.3658671053708531, 0.38381746876984835, 0.400647918402683, 0.41564267891226336, 0.43399752193363383, 0.45047366787912324, 0.46588758536381647, 0.4838423860492185, 0.5005936464294791, 0.5156652068835683, 0.5339975219103508, 0.5503934546140954, 0.5659203533432446, 0.5839103113394231, 0.6006328997318633, 0.6154419750673696, 0.6339924019412138, 0.650500291842036, 0.6658609614241868, 0.6837785567622632, 0.7006301690707915, 0.7156983162276447, 0.7339794312720187, 0.7505293051362969, 0.7658783693914302, 0.7838754953700118, 0.800604569085408, 0.8157153828651644, 0.8339388126623817, 0.8503388413228095, 0.8659234253573231, 0.8839051913237199, 0.900636654405389, 0.9156836388865486, 0.934072615171317, 0.9504931238479912, 0.9658725667395629, 0.9838451167452149, 1.0005902330740355, 1.0156812495552003, 1.0339825032860972, 1.0505047291517258, 1.065924790687859, 1.0838884660042822, 1.1006561103858985, 1.1154440231039189, 1.1337927220738493, 1.1506238544243388, 1.1658599373768084, 1.18382156471489, 1.2005984251154587, 1.2158150520990603, 1.2338732766802423, 1.2503876519622281, 1.2659203533548862, 1.283730770170223, 1.3006049104151316, 1.3156959268962964, 1.3339760179514997, 1.3503927719430067, 1.3658773453789763]
27	毛巾	False	animate	inanimate	right	1.14	[0.0, 1.0, 1.0, 2.0, 2.0, 2.0, 2.0, 2.0, 2.0, 2.0, 2.0, 2.0, 2.0, 2.0, 2.0, 2.0, 2.0, 2.0, 2.0, 2.0, 2.0, 2.0, 2.0, 2.0, 2.0, 2.0, 2.0, 2.0, 2.0, 2.0, 2.0, 2.0, 2.0, 2.0, 2.0, 2.0, 2.0, 2.0, 2.0, 2.0, 2.0, 2.0, 2.0, -7.0, -77.0, -179.0, -303.0, -442.0, -574.0, -692.0, -771.0, -797.0, -801.0, -801.0, -800.0, -762.0, -645.0, -459.0, -232.0, 11.0, 253.0, 490.0, 710.0, 883.0, 959.0, 959.0, 959.0, 959.0, 959.0]	[-490.0, -490.0, -490.0, -490.0, -490.0, -490.0, -490.0, -490.0, -490.0, -490.0, -490.0, -490.0, -490.0, -490.0, -490.0, -490.0, -490.0, -490.0, -490.0, -490.0, -490.0, -490.0, -490.0, -490.0, -490.0, -490.0, -490.0, -490.0, -490.0, -490.0, -490.0, -490.0, -490.0, -490.0, -490.0, -490.0, -490.0, -490.0, -490.0, -490.0, -490.0, -490.0, -490.0, -462.0, -365.0, -231.0, -56.0, 121.0, 264.0, 363.0, 418.0, 433.0, 436.0, 436.0, 437.0, 440.0, 435.0, 417.0, 406.0, 403.0, 403.0, 403.0, 420.0, 442.0, 494.0, 518.0, 525.0, 532.0, 532.0]	[0.0002031613839790225, 0.0048128641210496426, 0.015301004517823458, 0.03366847679717466, 0.05009683611569926, 0.06556263624224812, 0.08344507432775572, 0.10033081995788962, 0.11524809786351398, 0.13349951698910445, 0.14995245228055865, 0.16553191631101072, 0.1834334690356627, 0.20018780138343573, 0.21525458322139457, 0.23348825296852738, 0.2500978601165116, 0.26549061498371884, 0.28341571969212964, 0.3002229586709291, 0.3152859858237207, 0.33351351163582876, 0.35011151345679536, 0.365541132283397, 0.3833481357432902, 0.4003472039476037, 0.41530066315317526, 0.4335510582313873, 0.4500159401795827, 0.4655609296169132, 0.4834095757105388, 0.5001929213758558, 0.515283596527297, 0.5335592502378859, 0.5500889854738489, 0.5654796923627146, 0.5833071757806465, 0.6002045266795903, 0.6152504872297868, 0.633485522295814, 0.6502422440098599, 0.6654861776623875, 0.6834047970478423, 0.7001557160983793, 0.7150340820662677, 0.7333844877430238, 0.7500108202220872, 0.7655097296228632, 0.7832819171599112, 0.8001212414237671, 0.8152235219022259, 0.8334179383818991, 0.8499493802664801, 0.865479692351073, 0.8833023971528746, 0.9001263614627533, 0.915296908468008, 0.9334135010140017, 0.9497374124475755, 0.9655414736480452, 0.9832819171715528, 1.0000959828030318, 1.0152713085408323, 1.0335240929271095, 1.050045977521222, 1.0654411216964945, 1.0834164023399353, 1.1002243240363896, 1.1152586792013608]
28	石头	False	animate	inanimate	right	1.599	[0.0, 0.0, 0.0, 0.0, 0.0, 0.0, 0.0, 0.0, 0.0, 0.0, 0.0, 0.0, 0.0, 0.0, 0.0, 0.0, 0.0, 0.0, 0.0, 0.0, 0.0, 0.0, 0.0, 0.0, 0.0, 0.0, 0.0, 0.0, 0.0, 0.0, 0.0, 0.0, 0.0, 0.0, 0.0, 0.0, 0.0, 0.0, 0.0, 0.0, 0.0, 0.0, 0.0, 0.0, 0.0, 0.0, 0.0, 0.0, 0.0, 0.0, 0.0, 0.0, 0.0, 0.0, 0.0, 0.0, 0.0, 0.0, 0.0, 0.0, 0.0, 0.0, 0.0, 0.0, 0.0, 0.0, 0.0, 0.0, 0.0, 0.0, 0.0, 0.0, 0.0, 0.0, 0.0, 0.0, 0.0, 0.0, 0.0, 0.0, 0.0, 0.0, 0.0, 0.0, 0.0, 40.0, 156.0, 301.0, 532.0, 679.0, 791.0, 839.0, 867.0, 881.0, 885.0, 885.0, 885.0]	[-490.0, -490.0, -490.0, -490.0, -490.0, -490.0, -490.0, -490.0, -490.0, -490.0, -490.0, -490.0, -490.0, -490.0, -490.0, -490.0, -490.0, -490.0, -490.0, -490.0, -490.0, -490.0, -490.0, -490.0, -490.0, -490.0, -490.0, -490.0, -490.0, -490.0, -490.0, -490.0, -490.0, -490.0, -490.0, -490.0, -490.0, -490.0, -490.0, -490.0, -490.0, -490.0, -490.0, -490.0, -490.0, -490.0, -490.0, -490.0, -490.0, -490.0, -490.0, -490.0, -490.0, -490.0, -490.0, -490.0, -490.0, -490.0, -490.0, -490.0, -490.0, -490.0, -490.0, -490.0, -490.0, -490.0, -490.0, -490.0, -490.0, -490.0, -490.0, -490.0, -490.0, -490.0, -490.0, -490.0, -490.0, -490.0, -490.0, -490.0, -490.0, -490.0, -490.0, -490.0, -490.0, -471.0, -415.0, -304.0, -18.0, 190.0, 362.0, 450.0, 482.0, 495.0, 497.0, 497.0, 497.0]	[0.014695138379465789, 0.019375155679881573, 0.0275139007717371, 0.045847922447137535, 0.06267291074618697, 0.07781103119486943, 0.09596585301915184, 0.11248432425782084, 0.1278886844520457, 0.1458567971130833, 0.1626602814067155, 0.17767620459198952, 0.19587471708655357, 0.2125136788818054, 0.22790779906790704, 0.24591072770999745, 0.2626855400740169, 0.2777239912538789, 0.2959289890131913, 0.31256010016659275, 0.3279525137040764, 0.3459032183745876, 0.3627114814007655, 0.3776792766293511, 0.3959395703859627, 0.4124952469137497, 0.4279409084119834, 0.44583904778119177, 0.4627060200436972, 0.47768815129529685, 0.4959310370613821, 0.512423908279743, 0.5279354470549151, 0.5458595277741551, 0.562635705457069, 0.5776577726355754, 0.5958672077395022, 0.6124856895767152, 0.6279473936883733, 0.6458311971509829, 0.6626370707526803, 0.6776779112988152, 0.6959784823120572, 0.7125744361546822, 0.7279265723773278, 0.745820615789853, 0.7626722280983813, 0.7776874686242081, 0.7959057784173638, 0.8126048148260452, 0.8279405670473352, 0.8458380237570964, 0.8626302441116422, 0.8776574312942103, 0.8959361570305191, 0.9125785321812145, 0.9279648017254658, 0.9458038904704154, 0.9626223934465088, 0.9776434366358444, 0.9958675490925089, 1.0126048148376867, 1.027900972403586, 1.045823346474208, 1.0626544787664898, 1.0776669885963202, 1.0958747171098366, 1.1124355136416852, 1.1278791271033697, 1.1458322211401537, 1.1626476520905271, 1.1774283968261443, 1.1958170317811891, 1.2122982977307402, 1.2279211110435426, 1.2458387064398266, 1.2626415081322193, 1.277658455306664, 1.2959385463618673, 1.3125628308625892, 1.3292465072590858, 1.3459295010543428, 1.3626592574291863, 1.3777065832400694, 1.3958962210454047, 1.4123750976868905, 1.4278869777917862, 1.4458684024284594, 1.4626039614668116, 1.477729452541098, 1.4959047543816268, 1.5124478015932254, 1.5279180390643887, 1.5458803490619175, 1.5626602814299986, 1.5776901992503554, 1.5959368397016078]
29	电脑	False	inanimate	animate	left	0.902	[0.0, 0.0, 0.0, 0.0, 0.0, 0.0, 0.0, 0.0, 0.0, 0.0, 0.0, 0.0, 0.0, 0.0, 0.0, 0.0, 0.0, 0.0, 0.0, 0.0, 0.0, 0.0, 0.0, 0.0, 0.0, 0.0, 0.0, 0.0, 0.0, 0.0, 0.0, 0.0, 0.0, 0.0, 0.0, 0.0, 0.0, 0.0, 0.0, 0.0, 0.0, -8.0, -22.0, -130.0, -254.0, -397.0, -541.0, -664.0, -758.0, -819.0, -850.0, -864.0, -869.0, -869.0, -869.0]	[-490.0, -490.0, -490.0, -490.0, -490.0, -490.0, -490.0, -490.0, -490.0, -490.0, -490.0, -490.0, -490.0, -490.0, -490.0, -490.0, -490.0, -490.0, -490.0, -490.0, -490.0, -490.0, -490.0, -490.0, -490.0, -490.0, -490.0, -490.0, -490.0, -490.0, -490.0, -490.0, -490.0, -490.0, -490.0, -490.0, -490.0, -490.0, -490.0, -490.0, -490.0, -487.0, -468.0, -323.0, -161.0, 21.0, 191.0, 318.0, 400.0, 444.0, 467.0, 478.0, 483.0, 483.0, 483.0]	[0.008398226404096931, 0.012714382726699114, 0.017496799933724105, 0.034002983185928315, 0.05020913470070809, 0.06568517483538017, 0.08346282364800572, 0.10038918786449358, 0.11551058298209682, 0.13371114345500246, 0.15025419066660106, 0.1656790308188647, 0.18359082355163991, 0.20040898519800976, 0.2154832763480954, 0.23379750072490424, 0.25012311880709603, 0.2656930254888721, 0.2836232502013445, 0.30039123591268435, 0.31547644967213273, 0.3337179701193236, 0.3502562386565842, 0.36565411352785304, 0.38366864749696106, 0.40036939055426046, 0.4154901030124165, 0.43369066348532215, 0.45023917203070596, 0.46573262015590444, 0.4836109622265212, 0.5004318545106798, 0.5153743911068887, 0.5336145462351851, 0.5502750119776465, 0.5658500387216918, 0.5834744289750233, 0.6004359505022876, 0.6154986363253556, 0.6336705248104408, 0.6502917372854427, 0.6655899429460987, 0.683739303436596, 0.7004383398452774, 0.715541644312907, 0.7336008928832598, 0.7501688573975116, 0.7656616228632629, 0.7835174369392917, 0.8003229692694731, 0.8154208124033175, 0.8336080609005876, 0.850132676132489, 0.8656858574831858, 0.8834536076756194]
30	楼梯	False	animate	inanimate	right	1.567	[0.0, 1.0, 1.0, 1.0, 1.0, 1.0, 1.0, 1.0, 1.0, 1.0, 1.0, 1.0, 1.0, 1.0, 1.0, 1.0, 1.0, 1.0, 1.0, 1.0, 1.0, 1.0, 1.0, 1.0, 1.0, 1.0, 1.0, 1.0, 1.0, 1.0, 1.0, 1.0, 1.0, 1.0, 1.0, 1.0, 1.0, 1.0, 1.0, 1.0, 1.0, 1.0, 1.0, 1.0, 1.0, 1.0, 1.0, 1.0, 1.0, 1.0, 1.0, 1.0, 1.0, 1.0, 1.0, 1.0, 1.0, 1.0, 1.0, 1.0, 1.0, 1.0, 1.0, 1.0, 1.0, 1.0, 1.0, 1.0, 1.0, 1.0, 1.0, 1.0, 1.0, 1.0, 1.0, 1.0, 1.0, 1.0, 1.0, 1.0, 1.0, 1.0, 1.0, 18.0, 85.0, 256.0, 392.0, 472.0, 670.0, 772.0, 835.0, 874.0, 893.0, 899.0, 899.0]	[-490.0, -490.0, -490.0, -490.0, -490.0, -490.0, -490.0, -490.0, -490.0, -490.0, -490.0, -490.0, -490.0, -490.0, -490.0, -490.0, -490.0, -490.0, -490.0, -490.0, -490.0, -490.0, -490.0, -490.0, -490.0, -490.0, -490.0, -490.0, -490.0, -490.0, -490.0, -490.0, -490.0, -490.0, -490.0, -490.0, -490.0, -490.0, -490.0, -490.0, -490.0, -490.0, -490.0, -490.0, -490.0, -490.0, -490.0, -490.0, -490.0, -490.0, -490.0, -490.0, -490.0, -490.0, -490.0, -490.0, -490.0, -490.0, -490.0, -490.0, -490.0, -490.0, -490.0, -490.0, -490.0, -490.0, -490.0, -490.0, -490.0, -490.0, -490.0, -490.0, -490.0, -490.0, -490.0, -490.0, -490.0, -490.0, -490.0, -490.0, -490.0, -490.0, -490.0, -487.0, -449.0, -299.0, -130.0, -22.0, 285.0, 433.0, 521.0, 540.0, 540.0, 540.0, 540.0]	[0.007586536463350058, 0.012976185185834765, 0.018655284366104752, 0.03202120360219851, 0.04845741356257349, 0.06380101648392156, 0.08180257980711758, 0.098580805468373, 0.11361789132934064, 0.13185190240619704, 0.14836491231108084, 0.1637870218255557, 0.1817797104595229, 0.19859002146404237, 0.2136090166750364, 0.23183551843976602, 0.2483270243392326, 0.2637822431861423, 0.2819056623848155, 0.2986784267122857, 0.31337793421698734, 0.331814355798997, 0.3484550242428668, 0.3637890698155388, 0.3817575238645077, 0.3986948106903583, 0.4135922913555987, 0.43184097978519276, 0.44833009637659416, 0.4638344671111554, 0.48179131583310664, 0.49859514145646244, 0.5135905846836977, 0.5318457584362477, 0.5484379575937055, 0.5638713311054744, 0.5817769798450172, 0.598647024075035, 0.6135728353401646, 0.6318092357832938, 0.6484403469366953, 0.6638037471566349, 0.6816561479354277, 0.698590362793766, 0.7136103819939308, 0.7318263024208136, 0.7485062241903506, 0.7638320777914487, 0.7817841478390619, 0.7985579361557029, 0.813607651332859, 0.831829033093527, 0.8484468322712928, 0.863807501795236, 0.8818234011414461, 0.8985449654865079, 0.9136298379744403, 0.931817427801434, 0.9484611682710238, 0.9637842911761254, 0.981768446508795, 0.9985732961795293, 1.0136649952619337, 1.031835177098401, 1.0484379575937055, 1.0637784884893335, 1.0816414706059732, 1.0985569121548906, 1.113611064676661, 1.1318256197846495, 1.148492912237998, 1.1637866804958321, 1.181753769167699, 1.198712901386898, 1.2135581580223516, 1.2318392731249332, 1.2484273762675002, 1.2638112565036863, 1.281774590490386, 1.2985340428422205, 1.313605944684241, 1.331861118436791, 1.348383002972696, 1.3638150111655705, 1.3817343132104725, 1.3984654349042103, 1.4136134539730847, 1.4319508890039288, 1.4483850509859622, 1.4637948725139722, 1.4817158812074922, 1.498543600202538, 1.5135769313783385, 1.531835859757848, 1.5485178295639344]
31	扇子	False	inanimate	animate	left	0.929	[0.0, 0.0, 0.0, 0.0, 0.0, 0.0, 0.0, 0.0, 0.0, 0.0, 0.0, 0.0, 0.0, 0.0, 0.0, 0.0, 0.0, 0.0, 0.0, 0.0, 0.0, 0.0, 0.0, 0.0, 0.0, 0.0, 0.0, 0.0, 0.0, 0.0, 0.0, 0.0, 0.0, 0.0, 0.0, 0.0, 0.0, 0.0, 0.0, 0.0, 0.0, 0.0, -30.0, -197.0, -352.0, -501.0, -621.0, -690.0, -731.0, -762.0, -788.0, -811.0, -823.0, -824.0, -824.0]	[-490.0, -490.0, -490.0, -490.0, -490.0, -490.0, -490.0, -490.0, -490.0, -490.0, -490.0, -490.0, -490.0, -490.0, -490.0, -490.0, -490.0, -490.0, -490.0, -490.0, -490.0, -490.0, -490.0, -490.0, -490.0, -490.0, -490.0, -490.0, -490.0, -490.0, -490.0, -490.0, -490.0, -490.0, -490.0, -490.0, -490.0, -490.0, -490.0, -490.0, -490.0, -490.0, -460.0, -250.0, -32.0, 158.0, 301.0, 374.0, 418.0, 455.0, 485.0, 510.0, 522.0, 524.0, 524.0]	[0.005564138118643314, 0.010133563540875912, 0.026585474843159318, 0.04446484096115455, 0.06130553054390475, 0.07618799252668396, 0.09463124081958085, 0.11114902934059501, 0.1265383709105663, 0.1445006809080951, 0.16129529057070613, 0.17602108069695532, 0.19444692094111815, 0.21113537607016042, 0.22651208826573566, 0.24447235028492287, 0.2612662772880867, 0.2762938058003783, 0.2945824301568791, 0.3111268427455798, 0.3265301788924262, 0.3444870275561698, 0.3612444319296628, 0.37607740063685924, 0.39439981698524207, 0.4111640480114147, 0.42652301088673994, 0.44437029166147113, 0.461294949229341, 0.476105731271673, 0.49446842493489385, 0.5111783840111457, 0.5264892189297825, 0.5444764462881722, 0.5612386292777956, 0.576329987088684, 0.594602910161484, 0.6111575627001002, 0.6265042375889607, 0.6445337901823223, 0.6612894879071973, 0.6763112137559801, 0.6945776515058242, 0.7110507254255936, 0.7264701043022797, 0.7443556143552996, 0.7612481866381131, 0.7762408991693519, 0.7945878914906643, 0.8109694881713949, 0.8264735176344402, 0.8443911129725166, 0.8611628533690237, 0.8762746911379509, 0.8945575128309429]
32	酒精	False	animate	inanimate	right	1.139	[0.0, 0.0, 0.0, 0.0, 0.0, 0.0, 0.0, 0.0, 0.0, 0.0, 0.0, 0.0, 0.0, 0.0, 0.0, 0.0, 0.0, 0.0, 0.0, 0.0, 0.0, 0.0, 0.0, 0.0, 0.0, 0.0, 0.0, 0.0, 0.0, 0.0, 0.0, 0.0, 0.0, 0.0, 0.0, 0.0, 0.0, 0.0, 0.0, 0.0, 0.0, 0.0, 0.0, 0.0, 0.0, 0.0, 0.0, 0.0, 0.0, 0.0, 0.0, 0.0, 4.0, 34.0, 160.0, 389.0, 520.0, 579.0, 721.0, 812.0, 898.0, 959.0, 959.0, 959.0, 959.0]	[-490.0, -490.0, -490.0, -490.0, -490.0, -490.0, -490.0, -490.0, -490.0, -490.0, -490.0, -490.0, -490.0, -490.0, -490.0, -490.0, -490.0, -490.0, -490.0, -490.0, -490.0, -490.0, -490.0, -490.0, -490.0, -490.0, -490.0, -490.0, -490.0, -490.0, -490.0, -490.0, -490.0, -490.0, -490.0, -490.0, -490.0, -490.0, -490.0, -490.0, -490.0, -490.0, -490.0, -490.0, -490.0, -490.0, -490.0, -490.0, -490.0, -490.0, -490.0, -490.0, -488.0, -453.0, -323.0, -63.0, 116.0, 199.0, 407.0, 532.0, 540.0, 540.0, 540.0, 540.0, 540.0]	[0.0020067651639692485, 0.007558888464700431, 0.018825609527993947, 0.037279780430253595, 0.05373066774336621, 0.06909543328220025, 0.08701473532710224, 0.1038557662977837, 0.11890548141673207, 0.1371121858828701, 0.15375797438900918, 0.16914048924809322, 0.18688400473911315, 0.20385849697049707, 0.21889967878814787, 0.2370954605867155, 0.2536757130874321, 0.26908212125999853, 0.2869905006955378, 0.3038465502904728, 0.3188365321839228, 0.33712549787014723, 0.35371052904520184, 0.3690667612827383, 0.3870219032978639, 0.40383460361044854, 0.41890923609025776, 0.4371002392144874, 0.4537484170286916, 0.4690974812838249, 0.4869980100193061, 0.5038479156210087, 0.5188819294562563, 0.5371121859061532, 0.5537443210487254, 0.569089971948415, 0.5869584153406322, 0.6038014943478629, 0.6187395935994573, 0.6370944365626201, 0.6537054090877064, 0.669122057268396, 0.6870109806768596, 0.7038165130070411, 0.7188682761625387, 0.7371466605109163, 0.7537477343576029, 0.7690490119857714, 0.786997668677941, 0.8039346142322756, 0.8188785161473788, 0.8370923885959201, 0.8537409076816402, 0.8690722226165235, 0.8869635353330523, 0.903771115699783, 0.9188693001051433, 0.9369995460147038, 0.953374998702202, 0.9691131825675257, 0.9869328154018149, 1.0038441609358415, 1.018853940127883, 1.03706951928325, 1.0534920759382658]
33	电视	False	inanimate	animate	left	1.024	[0.0, 0.0, 0.0, 0.0, 0.0, 0.0, 0.0, 0.0, 0.0, 0.0, 0.0, 0.0, 0.0, 0.0, 0.0, 0.0, 0.0, 0.0, 0.0, 0.0, 0.0, 0.0, 0.0, 0.0, 0.0, 0.0, 0.0, 0.0, 0.0, 0.0, 0.0, 0.0, 0.0, 0.0, 0.0, 0.0, 0.0, 0.0, 0.0, 0.0, 0.0, 0.0, 0.0, 0.0, 0.0, 0.0, 0.0, 0.0, 0.0, -49.0, -162.0, -305.0, -460.0, -586.0, -685.0, -766.0, -819.0, -848.0, -860.0, -870.0, -871.0, -871.0]	[-490.0, -490.0, -490.0, -490.0, -490.0, -490.0, -490.0, -490.0, -490.0, -490.0, -490.0, -490.0, -490.0, -490.0, -490.0, -490.0, -490.0, -490.0, -490.0, -490.0, -490.0, -490.0, -490.0, -490.0, -490.0, -490.0, -490.0, -490.0, -490.0, -490.0, -490.0, -490.0, -490.0, -490.0, -490.0, -490.0, -490.0, -490.0, -490.0, -490.0, -490.0, -490.0, -490.0, -490.0, -490.0, -490.0, -490.0, -490.0, -490.0, -424.0, -275.0, -100.0, 64.0, 200.0, 315.0, 407.0, 468.0, 510.0, 534.0, 540.0, 540.0, 540.0]	[0.007687229721341282, 0.012206820538267493, 0.016270049090962857, 0.032306216715369374, 0.04856766416924074, 0.06413210957543924, 0.08221320348093286, 0.09882895462214947, 0.11393089371267706, 0.1321618328220211, 0.14870180806610733, 0.16407783760223538, 0.1820561902713962, 0.19881564262323081, 0.213880717754364, 0.23212633421644568, 0.24878509331028908, 0.26402595499530435, 0.28204868093598634, 0.29880915727699175, 0.3138769631041214, 0.33211677690269426, 0.34853626153199, 0.36411197093548253, 0.3820626756059937, 0.39882588264299557, 0.413883448462002, 0.4321898221387528, 0.4487161440192722, 0.46548959106439725, 0.48202444630442187, 0.4988453385885805, 0.5137025419389829, 0.5320891289156862, 0.548784751968924, 0.5641430322430097, 0.5818961050827056, 0.5988668425707147, 0.6139500084100291, 0.6321734381490387, 0.6486779147526249, 0.664089442929253, 0.6818210118217394, 0.698843631951604, 0.7139008564408869, 0.7321000515366904, 0.7486799627658911, 0.7641536135342903, 0.7819039557361975, 0.798753178678453, 0.8139346484094858, 0.832153299532365, 0.8486134028062224, 0.8641788722015917, 0.8819950916222297, 0.8987569333403371, 0.913896419107914, 0.9320154009619728, 0.9485843894653954, 0.9641215282608755, 0.9816674119210802, 0.9988238346413709]
34	苹果	False	animate	inanimate	left	1.609	[0.0, 0.0, 0.0, 0.0, 0.0, 0.0, 0.0, 0.0, 0.0, 0.0, 0.0, 0.0, 0.0, 0.0, 0.0, 0.0, 0.0, 0.0, 0.0, 0.0, 0.0, 0.0, 0.0, 0.0, 0.0, 0.0, 0.0, 0.0, 0.0, 0.0, 0.0, 0.0, 0.0, 0.0, 0.0, 0.0, 0.0, 0.0, 0.0, 0.0, 0.0, 0.0, 0.0, 0.0, 0.0, 0.0, 0.0, 0.0, 0.0, 0.0, 0.0, 0.0, 0.0, 0.0, 0.0, 0.0, 0.0, 0.0, 0.0, 0.0, 0.0, 0.0, 0.0, 0.0, 0.0, 0.0, 0.0, 0.0, 0.0, 0.0, 0.0, 0.0, 0.0, 0.0, 0.0, 0.0, 0.0, 0.0, 0.0, 0.0, 0.0, 0.0, 0.0, 0.0, -19.0, -171.0, -319.0, -394.0, -595.0, -697.0, -746.0, -758.0, -763.0, -768.0, -771.0, -772.0, -772.0]	[-490.0, -490.0, -490.0, -490.0, -490.0, -490.0, -490.0, -490.0, -490.0, -490.0, -490.0, -490.0, -490.0, -490.0, -490.0, -490.0, -490.0, -490.0, -490.0, -490.0, -490.0, -490.0, -490.0, -490.0, -490.0, -490.0, -490.0, -490.0, -490.0, -490.0, -490.0, -490.0, -490.0, -490.0, -490.0, -490.0, -490.0, -490.0, -490.0, -490.0, -490.0, -490.0, -490.0, -490.0, -490.0, -490.0, -490.0, -490.0, -490.0, -490.0, -490.0, -490.0, -490.0, -490.0, -490.0, -490.0, -490.0, -490.0, -490.0, -490.0, -490.0, -490.0, -490.0, -490.0, -490.0, -490.0, -490.0, -490.0, -490.0, -490.0, -490.0, -490.0, -490.0, -490.0, -490.0, -490.0, -490.0, -490.0, -490.0, -490.0, -490.0, -490.0, -490.0, -490.0, -465.0, -300.0, -133.0, -35.0, 233.0, 354.0, 417.0, 437.0, 450.0, 464.0, 472.0, 473.0, 473.0]	[0.00026084668934345245, 0.004653120238799602, 0.01539691910147667, 0.033835047332104295, 0.05025794531684369, 0.06567425216780975, 0.08354679157491773, 0.10035641991999, 0.11531397514045238, 0.13360908487811685, 0.15037433989346027, 0.16565274819731712, 0.18350514897610992, 0.20040898519800976, 0.21538975107250735, 0.23363434354541823, 0.2501060521462932, 0.26562748954165727, 0.2835573729244061, 0.30047520383959636, 0.31537951109930873, 0.33367837546393275, 0.3502582866931334, 0.36569746281020343, 0.3835522528970614, 0.4003728039097041, 0.4154129617381841, 0.4336343434988521, 0.45020196674158797, 0.4655875535681844, 0.4835403062752448, 0.5004100092337467, 0.5154034044244327, 0.5336169355432503, 0.5502818386303261, 0.5656404602341354, 0.5834740876452997, 0.6004369744914584, 0.6154023804119788, 0.6335998688591644, 0.6502507773693651, 0.6656578682013787, 0.6835502049070783, 0.700409667857457, 0.7154010150698014, 0.7336585781886242, 0.7500623614760116, 0.7655725349322893, 0.7835880928905681, 0.8003775825491175, 0.8153545937966555, 0.8336978314910084, 0.8502470226958394, 0.865599158918485, 0.8835017356323078, 0.9003666599164717, 0.9154068177449517, 0.9336217141826637, 0.9502340520266443, 0.9656251002452336, 0.9835191435995512, 1.0004939771606587, 1.0153955537243746, 1.0336090849014, 1.0502518013236113, 1.065590966900345, 1.083637586212717, 1.1004011345212348, 1.1153842897620052, 1.1336961248307489, 1.150406766566448, 1.165614860248752, 1.1835160716436803, 1.2004294652142562, 1.2153921404387802, 1.2336268341750838, 1.250239513348788, 1.2656240762444213, 1.2835484982351772, 1.300360857276246, 1.3154375377343968, 1.3336537994910032, 1.3502518013119698, 1.3656093989266083, 1.3834932023310103, 1.4003577852272429, 1.4153668817598373, 1.4335053196409717, 1.4499439189094119, 1.465599158895202, 1.4835659062373452, 1.5003239932702854, 1.5155078523093835, 1.5334793783258647, 1.5500220842077397, 1.565581068280153, 1.5834099170169793]
35	蚯蚓	True	inanimate	animate	right	1.48	[0.0, 1.0, 1.0, 1.0, 1.0, 1.0, 1.0, 1.0, 1.0, 1.0, 1.0, 1.0, 1.0, 1.0, 1.0, 1.0, 1.0, 1.0, 1.0, 1.0, 1.0, 1.0, 1.0, 1.0, 1.0, 1.0, 1.0, 1.0, 1.0, 1.0, 1.0, 1.0, 1.0, 1.0, 1.0, 1.0, 1.0, 1.0, 1.0, 1.0, 1.0, 1.0, 1.0, 8.0, 12.0, 12.0, 12.0, 12.0, 12.0, 12.0, 12.0, 12.0, 12.0, 12.0, 12.0, 12.0, 12.0, 12.0, 12.0, 12.0, 12.0, 12.0, 12.0, 12.0, 12.0, 12.0, 12.0, 12.0, 12.0, 12.0, 12.0, 12.0, 12.0, 12.0, 12.0, 12.0, 12.0, 16.0, 61.0, 212.0, 358.0, 436.0, 651.0, 763.0, 846.0, 906.0, 945.0, 959.0, 959.0]	[-490.0, -490.0, -490.0, -490.0, -490.0, -490.0, -490.0, -490.0, -490.0, -490.0, -490.0, -490.0, -490.0, -490.0, -490.0, -490.0, -490.0, -490.0, -490.0, -490.0, -490.0, -490.0, -490.0, -490.0, -490.0, -490.0, -490.0, -490.0, -490.0, -490.0, -490.0, -490.0, -490.0, -490.0, -490.0, -490.0, -490.0, -490.0, -490.0, -490.0, -490.0, -490.0, -490.0, -490.0, -490.0, -490.0, -490.0, -490.0, -490.0, -490.0, -490.0, -490.0, -490.0, -490.0, -490.0, -490.0, -490.0, -490.0, -490.0, -490.0, -490.0, -490.0, -490.0, -490.0, -490.0, -490.0, -490.0, -490.0, -490.0, -490.0, -490.0, -490.0, -490.0, -490.0, -490.0, -490.0, -490.0, -490.0, -454.0, -329.0, -192.0, -110.0, 149.0, 278.0, 365.0, 420.0, 450.0, 466.0, 467.0]	[0.01653546968009323, 0.021551358746364713, 0.0313605876872316, 0.049722940020728856, 0.06604855810292065, 0.0815580488415435, 0.09949817223241553, 0.11639688845025375, 0.13132338237483054, 0.14963965478818864, 0.16621820064028725, 0.18155873153591529, 0.19946711091324687, 0.2162934645311907, 0.23107489192625508, 0.24959494010545313, 0.266188504640013, 0.28158125950722024, 0.2994230789481662, 0.31629005121067166, 0.3313080224324949, 0.3495976707781665, 0.36616256332490593, 0.3815123102394864, 0.39945277490187436, 0.41629756055772305, 0.4313049503834918, 0.4495727535104379, 0.4662103499285877, 0.48154166486347094, 0.49944970291107893, 0.5163323765154928, 0.5312967583886348, 0.5496263427776285, 0.5662717898958363, 0.5815440542064607, 0.5994582362473011, 0.616298925888259, 0.6312902731006034, 0.6495481774909422, 0.6662212726077996, 0.6815819421899505, 0.6993937243241817, 0.7162593312677927, 0.7312892490881495, 0.7495645614690147, 0.7661379873752594, 0.7815874035004526, 0.7994657455710694, 0.8162781045539305, 0.8312943690689281, 0.8495655854931101, 0.8661697313073091, 0.8815863794879988, 0.8994558469275944, 0.9162883445387706, 0.9312872010632418, 0.9495423748739995, 0.9661489099962637, 0.9815556595567614, 0.9993165830383077, 1.0162327072466724, 1.0328037437866442, 1.049636241456028, 1.0661615393473767, 1.0815768221509643, 1.0995053402148187, 1.1162999498774298, 1.131332598393783, 1.1495471535017714, 1.1661625633132644, 1.1815051422454417, 1.1994701828807592, 1.2163204298703931, 1.2310496332938783, 1.2493901402922347, 1.266219224606175, 1.2815116275451146, 1.2994421935873106, 1.316265475237742, 1.3313128010486253, 1.3494829828850925, 1.3661198967020027, 1.3815802354947664, 1.3992766470764764, 1.4164071284467354, 1.431287542451173, 1.4495543215307407, 1.4662298059556633]
36	核桃	False	animate	inanimate	left	1.057	[0.0, 0.0, 0.0, 0.0, 0.0, 0.0, 0.0, 0.0, 0.0, 0.0, 0.0, 0.0, 0.0, 0.0, 0.0, 0.0, 0.0, 0.0, 0.0, 0.0, 0.0, 0.0, 0.0, 0.0, 0.0, 0.0, 0.0, 0.0, 0.0, 0.0, 0.0, 0.0, 0.0, 0.0, 0.0, 0.0, 0.0, 0.0, 0.0, 0.0, 0.0, 0.0, 0.0, 0.0, 0.0, 0.0, 0.0, 0.0, 0.0, 0.0, -6.0, -71.0, -178.0, -392.0, -471.0, -700.0, -807.0, -859.0, -876.0, -879.0, -884.0, -887.0, -887.0, -887.0]	[-490.0, -490.0, -490.0, -490.0, -490.0, -490.0, -490.0, -490.0, -490.0, -490.0, -490.0, -490.0, -490.0, -490.0, -490.0, -490.0, -490.0, -490.0, -490.0, -490.0, -490.0, -490.0, -490.0, -490.0, -490.0, -490.0, -490.0, -490.0, -490.0, -490.0, -490.0, -490.0, -490.0, -490.0, -490.0, -490.0, -490.0, -490.0, -490.0, -490.0, -490.0, -490.0, -490.0, -490.0, -490.0, -490.0, -490.0, -490.0, -490.0, -490.0, -486.0, -413.0, -287.0, -41.0, 52.0, 299.0, 394.0, 431.0, 446.0, 452.0, 460.0, 466.0, 466.0, 466.0]	[0.007312445959541947, 0.012371001648716629, 0.018311220570467412, 0.031729363778140396, 0.04809525917517021, 0.06351293134503067, 0.08142404141835868, 0.09831900300923735, 0.11333083017962053, 0.13156996126053855, 0.14811949379509315, 0.16349757136777043, 0.18136362545192242, 0.19826507236575708, 0.2132987448712811, 0.2315307079697959, 0.24810618185438216, 0.2635084940120578, 0.28126600419636816, 0.29829067236278206, 0.31332536885747686, 0.3315621106303297, 0.34795053396373987, 0.36353341134963557, 0.38145578536204994, 0.398313200334087, 0.4132949901977554, 0.43153480399632826, 0.44805941922822967, 0.4635569633101113, 0.4812980894930661, 0.49821216572308913, 0.5132994275190867, 0.5315546012716368, 0.5479611153132282, 0.5635279500274919, 0.5814441800466739, 0.5982053391053341, 0.6132656355621293, 0.6315317319822498, 0.6481321231694892, 0.6635975819663145, 0.6812868255074136, 0.6982224057428539, 0.7132796302321367, 0.7315368519630283, 0.7479785232571885, 0.7635487713268958, 0.7815281479852274, 0.798216603056062, 0.8132762169116177, 0.8314624413615093, 0.8479262993205339, 0.8635211233631708, 0.8811465376638807, 0.8981520911329426, 0.9133499448071234, 0.9314685853896663, 0.9480242619174533, 0.9635654966114089, 0.9814858227036893, 0.9981230777921155, 1.0133083022083156, 1.0314877000055276]
37	公路	False	animate	inanimate	right	0.919	[0.0, 0.0, 0.0, 0.0, 0.0, 0.0, 0.0, 0.0, 0.0, 0.0, 0.0, 0.0, 0.0, 0.0, 0.0, 0.0, 0.0, 0.0, 0.0, 0.0, 0.0, 0.0, 0.0, 0.0, 0.0, 0.0, 0.0, 0.0, 0.0, 0.0, 0.0, 0.0, 0.0, 0.0, 0.0, 0.0, 0.0, 0.0, 0.0, 0.0, 0.0, 0.0, 0.0, 0.0, 25.0, 92.0, 196.0, 311.0, 437.0, 575.0, 701.0, 791.0, 857.0, 866.0, 867.0, 867.0]	[-490.0, -490.0, -490.0, -490.0, -490.0, -490.0, -490.0, -490.0, -490.0, -490.0, -490.0, -490.0, -490.0, -490.0, -490.0, -490.0, -490.0, -490.0, -490.0, -490.0, -490.0, -490.0, -490.0, -490.0, -490.0, -490.0, -490.0, -490.0, -490.0, -490.0, -490.0, -490.0, -490.0, -490.0, -490.0, -490.0, -490.0, -490.0, -490.0, -490.0, -490.0, -490.0, -490.0, -490.0, -475.0, -419.0, -336.0, -217.0, -59.0, 123.0, 281.0, 383.0, 430.0, 433.0, 435.0, 435.0]	[0.01592700934270397, 0.020845277118496597, 0.030215893173590302, 0.04832531767897308, 0.06512641266454011, 0.08019729051738977, 0.09842618159018457, 0.11503715411527082, 0.13040362630272284, 0.14832975500030443, 0.16516122868051752, 0.17990545072825626, 0.19846372824395075, 0.2151132713770494, 0.230352426355239, 0.24829937639879063, 0.26510661537759006, 0.28023859177483246, 0.2984627042314969, 0.3150784553727135, 0.33037358900764957, 0.34830074169440195, 0.3652079912717454, 0.38017373852198943, 0.39849035220686346, 0.4150805033859797, 0.43038894899655133, 0.4481911737821065, 0.4651066153892316, 0.480210943846032, 0.49840638431487605, 0.5150275967898779, 0.5303595943842083, 0.5484304482815787, 0.5652103805914521, 0.5801614505471662, 0.598477381572593, 0.6150559274246916, 0.6303770023514517, 0.648347845650278, 0.6651776126236655, 0.6799143254174851, 0.6984203789616004, 0.7151252180337906, 0.7303739303606562, 0.7484499042620882, 0.7652783059165813, 0.7802249384694733, 0.7982541497331113, 0.8148992555798031, 0.8303643730469048, 0.848176155181136, 0.865007970132865, 0.8801781758666039, 0.8983524536597542, 0.9149193941848353]
38	喇叭	False	inanimate	animate	left	1.099	[0.0, 0.0, 0.0, 0.0, 0.0, 0.0, 0.0, 0.0, 0.0, 0.0, 0.0, 0.0, 0.0, 0.0, 0.0, 0.0, 0.0, 0.0, 0.0, 0.0, 0.0, 0.0, 0.0, 0.0, 0.0, 0.0, 0.0, 0.0, 0.0, 0.0, 0.0, 0.0, 0.0, 0.0, 0.0, 0.0, 0.0, 0.0, 0.0, 0.0, 0.0, 0.0, 0.0, 0.0, 0.0, 0.0, 0.0, 0.0, 0.0, 0.0, 0.0, 0.0, 0.0, -12.0, -68.0, -175.0, -301.0, -433.0, -559.0, -669.0, -746.0, -776.0, -785.0, -790.0, -791.0, -791.0, -791.0]	[-490.0, -490.0, -490.0, -490.0, -490.0, -490.0, -490.0, -490.0, -490.0, -490.0, -490.0, -490.0, -490.0, -490.0, -490.0, -490.0, -490.0, -490.0, -490.0, -490.0, -490.0, -490.0, -490.0, -490.0, -490.0, -490.0, -490.0, -490.0, -490.0, -490.0, -490.0, -490.0, -490.0, -490.0, -490.0, -490.0, -490.0, -490.0, -490.0, -490.0, -490.0, -490.0, -490.0, -490.0, -490.0, -490.0, -490.0, -490.0, -490.0, -490.0, -490.0, -490.0, -490.0, -482.0, -436.0, -343.0, -217.0, -44.0, 137.0, 276.0, 336.0, 353.0, 362.0, 368.0, 371.0, 371.0, 371.0]	[0.0065864306525327265, 0.010898149630520493, 0.016637323424220085, 0.03015240520471707, 0.04645003395853564, 0.0618673647986725, 0.07987029344076291, 0.09667138842632994, 0.11163099168334156, 0.12992098141694441, 0.1464531059609726, 0.16183766879839823, 0.1796730029163882, 0.19662257778691128, 0.21161426632897928, 0.23000085330568254, 0.24642989528365433, 0.26188511413056403, 0.2799023787374608, 0.29655158054083586, 0.31164839962730184, 0.32993497606366873, 0.3464240926550701, 0.3617984155425802, 0.37982830946566537, 0.39662087114993483, 0.41163611167576164, 0.42994794668629766, 0.4464715379290283, 0.4618305008043535, 0.47977437888039276, 0.49655021517537534, 0.5116415729862638, 0.5299196160631254, 0.5462735647452064, 0.5618301595095545, 0.5797733548679389, 0.5965631858562119, 0.6115470237564296, 0.6298069761833176, 0.6464534472906962, 0.6618588314740919, 0.679816021467559, 0.6966335004544817, 0.7115982237155549, 0.7298288214951754, 0.746476999251172, 0.7618680474697612, 0.7798679040861316, 0.7965870791813359, 0.8117340742610395, 0.8298701227759011, 0.8464333086158149, 0.8618199194897898, 0.8796061016619205, 0.8965611378662288, 0.9116818502661772, 0.9300199679564685, 0.9463629940291867, 0.9618496155017056, 0.9797532162046991, 0.996487409924157, 1.0117043782956898, 1.0297871788498014, 1.0462288501439616, 1.0618107035406865, 1.079674026928842]
