trialIndex	stimulus	left_option	right_option	response	response_time	xTrajectory	yTrajectory	tTrajectory
0	inanimate/n63.jpg	inanimate	animate	left	1.324	[0.0, 0.0, 0.0, 0.0, 0.0, 0.0, 0.0, 0.0, 0.0, 0.0, 0.0, 0.0, 0.0, -1.0, -3.0, -7.0, -13.0, -13.0, -13.0, -13.0, -13.0, -13.0, -13.0, -13.0, -13.0, -13.0, -13.0, -13.0, -13.0, -13.0, -13.0, -13.0, -13.0, -13.0, -13.0, -13.0, -13.0, -13.0, -13.0, -13.0, -13.0, -13.0, -13.0, -13.0, -13.0, -13.0, -5.0, 0.0, 2.0, 5.0, 10.0, 10.0, 10.0, -9.0, -46.0, -86.0, -131.0, -191.0, -292.0, -369.0, -455.0, -524.0, -609.0, -677.0, -719.0, -740.0, -746.0, -747.0, -747.0, -748.0, -751.0, -760.0, -772.0, -782.0, -786.0, -786.0, -786.0, -786.0, -786.0, -786.0]	[-490.0, -490.0, -490.0, -490.0, -490.0, -490.0, -490.0, -490.0, -490.0, -490.0, -490.0, -490.0, -490.0, -491.0, -491.0, -491.0, -486.0, -486.0, -486.0, -486.0, -486.0, -486.0, -486.0, -486.0, -486.0, -486.0, -486.0, -486.0, -486.0, -486.0, -486.0, -486.0, -486.0, -486.0, -486.0, -486.0, -486.0, -486.0, -486.0, -486.0, -486.0, -486.0, -486.0, -489.0, -493.0, -493.0, -493.0, -491.0, -482.0, -466.0, -446.0, -426.0, -395.0, -339.0, -260.0, -179.0, -101.0, -27.0, 67.0, 127.0, 176.0, 218.0, 260.0, 296.0, 317.0, 327.0, 330.0, 330.0, 330.0, 331.0, 333.0, 345.0, 361.0, 382.0, 397.0, 404.0, 409.0, 411.0, 412.0, 412.0]	[0.010389563423814252, 0.015495223080506548, 0.02104632233385928, 0.03591990962740965, 0.05236158095067367, 0.06939853707444854, 0.0856214138912037, 0.1028048018924892, 0.11898535341606475, 0.13615611210116185, 0.15213698378647678, 0.16941287304507568, 0.18560434723622166, 0.20596930052852258, 0.2189385907840915, 0.23912468558410183, 0.25226293568266556, 0.27225208131130785, 0.285448016715236, 0.3057696206960827, 0.3189624841033947, 0.33884547514026053, 0.3522182210581377, 0.3715093405917287, 0.38537975010694936, 0.40400970753398724, 0.41895087878219783, 0.4373808150703553, 0.45201239723246545, 0.47059934670687653, 0.4855889872414991, 0.5049582720675971, 0.5189331294677686, 0.5372360898472834, 0.5520339012145996, 0.5703058002982289, 0.5855801125871949, 0.6050661333138123, 0.6189372254593764, 0.6373279084509704, 0.652115821139887, 0.6706345040292945, 0.685378726106137, 0.7032946148246992, 0.7190092467353679, 0.7362452000379562, 0.752324716973817, 0.7691770119126886, 0.785531984642148, 0.8028020712372381, 0.8189426868048031, 0.8357386617863085, 0.8522707863594405, 0.868949684110703, 0.8854039847501554, 0.9024778048333246, 0.9189396147849038, 0.9358171683852561, 0.9522646423720289, 0.9690776840143371, 0.9857924217358232, 1.0024921408330556, 1.0189211828110274, 1.0357908857404254, 1.0523469036270399, 1.0691118173126597, 1.085672955174232, 1.1026129727251828, 1.118997300072806, 1.13580556306988, 1.1520741785061546, 1.1692077319021337, 1.1854596220364328, 1.20242046090425, 1.218645727058174, 1.23581921638106, 1.252014786557993, 1.2692101212451234, 1.2853910140984226, 1.3025883967347909]
1	animate/a49.jpg	inanimate	animate	right	1.349	[0.0, 0.0, 0.0, 0.0, 0.0, 0.0, 0.0, 0.0, -1.0, -1.0, -2.0, -4.0, -4.0, -4.0, -4.0, -4.0, -4.0, -4.0, -4.0, -4.0, -4.0, -4.0, -4.0, -4.0, -4.0, -4.0, -4.0, -4.0, -4.0, -4.0, -4.0, -4.0, 1.0, 6.0, 6.0, 3.0, -1.0, -6.0, -16.0, -37.0, -74.0, -125.0, -177.0, -238.0, -291.0, -374.0, -471.0, -565.0, -620.0, -649.0, -680.0, -707.0, -718.0, -720.0, -721.0, -707.0, -639.0, -493.0, -278.0, -65.0, 110.0, 258.0, 367.0, 448.0, 489.0, 505.0, 508.0, 511.0, 514.0, 521.0, 532.0, 547.0, 560.0, 577.0, 603.0, 636.0, 665.0, 688.0, 712.0, 719.0, 719.0]	[-490.0, -490.0, -490.0, -490.0, -490.0, -490.0, -490.0, -490.0, -490.0, -490.0, -491.0, -491.0, -490.0, -490.0, -489.0, -489.0, -489.0, -489.0, -489.0, -489.0, -489.0, -489.0, -489.0, -489.0, -489.0, -489.0, -489.0, -489.0, -489.0, -488.0, -486.0, -481.0, -469.0, -456.0, -441.0, -420.0, -391.0, -358.0, -306.0, -232.0, -139.0, -48.0, 18.0, 83.0, 122.0, 172.0, 214.0, 253.0, 277.0, 288.0, 303.0, 326.0, 342.0, 350.0, 367.0, 383.0, 406.0, 433.0, 445.0, 445.0, 445.0, 445.0, 445.0, 457.0, 463.0, 467.0, 468.0, 471.0, 474.0, 477.0, 479.0, 481.0, 481.0, 480.0, 475.0, 467.0, 459.0, 456.0, 453.0, 453.0, 453.0]	[0.003809891175478697, 0.012778758187778294, 0.02272793371230364, 0.03929385021911003, 0.056573835492599756, 0.0726308244629763, 0.08971556721371599, 0.10597530798986554, 0.12313685068511404, 0.13932491154992022, 0.1564772382262163, 0.17267110175453126, 0.18967324189725332, 0.20622072645346634, 0.2231539173226338, 0.23951674069394358, 0.25650044888607226, 0.27572773915017024, 0.2897186391928699, 0.308416180574568, 0.323151869350113, 0.34231737832305953, 0.3564717769040726, 0.37528912618290633, 0.38974219118244946, 0.4086650123645086, 0.4231242213572841, 0.44054039850016125, 0.456527755537536, 0.47339711713721044, 0.48986268174485303, 0.5064593182469252, 0.5228910908917896, 0.5397153965313919, 0.5565666674810927, 0.5729595281591173, 0.5896698285650928, 0.6062408651050646, 0.6228142909531016, 0.6393942021531984, 0.6561686731583904, 0.6727253737044521, 0.6895408046839293, 0.7068081606121268, 0.7228982588858344, 0.7399635456677061, 0.7561178145406302, 0.7730158481281251, 0.7893086982076056, 0.8064064116333611, 0.8229074748815037, 0.8397795671480708, 0.8561813024862204, 0.8730766054068226, 0.889283098251326, 0.9063374623656273, 0.9229532135068439, 0.9398843563976698, 0.9561014305509161, 0.9730131174437702, 0.989599513966823, 1.0063436063355766, 1.0226071017968934, 1.0397406551928725, 1.0559130147157703, 1.073037352092797, 1.0892800262372475, 1.106454539578408, 1.1226350911019836, 1.1399181483720895, 1.1559621666674502, 1.173122685373528, 1.1892943622369785, 1.206503691530088, 1.2226210964436177, 1.2397723991598468, 1.2560181453009136, 1.2732360079244245, 1.2893339568690863, 1.3065804914804175, 1.3226337257656269]
2	inanimate/n69.jpg	inanimate	animate	left	0.92	[0.0, 0.0, 0.0, 0.0, 0.0, 0.0, 0.0, 0.0, 0.0, 0.0, 0.0, 0.0, 0.0, 0.0, 0.0, 0.0, 0.0, 0.0, 0.0, -1.0, -2.0, -5.0, -7.0, -10.0, -11.0, -11.0, -11.0, -11.0, -11.0, -11.0, -11.0, -12.0, -17.0, -21.0, -35.0, -52.0, -82.0, -110.0, -165.0, -189.0, -271.0, -334.0, -394.0, -453.0, -516.0, -558.0, -595.0, -636.0, -676.0, -710.0, -739.0, -745.0, -748.0, -748.0, -750.0, -750.0]	[-490.0, -490.0, -490.0, -490.0, -490.0, -490.0, -490.0, -490.0, -490.0, -490.0, -490.0, -490.0, -490.0, -490.0, -490.0, -490.0, -490.0, -490.0, -490.0, -484.0, -478.0, -469.0, -460.0, -452.0, -443.0, -438.0, -423.0, -417.0, -401.0, -372.0, -352.0, -331.0, -308.0, -285.0, -246.0, -208.0, -153.0, -103.0, -26.0, 0.0, 67.0, 112.0, 155.0, 192.0, 239.0, 271.0, 301.0, 328.0, 350.0, 371.0, 388.0, 392.0, 395.0, 395.0, 398.0, 398.0]	[0.007820213068043813, 0.013749509351328015, 0.01923438999801874, 0.03033795385272242, 0.04748106456827372, 0.06370155204785988, 0.08088084406335838, 0.09701770494575612, 0.11420041028759442, 0.13037276981049217, 0.14740870194509625, 0.16371793602593243, 0.1807903907902073, 0.1970562755886931, 0.21392939184443094, 0.23095576665946282, 0.2473162006936036, 0.2643033222120721, 0.28065761225298047, 0.2976484883984085, 0.3140580744075123, 0.3310800118779298, 0.34727933674003, 0.36426645822939463, 0.380406049778685, 0.3976054804516025, 0.41394543449860066, 0.43109878519317135, 0.4472943553701043, 0.4643494021729566, 0.4806272335990798, 0.4978065256145783, 0.5138655625632964, 0.5310581665544305, 0.5472554434090853, 0.5644654553907458, 0.5805729616549797, 0.5977474749961402, 0.613875461218413, 0.6311315531784203, 0.6473172247060575, 0.6643937754561193, 0.6806681935559027, 0.6977437203167938, 0.7140201864531264, 0.7311489611456636, 0.7473250753537286, 0.7664704456692562, 0.7806118736043572, 0.8000231423939113, 0.8139447518333327, 0.8334068792173639, 0.8472796780697536, 0.8675173141236883, 0.8803828391537536, 0.9001269076252356]
3	inanimate/n39.jpg	inanimate	animate	left	0.927	[0.0, 0.0, 0.0, 0.0, 0.0, 0.0, 0.0, 0.0, 0.0, 0.0, 0.0, 0.0, 0.0, 0.0, -2.0, -5.0, -9.0, -14.0, -32.0, -44.0, -51.0, -51.0, -51.0, -51.0, -51.0, -51.0, -52.0, -60.0, -65.0, -74.0, -90.0, -122.0, -194.0, -246.0, -294.0, -342.0, -403.0, -487.0, -569.0, -637.0, -686.0, -723.0, -763.0, -805.0, -824.0, -835.0, -838.0, -839.0, -840.0, -840.0, -840.0, -840.0, -840.0, -840.0, -840.0, -840.0]	[-490.0, -490.0, -490.0, -490.0, -490.0, -490.0, -490.0, -490.0, -490.0, -490.0, -490.0, -490.0, -490.0, -490.0, -490.0, -490.0, -488.0, -484.0, -477.0, -471.0, -466.0, -466.0, -463.0, -450.0, -430.0, -403.0, -374.0, -339.0, -318.0, -293.0, -260.0, -211.0, -128.0, -80.0, -38.0, 1.0, 48.0, 102.0, 161.0, 207.0, 241.0, 273.0, 307.0, 350.0, 371.0, 385.0, 392.0, 400.0, 410.0, 419.0, 425.0, 428.0, 428.0, 428.0, 428.0, 428.0]	[0.0018305008416064084, 0.007645791862159967, 0.0169054746220354, 0.03528728295350447, 0.050313446117797866, 0.06823582015931606, 0.08361423903261311, 0.10162092233076692, 0.11663445620797575, 0.1343701210571453, 0.15025029951357283, 0.1672759916400537, 0.18358522572088987, 0.2003494567470625, 0.21688192264991812, 0.2339960200479254, 0.2502421075187158, 0.2675053674611263, 0.28355757775716484, 0.3004330833500717, 0.3169000133057125, 0.33373899626894854, 0.3502049022063147, 0.3670346691797022, 0.3835309537826106, 0.40040441136807203, 0.4166283122031018, 0.4337506016017869, 0.4501683795824647, 0.467134679784067, 0.48352583378436975, 0.5004375206772238, 0.5169785199104808, 0.5337215882900637, 0.5503127634583507, 0.5670643651683349, 0.5835545057489071, 0.6003969020675868, 0.6166726854862645, 0.6337966815626714, 0.6500325290253386, 0.6671036184707191, 0.6833763299218845, 0.7004313766956329, 0.7166972614650149, 0.7338086281961296, 0.7501202516141348, 0.7670548078313004, 0.783328201941913, 0.8003323901211843, 0.8166354802087881, 0.8338441268424504, 0.8499700650863815, 0.8671186371066142, 0.8833428792713676, 0.9004265980329365]
4	animate/a2.jpg	inanimate	animate	right	1.115	[0.0, 0.0, 0.0, 0.0, 0.0, 0.0, 0.0, 0.0, 0.0, 0.0, -2.0, -5.0, -7.0, -10.0, -13.0, -19.0, -25.0, -32.0, -41.0, -50.0, -57.0, -62.0, -67.0, -74.0, -83.0, -92.0, -103.0, -115.0, -139.0, -167.0, -208.0, -255.0, -308.0, -355.0, -407.0, -460.0, -507.0, -552.0, -592.0, -633.0, -648.0, -657.0, -664.0, -670.0, -681.0, -691.0, -700.0, -704.0, -699.0, -654.0, -566.0, -394.0, -255.0, -98.0, 60.0, 196.0, 325.0, 442.0, 553.0, 641.0, 695.0, 735.0, 769.0, 783.0, 791.0, 794.0, 796.0, 799.0]	[-490.0, -490.0, -490.0, -490.0, -490.0, -490.0, -490.0, -490.0, -486.0, -480.0, -474.0, -466.0, -461.0, -455.0, -448.0, -435.0, -420.0, -400.0, -376.0, -355.0, -334.0, -318.0, -297.0, -271.0, -245.0, -210.0, -179.0, -153.0, -113.0, -76.0, -30.0, 13.0, 56.0, 93.0, 127.0, 156.0, 182.0, 208.0, 232.0, 257.0, 270.0, 280.0, 290.0, 299.0, 316.0, 329.0, 342.0, 350.0, 362.0, 389.0, 417.0, 445.0, 450.0, 456.0, 467.0, 471.0, 471.0, 471.0, 471.0, 466.0, 458.0, 456.0, 456.0, 456.0, 456.0, 456.0, 456.0, 455.0]	[0.009646686201449484, 0.014077189087402076, 0.023292498575756326, 0.03180056597921066, 0.04837228517862968, 0.06555294251302257, 0.08227109356084839, 0.10114749346394092, 0.1152629800781142, 0.13206919506774284, 0.14934781499323435, 0.16560141180525534, 0.18220043764449656, 0.19864006093121134, 0.21562172111589462, 0.23209445373504423, 0.24853271170286462, 0.26530376938171685, 0.284697288821917, 0.29824616259429604, 0.31624021657626145, 0.33189067788771354, 0.34933723366702907, 0.3651672361593228, 0.3823977281281259, 0.39854039167403243, 0.4155220518587157, 0.43274674116401, 0.44932767635327764, 0.4656191611138638, 0.481926688546082, 0.4986533729243092, 0.5155264891800471, 0.5321255150192883, 0.5488634634239133, 0.5654310866084415, 0.582150261674542, 0.5986922848969698, 0.6154981585568748, 0.632048032421153, 0.6489115913573187, 0.6651450495119207, 0.6823526721564122, 0.6984751970740035, 0.7155210278579034, 0.7317445873632096, 0.7489542580151465, 0.7651638228271622, 0.7822789442434441, 0.7984304824494757, 0.815604313131189, 0.8317695046716835, 0.8489279753703158, 0.8651402708492242, 0.8820891630603, 0.898461543751182, 0.9155981691437773, 0.9317739419930149, 0.9489709833287634, 0.9651610921719112, 0.9822188696125522, 0.9987834208004642, 1.0154903078800999, 1.0318742938979995, 1.048899303394137, 1.0672848663525656, 1.0822461762581952, 1.1011044855113141]
5	animate/a32.jpg	animate	inanimate	left	1.282	[0.0, 0.0, 0.0, 0.0, 0.0, 0.0, 0.0, 0.0, 0.0, -1.0, -3.0, -4.0, -4.0, -4.0, -4.0, -4.0, -4.0, -4.0, -4.0, -4.0, -4.0, -4.0, -4.0, -4.0, -4.0, -4.0, 0.0, 0.0, 8.0, 16.0, 21.0, 23.0, 32.0, 47.0, 74.0, 103.0, 126.0, 153.0, 183.0, 220.0, 288.0, 348.0, 413.0, 471.0, 525.0, 569.0, 623.0, 665.0, 700.0, 721.0, 741.0, 760.0, 786.0, 803.0, 811.0, 815.0, 815.0, 815.0, 815.0, 806.0, 736.0, 607.0, 353.0, 260.0, 5.0, -165.0, -322.0, -453.0, -570.0, -651.0, -724.0, -766.0, -789.0, -802.0, -805.0, -805.0, -805.0]	[-490.0, -490.0, -490.0, -490.0, -490.0, -490.0, -490.0, -490.0, -490.0, -492.0, -492.0, -493.0, -493.0, -493.0, -493.0, -493.0, -493.0, -493.0, -493.0, -493.0, -493.0, -493.0, -493.0, -493.0, -493.0, -493.0, -494.0, -494.0, -488.0, -478.0, -462.0, -433.0, -375.0, -313.0, -266.0, -220.0, -189.0, -155.0, -120.0, -77.0, 5.0, 72.0, 136.0, 192.0, 243.0, 283.0, 330.0, 363.0, 392.0, 411.0, 428.0, 442.0, 460.0, 470.0, 474.0, 477.0, 477.0, 477.0, 477.0, 475.0, 455.0, 419.0, 374.0, 358.0, 330.0, 330.0, 340.0, 360.0, 382.0, 407.0, 426.0, 439.0, 444.0, 446.0, 446.0, 446.0, 446.0]	[0.00010130763985216618, 0.008082356856903061, 0.015260249376296997, 0.03201116842683405, 0.049030375230358914, 0.0654413265583571, 0.08244756271596998, 0.09895715929451399, 0.11570944366394542, 0.13488314463756979, 0.1492884230101481, 0.16723981036921032, 0.18242571741575375, 0.2015099891286809, 0.21573709163931198, 0.23493400326697156, 0.24908840184798464, 0.2682754147972446, 0.2823769067763351, 0.3012580853246618, 0.31570705433841795, 0.3326839358487632, 0.3492266417306382, 0.365441667905543, 0.3821372909878846, 0.40186907147290185, 0.4155217104998883, 0.43476948075112887, 0.44892695132875815, 0.4664117364154663, 0.4822311575699132, 0.49915206045261584, 0.515510446508415, 0.5324176960857585, 0.5488965726690367, 0.5656963023357093, 0.5819696964463219, 0.5991268018260598, 0.6156012410938274, 0.6323586454673205, 0.6488627807120793, 0.6656891343591269, 0.6822229655808769, 0.6990756018494722, 0.7155193211510777, 0.7324026774149388, 0.7488873566908296, 0.7657225849980023, 0.7822161389049143, 0.7990503432229161, 0.8155875877710059, 0.8324234987376258, 0.8489723486127332, 0.8656235983944498, 0.8824212800827809, 0.8990561458922457, 0.9155858810991049, 0.9324139414238743, 0.9486518368939869, 0.9656744570238516, 0.9819208858243655, 0.9991196338378359, 1.0152571773796808, 1.032430325401947, 1.048598247609334, 1.0657550116302446, 1.0819949551078025, 1.0991257778077852, 1.1152240680821706, 1.1324320320563857, 1.148596540937433, 1.165783683594782, 1.1819553604582325, 1.1991725404514, 1.2152933586912695, 1.2337884895678144, 1.2486245302425232]
6	inanimate/n47.jpg	animate	inanimate	right	1.016	[0.0, 0.0, 0.0, 0.0, 0.0, 0.0, 0.0, 0.0, 0.0, 0.0, 0.0, 0.0, 0.0, 0.0, 0.0, 0.0, 0.0, 1.0, 1.0, -3.0, -4.0, -6.0, -8.0, -8.0, -8.0, -8.0, -8.0, -8.0, -8.0, -8.0, -8.0, -8.0, -8.0, -4.0, -3.0, 3.0, 9.0, 20.0, 34.0, 52.0, 77.0, 109.0, 154.0, 213.0, 284.0, 369.0, 458.0, 584.0, 657.0, 720.0, 775.0, 806.0, 823.0, 833.0, 838.0, 841.0, 843.0, 845.0, 847.0, 847.0, 847.0]	[-490.0, -490.0, -490.0, -490.0, -490.0, -490.0, -490.0, -490.0, -490.0, -490.0, -490.0, -490.0, -490.0, -490.0, -490.0, -490.0, -490.0, -490.0, -475.0, -452.0, -444.0, -418.0, -409.0, -389.0, -374.0, -363.0, -348.0, -335.0, -320.0, -301.0, -285.0, -267.0, -248.0, -221.0, -210.0, -178.0, -152.0, -125.0, -95.0, -63.0, -27.0, 19.0, 68.0, 116.0, 162.0, 211.0, 254.0, 309.0, 344.0, 375.0, 402.0, 418.0, 429.0, 436.0, 439.0, 443.0, 446.0, 449.0, 451.0, 451.0, 451.0]	[0.0008833016909193248, 0.006504374236101285, 0.017007191927405074, 0.033448521891841665, 0.050233915564604104, 0.06710737317916937, 0.08343401525053196, 0.10047199536347762, 0.11665766689111479, 0.1338693855504971, 0.15001853441935964, 0.16728589034755714, 0.1833749646320939, 0.20065085389069282, 0.21669930953066796, 0.23393287349608727, 0.2500352597562596, 0.26704115455504507, 0.28339817526284605, 0.3003569661232177, 0.31695326129556634, 0.333676191046834, 0.35008304635994136, 0.36717973576742224, 0.3840528520522639, 0.4005545979598537, 0.4192098140483722, 0.43391751349554397, 0.45159754107589833, 0.46718383178813383, 0.4860124450351577, 0.5004033874429297, 0.5195105284510646, 0.5337506016367115, 0.550960613618372, 0.5671046425122768, 0.5835152525105514, 0.6004791633749846, 0.6169242479954846, 0.6339646174455993, 0.6501103530172259, 0.6668305520724971, 0.6848334807145875, 0.7001115476887207, 0.7174109889019746, 0.7335475084837526, 0.7504356433928479, 0.7668947226775344, 0.7837282443360891, 0.8002501289010979, 0.8171276825014502, 0.8333502179884817, 0.8503049128339626, 0.8670609518885612, 0.8837903669336811, 0.9001921022718307, 0.9170962798525579, 0.9336355724080931, 0.9504155047470704, 0.9668360133946408, 0.9836388150579296]
7	animate/a8.jpg	inanimate	animate	right	1.082	[0.0, 0.0, 0.0, 0.0, 0.0, 0.0, 0.0, 0.0, 0.0, 0.0, 0.0, 0.0, 0.0, 0.0, 0.0, 0.0, 0.0, 0.0, 0.0, 0.0, 0.0, 0.0, 0.0, 0.0, 0.0, 0.0, 0.0, 0.0, 0.0, 0.0, 0.0, -4.0, -39.0, -72.0, -88.0, -118.0, -161.0, -211.0, -264.0, -313.0, -363.0, -403.0, -468.0, -486.0, -524.0, -535.0, -572.0, -597.0, -614.0, -619.0, -620.0, -616.0, -585.0, -459.0, -130.0, 7.0, 376.0, 568.0, 716.0, 822.0, 879.0, 899.0, 900.0, 900.0, 900.0]	[-490.0, -490.0, -490.0, -490.0, -490.0, -490.0, -490.0, -490.0, -490.0, -490.0, -490.0, -490.0, -490.0, -490.0, -490.0, -490.0, -490.0, -490.0, -490.0, -490.0, -490.0, -490.0, -490.0, -490.0, -490.0, -490.0, -490.0, -490.0, -490.0, -490.0, -490.0, -486.0, -460.0, -425.0, -397.0, -344.0, -264.0, -169.0, -65.0, 15.0, 84.0, 139.0, 220.0, 243.0, 289.0, 301.0, 345.0, 372.0, 390.0, 398.0, 403.0, 414.0, 429.0, 451.0, 483.0, 483.0, 483.0, 483.0, 483.0, 483.0, 483.0, 483.0, 483.0, 483.0, 483.0]	[0.005422143643954769, 0.01021070487331599, 0.02567104369518347, 0.04208643233869225, 0.0589704712620005, 0.0754169212304987, 0.09233168014907278, 0.10879656209726818, 0.12562905973754823, 0.14208574968506582, 0.15899607125902548, 0.17542204124038108, 0.19236649610684253, 0.20881772474967875, 0.2256785530189518, 0.2421577709610574, 0.25909164451877587, 0.27538585994625464, 0.2923354348167777, 0.30862930888542905, 0.32569049968151376, 0.3418915311922319, 0.3590165512287058, 0.37519880943000317, 0.39236478944076225, 0.408535442315042, 0.4256857210129965, 0.44186968586291187, 0.4591213404783048, 0.47522304407902993, 0.4923917547566816, 0.5085501196444966, 0.5256642170425039, 0.5418696858687326, 0.5590974471706431, 0.5752281640598085, 0.5923583041294478, 0.6087641354533844, 0.6257577422948088, 0.6422693868516944, 0.6589793459279463, 0.6782062948623206, 0.6922808215022087, 0.7113057012902573, 0.7256898170162458, 0.7424103574012406, 0.7588612447143532, 0.7758087715774309, 0.7923644481052179, 0.8086555915360805, 0.8254474705609027, 0.8419202031509485, 0.8586994528304785, 0.8780929722997826, 0.892138826980954, 0.9096280493831728, 0.9254734118585475, 0.942398410756141, 0.9588646580232307, 0.9756657530379016, 0.991918325831648, 1.0089327539608348, 1.0254713638569228, 1.042360181454569, 1.0587868340953719]
8	inanimate/n2.jpg	animate	inanimate	right	1.069	[0.0, 0.0, 0.0, 0.0, 0.0, 0.0, 0.0, 0.0, -1.0, -1.0, -1.0, -1.0, -1.0, -1.0, -1.0, -1.0, -1.0, -1.0, -1.0, -1.0, -1.0, -1.0, -1.0, -1.0, -1.0, 2.0, 7.0, 15.0, 22.0, 23.0, 6.0, -21.0, -53.0, -84.0, -130.0, -170.0, -235.0, -287.0, -338.0, -399.0, -453.0, -504.0, -552.0, -596.0, -636.0, -666.0, -683.0, -690.0, -693.0, -692.0, -668.0, -578.0, -426.0, -225.0, 7.0, 229.0, 428.0, 587.0, 709.0, 782.0, 810.0, 810.0, 810.0, 810.0]	[-490.0, -490.0, -490.0, -490.0, -490.0, -490.0, -490.0, -490.0, -493.0, -494.0, -494.0, -494.0, -494.0, -494.0, -494.0, -494.0, -494.0, -494.0, -494.0, -494.0, -494.0, -494.0, -494.0, -494.0, -494.0, -494.0, -488.0, -474.0, -451.0, -416.0, -356.0, -311.0, -264.0, -223.0, -171.0, -114.0, -35.0, 11.0, 56.0, 104.0, 151.0, 195.0, 235.0, 265.0, 290.0, 307.0, 318.0, 324.0, 329.0, 342.0, 361.0, 389.0, 410.0, 428.0, 433.0, 437.0, 455.0, 479.0, 497.0, 507.0, 511.0, 511.0, 511.0, 511.0]	[0.0012246346741449088, 0.007356000103754923, 0.01733828493161127, 0.03391922012087889, 0.051127866754541174, 0.06727667432278395, 0.08438257972011343, 0.1006006778916344, 0.11775812457199208, 0.13394106543273665, 0.15117633604677394, 0.1672896449745167, 0.1844573316629976, 0.20064505116897635, 0.21782707385136746, 0.2339513054175768, 0.2512415306700859, 0.26728759697289206, 0.28441500634653494, 0.3006105765234679, 0.3177864552126266, 0.333977588074049, 0.35107496014097705, 0.36745416748453863, 0.3843982810503803, 0.40360986997256987, 0.41763114868081175, 0.4360805409378372, 0.4509944055462256, 0.468864896974992, 0.4843569797521923, 0.5018223088409286, 0.5176946366264019, 0.5347998593642842, 0.5510896374762524, 0.5677920872112736, 0.5843467397498898, 0.6008426829939708, 0.6174495595041662, 0.6340601906704251, 0.6508551416627597, 0.6674609941546805, 0.6840890333114658, 0.7006621178297792, 0.717674839310348, 0.7339144414581824, 0.7508107683679555, 0.7677364499249961, 0.7839292894350365, 0.8010829814593308, 0.8173304342781194, 0.8344786649686284, 0.8506953977921512, 0.8676855913072359, 0.8841528625926003, 0.9010956107813399, 0.9174816448066849, 0.9343544197326992, 0.950869818974752, 0.9676289300259668, 0.984210206544958, 1.0010683041473385, 1.0174290795112029, 1.0343701210513245]
9	inanimate/n41.jpg	inanimate	animate	left	0.861	[0.0, 0.0, 0.0, 0.0, 0.0, 0.0, 0.0, 0.0, 0.0, -2.0, -6.0, -8.0, -11.0, -14.0, -18.0, -21.0, -24.0, -28.0, -29.0, -29.0, -29.0, -33.0, -34.0, -36.0, -39.0, -45.0, -55.0, -67.0, -85.0, -115.0, -153.0, -213.0, -275.0, -385.0, -424.0, -541.0, -619.0, -680.0, -721.0, -746.0, -758.0, -761.0, -761.0, -761.0, -760.0, -760.0, -760.0, -760.0, -760.0, -760.0, -760.0, -760.0]	[-490.0, -490.0, -490.0, -490.0, -490.0, -490.0, -490.0, -490.0, -490.0, -489.0, -469.0, -453.0, -439.0, -420.0, -399.0, -377.0, -353.0, -329.0, -301.0, -270.0, -237.0, -205.0, -171.0, -151.0, -130.0, -111.0, -88.0, -61.0, -40.0, -14.0, 12.0, 55.0, 96.0, 163.0, 189.0, 257.0, 307.0, 351.0, 382.0, 403.0, 414.0, 417.0, 417.0, 418.0, 420.0, 420.0, 420.0, 420.0, 420.0, 420.0, 420.0, 420.0]	[0.003480163461063057, 0.009555208933306858, 0.02192477704375051, 0.038790383987361565, 0.055319777893600985, 0.07210209956974722, 0.088330096390564, 0.10552884437493049, 0.12166604658705182, 0.13886752526741475, 0.15496035417891107, 0.1721713901788462, 0.18830108307884075, 0.20562851362046786, 0.22165444126585498, 0.2388088159787003, 0.25500199681846425, 0.27215091019752435, 0.2882836750941351, 0.3054762790852692, 0.32165614794939756, 0.33881905596354045, 0.3551443326869048, 0.37228334741666913, 0.3884396642970387, 0.40557936165714636, 0.42200089432299137, 0.4386944693978876, 0.4576835091866087, 0.47206352892681025, 0.48840792031842284, 0.5055244070535991, 0.5218527557735797, 0.5387514720205218, 0.5578958183468785, 0.572096638235962, 0.5912764832028188, 0.6055005137168337, 0.6244540548941586, 0.6387395253696013, 0.6576377705787309, 0.6720928835566156, 0.6893052848754451, 0.7054909564030822, 0.7223927446466405, 0.7388593332725577, 0.7554522150894627, 0.7720133529801387, 0.7883932429831475, 0.8051950206572656, 0.8249070038436912, 0.8384026296553202]
10	animate/a42.jpg	animate	inanimate	left	0.773	[0.0, 0.0, 0.0, 0.0, 0.0, 0.0, 0.0, 0.0, 0.0, 0.0, 0.0, -2.0, -2.0, -2.0, -5.0, -7.0, -11.0, -13.0, -17.0, -22.0, -25.0, -31.0, -41.0, -60.0, -98.0, -148.0, -205.0, -272.0, -344.0, -418.0, -497.0, -571.0, -659.0, -691.0, -718.0, -737.0, -749.0, -756.0, -760.0, -760.0, -760.0, -760.0, -760.0, -760.0, -760.0, -760.0]	[-490.0, -490.0, -490.0, -490.0, -490.0, -490.0, -490.0, -490.0, -490.0, -490.0, -490.0, -489.0, -479.0, -466.0, -451.0, -436.0, -414.0, -393.0, -371.0, -332.0, -302.0, -270.0, -229.0, -185.0, -128.0, -72.0, -9.0, 51.0, 107.0, 160.0, 214.0, 269.0, 336.0, 364.0, 387.0, 405.0, 421.0, 433.0, 441.0, 443.0, 443.0, 443.0, 443.0, 443.0, 443.0, 443.0]	[0.015080162062076852, 0.02137912201578729, 0.0347733719390817, 0.051989186584251, 0.07078912787255831, 0.08502271570614539, 0.10186886668088846, 0.11924476650892757, 0.13465800136327744, 0.1516154269047547, 0.16850731646991335, 0.185364390083123, 0.20129269649623893, 0.21847676718607545, 0.23458768674754538, 0.25147821102291346, 0.2684158392366953, 0.2848008492437657, 0.30455003771930933, 0.318267871363787, 0.3350781823392026, 0.3516239602176938, 0.3685977697314229, 0.3850534356897697, 0.4016640668560285, 0.4182944953208789, 0.43515498226042837, 0.45159050959046, 0.46841686323750764, 0.4848752598336432, 0.5017613467643969, 0.5182088207220659, 0.5350969556602649, 0.5515956295712385, 0.5684806925128214, 0.584884134499589, 0.6019098266551737, 0.6182252047292423, 0.6351153876457829, 0.6516434162040241, 0.668446217867313, 0.6846837720077019, 0.7018224453786388, 0.717986271600239, 0.7351740969170351, 0.7513351924717426]
11	inanimate/n18.jpg	inanimate	animate	left	0.818	[0.0, 0.0, 0.0, 0.0, 0.0, 0.0, 0.0, 0.0, 0.0, 0.0, 0.0, 0.0, 0.0, -2.0, -9.0, -16.0, -24.0, -39.0, -52.0, -74.0, -88.0, -97.0, -106.0, -114.0, -123.0, -135.0, -148.0, -170.0, -198.0, -273.0, -344.0, -423.0, -506.0, -579.0, -645.0, -704.0, -743.0, -767.0, -781.0, -794.0, -805.0, -811.0, -817.0, -817.0, -817.0, -817.0, -817.0, -817.0, -817.0]	[-490.0, -490.0, -490.0, -490.0, -490.0, -490.0, -490.0, -490.0, -490.0, -490.0, -490.0, -490.0, -490.0, -484.0, -462.0, -438.0, -409.0, -362.0, -320.0, -251.0, -205.0, -170.0, -138.0, -109.0, -84.0, -57.0, -27.0, 7.0, 39.0, 96.0, 144.0, 187.0, 236.0, 280.0, 318.0, 355.0, 383.0, 402.0, 417.0, 433.0, 445.0, 452.0, 457.0, 457.0, 457.0, 457.0, 457.0, 457.0, 457.0]	[0.005680396279785782, 0.011057074356358498, 0.02689253818243742, 0.04318026825785637, 0.06032849897746928, 0.07649915185174905, 0.09364396921591833, 0.10989824865828268, 0.12702599939075299, 0.14320382024743594, 0.16033020563190803, 0.176541818480473, 0.1937398838053923, 0.20987401402089745, 0.22701405273983255, 0.2431922149262391, 0.2604247549024876, 0.27655171713558957, 0.29371974515379407, 0.3099303339840844, 0.3270690073550213, 0.3435093133302871, 0.36047015216900036, 0.37677255959715694, 0.3936664971988648, 0.410085640498437, 0.42692291681305505, 0.44334888679441065, 0.4603226963081397, 0.47712515664170496, 0.49366308384924196, 0.5126995689352043, 0.5269447621249128, 0.5455692582181655, 0.5603168936504517, 0.579406626697164, 0.5936139319092035, 0.6111523062572815, 0.6270116633968428, 0.6441667207691353, 0.6603401042812038, 0.6772197058890015, 0.6936849291669205, 0.7103890855796635, 0.727059791359352, 0.7435622199554928, 0.7599366486247163, 0.7796547758043744, 0.793473644007463]
12	animate/a23.jpg	animate	inanimate	left	0.893	[0.0, 0.0, 0.0, 0.0, 0.0, 0.0, 0.0, 0.0, 0.0, 0.0, 0.0, 0.0, 0.0, -2.0, -6.0, -6.0, -6.0, -6.0, -6.0, -6.0, -6.0, -6.0, -6.0, -6.0, -6.0, -6.0, -6.0, -6.0, -4.0, -1.0, -3.0, -14.0, -45.0, -95.0, -167.0, -242.0, -310.0, -376.0, -448.0, -509.0, -568.0, -616.0, -665.0, -691.0, -714.0, -734.0, -753.0, -769.0, -781.0, -790.0, -798.0, -806.0, -808.0, -808.0]	[-490.0, -490.0, -490.0, -490.0, -490.0, -490.0, -490.0, -490.0, -490.0, -490.0, -490.0, -490.0, -490.0, -489.0, -489.0, -489.0, -489.0, -489.0, -489.0, -489.0, -489.0, -489.0, -489.0, -489.0, -489.0, -489.0, -489.0, -489.0, -493.0, -493.0, -484.0, -461.0, -413.0, -332.0, -232.0, -151.0, -73.0, 3.0, 91.0, 163.0, 224.0, 263.0, 298.0, 316.0, 329.0, 343.0, 355.0, 365.0, 371.0, 376.0, 384.0, 396.0, 402.0, 403.0]	[0.014008717669639736, 0.02011072845198214, 0.026341421820688993, 0.04612030627322383, 0.060138171626022086, 0.07916578205185942, 0.09345534854219295, 0.11270687344949692, 0.1268472773663234, 0.14582573584630154, 0.16013066231971607, 0.17669965082313865, 0.1934014179278165, 0.21027419285383075, 0.22676774678984657, 0.24306435152539052, 0.25979410792933777, 0.2796037123480346, 0.293094900844153, 0.3108496803615708, 0.3266714908531867, 0.3437231243005954, 0.36002587305847555, 0.3768324293778278, 0.3933372473111376, 0.41013288096291944, 0.42664657355635427, 0.4435336844762787, 0.4600313343980815, 0.47682253073435277, 0.49334475662908517, 0.5101441449660342, 0.5266390642209444, 0.5437087883183267, 0.5599419051432051, 0.5768088774057105, 0.5931140155007597, 0.6103175421594642, 0.626703917485429, 0.6435306124622002, 0.6598074199282564, 0.6768819226708729, 0.6933420259738341, 0.7100827050162479, 0.7267090374953113, 0.7434152419154998, 0.7597313026490156, 0.7768696346902288, 0.793214367411565, 0.8101919315813575, 0.8266694428748451, 0.8434186552476604, 0.8598115159256849, 0.876944386633113]
13	animate/a38.jpg	animate	inanimate	left	1.16	[0.0, 0.0, 0.0, 0.0, 0.0, 0.0, 0.0, 0.0, 0.0, 0.0, 0.0, -1.0, -2.0, -5.0, -7.0, -9.0, -12.0, -16.0, -21.0, -25.0, -25.0, -25.0, -25.0, -25.0, -25.0, -25.0, -28.0, -34.0, -40.0, -52.0, -67.0, -99.0, -161.0, -244.0, -323.0, -406.0, -536.0, -609.0, -676.0, -737.0, -803.0, -867.0, -915.0, -946.0, -960.0, -960.0, -960.0, -960.0, -960.0, -960.0, -960.0, -960.0, -960.0, -960.0, -960.0, -960.0, -960.0, -960.0, -960.0, -928.0, -894.0, -872.0, -860.0, -856.0, -853.0, -851.0, -851.0, -851.0, -851.0, -851.0, -851.0]	[-490.0, -490.0, -490.0, -490.0, -490.0, -490.0, -490.0, -490.0, -490.0, -490.0, -490.0, -484.0, -480.0, -465.0, -450.0, -433.0, -407.0, -373.0, -335.0, -300.0, -261.0, -223.0, -171.0, -138.0, -107.0, -84.0, -62.0, -42.0, -25.0, -9.0, 4.0, 23.0, 53.0, 85.0, 120.0, 156.0, 206.0, 242.0, 280.0, 315.0, 351.0, 388.0, 415.0, 438.0, 453.0, 460.0, 467.0, 485.0, 496.0, 500.0, 500.0, 500.0, 500.0, 500.0, 500.0, 500.0, 500.0, 500.0, 500.0, 479.0, 454.0, 440.0, 435.0, 432.0, 432.0, 432.0, 432.0, 433.0, 433.0, 433.0, 433.0]	[0.008542473806301132, 0.014647556585259736, 0.019390037865377963, 0.031762677972437814, 0.04869382086326368, 0.06491703903884627, 0.08202226177672856, 0.09817550663137808, 0.11533670799690299, 0.13153432618128136, 0.14862077560974285, 0.16486140174674802, 0.18217620297218673, 0.19827346922829747, 0.21543467059382237, 0.23164935540989973, 0.2487310261640232, 0.2651160362001974, 0.2822816748812329, 0.29845983706763946, 0.3153708413010463, 0.3339478921261616, 0.3488016821211204, 0.36507610022090375, 0.3821407043142244, 0.39883871673373505, 0.4154592465492897, 0.4329597329488024, 0.44874945815536194, 0.4658481955702882, 0.4820942830410786, 0.4993657349550631, 0.5154503718949854, 0.5321330243314151, 0.5486381835944485, 0.5652450600755401, 0.5818205339310225, 0.5982864398974925, 0.6151185961789452, 0.631523403513711, 0.6483466851641424, 0.6666728561976925, 0.6817850352963433, 0.6990486365684774, 0.7150056149403099, 0.7320244804141112, 0.7484480610874016, 0.765322201361414, 0.7816993606975302, 0.7988158474327065, 0.8149462229921483, 0.832489376043668, 0.8482473572366871, 0.8654297212488018, 0.8815836487920024, 0.8990493192395661, 0.9151977854489814, 0.9322729708801489, 0.9484449890733231, 0.9654781905410346, 0.9817942513036542, 0.998653714224929, 1.014973529643612, 1.0320019524369854, 1.048436797078466, 1.0653358546551317, 1.081837941921549, 1.0987090101989452, 1.1151336148323026, 1.1320091204543132, 1.1485217890294734]
14	animate/a4.jpg	animate	inanimate	left	0.764	[0.0, 0.0, 0.0, 0.0, 0.0, 0.0, 0.0, 0.0, 0.0, 0.0, 0.0, -5.0, -10.0, -17.0, -18.0, -24.0, -26.0, -32.0, -32.0, -32.0, -35.0, -37.0, -42.0, -52.0, -64.0, -81.0, -113.0, -162.0, -221.0, -283.0, -353.0, -424.0, -505.0, -585.0, -700.0, -759.0, -803.0, -820.0, -834.0, -843.0, -852.0, -858.0, -863.0, -866.0, -867.0, -867.0]	[-490.0, -490.0, -490.0, -490.0, -490.0, -490.0, -490.0, -490.0, -490.0, -490.0, -484.0, -446.0, -410.0, -369.0, -327.0, -281.0, -236.0, -190.0, -156.0, -130.0, -110.0, -93.0, -80.0, -60.0, -45.0, -30.0, -9.0, 15.0, 40.0, 66.0, 97.0, 129.0, 171.0, 215.0, 283.0, 317.0, 348.0, 362.0, 374.0, 389.0, 403.0, 420.0, 438.0, 448.0, 449.0, 449.0]	[0.015766582801006734, 0.021068167610792443, 0.02957589368452318, 0.046496113936882466, 0.06601285460055806, 0.07960268834722228, 0.09940068743890151, 0.11302055849228054, 0.13253149649244733, 0.1463653833779972, 0.16416248818859458, 0.17958801102940924, 0.19797016066149808, 0.21305298514198512, 0.23009437858127058, 0.24648519128095359, 0.2639320883899927, 0.279839232127415, 0.2970420761266723, 0.31305127847008407, 0.33003635198110715, 0.34658315384876914, 0.363355235545896, 0.379886677430477, 0.39662326048710383, 0.41325641961884685, 0.4301162238989491, 0.4465695005201269, 0.46344227547524497, 0.47984537613228895, 0.496759452362312, 0.5129785745230038, 0.5300510292872787, 0.5465404872084036, 0.5633688888628967, 0.5800283306452911, 0.5967236123979092, 0.6132328676467296, 0.6300861866038758, 0.646538439206779, 0.6634064354875591, 0.6798153388372157, 0.6967427270428743, 0.7132311609748285, 0.730012458661804, 0.7464384286431596]
15	animate/a42.jpg	inanimate	animate	right	0.931	[0.0, 0.0, 0.0, 0.0, 0.0, 0.0, 0.0, 0.0, 0.0, -2.0, -2.0, -2.0, -2.0, -2.0, -2.0, -2.0, -2.0, -2.0, -8.0, -11.0, -25.0, -40.0, -70.0, -124.0, -192.0, -268.0, -340.0, -419.0, -489.0, -563.0, -665.0, -694.0, -745.0, -767.0, -780.0, -786.0, -786.0, -786.0, -786.0, -786.0, -780.0, -761.0, -684.0, -551.0, -246.0, -19.0, 194.0, 370.0, 527.0, 652.0, 747.0, 786.0, 794.0, 794.0, 794.0, 794.0]	[-490.0, -490.0, -490.0, -490.0, -490.0, -490.0, -490.0, -490.0, -490.0, -471.0, -454.0, -431.0, -396.0, -358.0, -325.0, -286.0, -243.0, -202.0, -154.0, -141.0, -101.0, -78.0, -47.0, -10.0, 36.0, 85.0, 128.0, 172.0, 212.0, 253.0, 301.0, 316.0, 348.0, 360.0, 369.0, 375.0, 378.0, 381.0, 385.0, 392.0, 401.0, 414.0, 437.0, 460.0, 496.0, 501.0, 503.0, 503.0, 502.0, 479.0, 450.0, 428.0, 423.0, 423.0, 423.0, 423.0]	[0.014833378285402432, 0.024484228721121326, 0.030757930042454973, 0.04458840357256122, 0.06175882092793472, 0.07791786847519688, 0.09519682973041199, 0.11122173338662833, 0.1283214947907254, 0.14457201957702637, 0.16169294365681708, 0.17790592179517262, 0.19516440309234895, 0.2112193440552801, 0.2284921613172628, 0.24458635557675734, 0.261741412919946, 0.2781752335722558, 0.2949500459362753, 0.3115507784241345, 0.32826517484500073, 0.3447126488026697, 0.36169703962514177, 0.38080998332588933, 0.39514767777291127, 0.4141333042352926, 0.4282900921534747, 0.447379142511636, 0.4616495943337213, 0.4806993914244231, 0.4950131925288588, 0.5139640030392911, 0.5282999908085912, 0.5474238571478054, 0.5616362823639065, 0.5790900061256252, 0.5952842109836638, 0.6119043994694948, 0.628401708061574, 0.6449055019766092, 0.6617499462736305, 0.678091265639523, 0.6946735661767889, 0.7143176240788307, 0.7281337616150267, 0.7476061290071812, 0.7614833651459776, 0.7787254624417983, 0.7947530967649072, 0.8118200901953969, 0.8281296656059567, 0.8451505790872034, 0.8613263519655447, 0.878603606543038, 0.8948118060361594, 0.9119081541139167]
16	animate/a76.jpg	inanimate	animate	right	1.316	[0.0, 0.0, 0.0, 0.0, 0.0, 0.0, 0.0, 0.0, 0.0, 0.0, 2.0, 16.0, 30.0, 48.0, 51.0, 51.0, 51.0, 51.0, 51.0, 51.0, 51.0, 51.0, 51.0, 51.0, 52.0, 54.0, 56.0, 58.0, 79.0, 91.0, 85.0, 53.0, 11.0, -28.0, -63.0, -103.0, -159.0, -243.0, -320.0, -430.0, -513.0, -589.0, -664.0, -715.0, -750.0, -775.0, -798.0, -822.0, -837.0, -840.0, -840.0, -840.0, -840.0, -811.0, -702.0, -524.0, -292.0, -44.0, 175.0, 355.0, 478.0, 560.0, 570.0, 579.0, 579.0, 579.0, 579.0, 579.0, 579.0, 579.0, 579.0, 579.0, 587.0, 626.0, 697.0, 744.0, 792.0, 841.0, 867.0, 872.0]	[-490.0, -490.0, -490.0, -490.0, -490.0, -490.0, -490.0, -490.0, -490.0, -490.0, -490.0, -488.0, -480.0, -474.0, -474.0, -474.0, -474.0, -474.0, -474.0, -474.0, -474.0, -474.0, -474.0, -474.0, -474.0, -474.0, -470.0, -455.0, -408.0, -336.0, -282.0, -206.0, -122.0, -45.0, 16.0, 73.0, 131.0, 190.0, 233.0, 282.0, 316.0, 351.0, 383.0, 405.0, 420.0, 433.0, 446.0, 460.0, 468.0, 470.0, 470.0, 470.0, 470.0, 466.0, 448.0, 421.0, 394.0, 394.0, 397.0, 422.0, 446.0, 461.0, 464.0, 468.0, 468.0, 468.0, 468.0, 468.0, 468.0, 468.0, 468.0, 468.0, 468.0, 452.0, 437.0, 437.0, 448.0, 462.0, 465.0, 466.0]	[0.010628360003465787, 0.01505067088874057, 0.02260437110089697, 0.03564192799967714, 0.05206141265807673, 0.06868637978914194, 0.08842908294172958, 0.10210902860853821, 0.12029013308347203, 0.13548832811648026, 0.1531273957225494, 0.16884305165149271, 0.1881372431816999, 0.20213258056901395, 0.2190132061659824, 0.23546204547164962, 0.25306834510411136, 0.2688314463302959, 0.2869651055370923, 0.3021714925416745, 0.32034577036392875, 0.33519102702848613, 0.3529840358532965, 0.368611627840437, 0.38614419955410995, 0.4021209752536379, 0.41916407537064515, 0.43539036554284394, 0.45292225456796587, 0.4687976543500554, 0.48561581602552906, 0.5018352795159444, 0.5189940915151965, 0.5354507814918179, 0.5523337964259554, 0.5688055050268304, 0.5856188879988622, 0.6020943512849044, 0.6189698568778113, 0.6354272295138799, 0.6523266284202691, 0.6687904863792937, 0.6855711013777182, 0.7021134659298696, 0.7189589342160616, 0.7354371281689964, 0.7522382231545635, 0.7687816116958857, 0.7856513146543875, 0.8022008471889421, 0.8189879475394264, 0.8352449576486833, 0.8523925057088491, 0.868649515818106, 0.8856202533352189, 0.9019274394377135, 0.9190207155188546, 0.9352497363288421, 0.952348132384941, 0.9685068386024795, 0.9856932986003812, 1.0018567834922578, 1.019031638163142, 1.035193075047573, 1.0523433537455276, 1.0685457505751401, 1.0857462052372284, 1.1019045701250434, 1.1190326621581335, 1.1351869310310576, 1.152401039027609, 1.168641665164614, 1.1856868132890668, 1.2020940099610016, 1.219031979504507, 1.235371250892058, 1.2522573378228117, 1.268730411742581, 1.2857318692549597, 1.3020786499546375]
17	inanimate/n67.jpg	animate	inanimate	right	1.069	[0.0, 0.0, 0.0, 0.0, 0.0, 0.0, 0.0, 0.0, 0.0, 0.0, 0.0, 0.0, 0.0, 0.0, 0.0, 0.0, 0.0, 0.0, 0.0, 0.0, 0.0, 0.0, -5.0, -10.0, -24.0, -53.0, -96.0, -154.0, -219.0, -309.0, -405.0, -497.0, -596.0, -692.0, -768.0, -817.0, -837.0, -842.0, -842.0, -842.0, -842.0, -842.0, -842.0, -842.0, -842.0, -842.0, -817.0, -725.0, -482.0, -261.0, -26.0, 195.0, 381.0, 524.0, 624.0, 700.0, 747.0, 778.0, 802.0, 824.0, 825.0, 825.0, 825.0, 825.0]	[-490.0, -490.0, -490.0, -490.0, -490.0, -490.0, -490.0, -490.0, -490.0, -488.0, -468.0, -434.0, -407.0, -364.0, -307.0, -245.0, -182.0, -130.0, -89.0, -63.0, -32.0, -26.0, -3.0, 10.0, 28.0, 56.0, 84.0, 115.0, 145.0, 192.0, 244.0, 291.0, 331.0, 364.0, 399.0, 430.0, 445.0, 453.0, 458.0, 461.0, 461.0, 461.0, 461.0, 461.0, 461.0, 464.0, 465.0, 465.0, 465.0, 467.0, 467.0, 467.0, 467.0, 467.0, 467.0, 467.0, 467.0, 463.0, 460.0, 457.0, 457.0, 457.0, 457.0, 457.0]	[0.0017595035897102207, 0.009069833351531997, 0.01861862521036528, 0.03524325101170689, 0.0524184470414184, 0.06860855588456616, 0.08582266385201365, 0.10191719944123179, 0.1190831794810947, 0.13526612034183927, 0.15243005234515294, 0.16886148366029374, 0.1857714639045298, 0.2020957166387234, 0.21915417673881166, 0.23555625340668485, 0.2524686229880899, 0.27140816950122826, 0.28566735732601956, 0.3045990531682037, 0.3189565449138172, 0.335493789461907, 0.3524423403432593, 0.36878365973825566, 0.3857615652377717, 0.4049134209053591, 0.419117995450506, 0.4380107793258503, 0.452315705770161, 0.4695796483720187, 0.4858322211948689, 0.5027579027228057, 0.5192029873724096, 0.5358791544858832, 0.5523512044164818, 0.5686809184844606, 0.5855181947699748, 0.6019926340668462, 0.6188480010023341, 0.6355149521259591, 0.6521873645542655, 0.6688290570164099, 0.6856263973459136, 0.7022124525392428, 0.7189678089052904, 0.7355347494303714, 0.7523402817605529, 0.7688485130202025, 0.785691250639502, 0.8022090392187238, 0.818946987594245, 0.8353709095681552, 0.8522563138394617, 0.8688611423422117, 0.8857219706114847, 0.9021721752360463, 0.9187916810624301, 0.9357518372416962, 0.9519921220489778, 0.9690137181896716, 0.9853185149549972, 1.0024326123530045, 1.0186022412090097, 1.0357549092441332]
18	inanimate/n47.jpg	inanimate	animate	left	0.835	[0.0, 0.0, 0.0, 0.0, 0.0, 0.0, 0.0, 0.0, 1.0, 5.0, 10.0, 15.0, 20.0, 21.0, 21.0, 21.0, 21.0, 21.0, 21.0, 20.0, 20.0, 16.0, 12.0, 7.0, -2.0, -13.0, -32.0, -67.0, -123.0, -193.0, -276.0, -372.0, -461.0, -544.0, -606.0, -648.0, -682.0, -694.0, -700.0, -707.0, -714.0, -722.0, -727.0, -731.0, -735.0, -737.0, -737.0, -741.0, -741.0, -741.0]	[-490.0, -490.0, -490.0, -490.0, -490.0, -490.0, -490.0, -490.0, -490.0, -482.0, -464.0, -438.0, -401.0, -370.0, -329.0, -293.0, -255.0, -219.0, -185.0, -159.0, -131.0, -104.0, -81.0, -64.0, -43.0, -28.0, -11.0, 6.0, 28.0, 54.0, 86.0, 126.0, 164.0, 212.0, 251.0, 282.0, 311.0, 323.0, 331.0, 344.0, 356.0, 367.0, 374.0, 380.0, 386.0, 396.0, 400.0, 413.0, 416.0, 416.0]	[0.00039621940231882036, 0.007042656390694901, 0.015965102124027908, 0.03259314125170931, 0.04932084964821115, 0.06636224311660044, 0.082597749249544, 0.09960808142204769, 0.11591765683260746, 0.13292355166049674, 0.1492457563872449, 0.1662482378887944, 0.18269059184240177, 0.19957497209543362, 0.21588761953171343, 0.2329788476054091, 0.2494911748508457, 0.26621615258045495, 0.28277353578596376, 0.2995005614939146, 0.3159606647968758, 0.3328614290221594, 0.34943451356957667, 0.3662482378713321, 0.3825465493137017, 0.39967430001706816, 0.41578726761508733, 0.4329122876515612, 0.4491088818467688, 0.46619806191301905, 0.482453365373658, 0.4996384600526653, 0.5158179875870701, 0.5329092156607658, 0.5491337991552427, 0.5662844191829208, 0.582478965370683, 0.5996394840476569, 0.615876014198875, 0.6329788475995883, 0.6491314098238945, 0.666268035187386, 0.6824902293446939, 0.6996422147203702, 0.7158231075736694, 0.7328453863738105, 0.7491764657897875, 0.7663554164464585, 0.7827991357480641, 0.7996353880444076]
19	inanimate/n17.jpg	animate	inanimate	right	1.031	[0.0, 0.0, 0.0, 0.0, 0.0, 0.0, 0.0, 0.0, 0.0, 0.0, 0.0, 0.0, 0.0, 9.0, 17.0, 23.0, 25.0, 25.0, 25.0, 25.0, 21.0, 9.0, -15.0, -71.0, -161.0, -261.0, -418.0, -537.0, -664.0, -793.0, -915.0, -960.0, -960.0, -960.0, -960.0, -960.0, -960.0, -959.0, -954.0, -944.0, -927.0, -905.0, -884.0, -861.0, -829.0, -759.0, -658.0, -515.0, -302.0, -48.0, 362.0, 603.0, 818.0, 959.0, 959.0, 959.0, 959.0, 959.0, 959.0, 959.0, 959.0, 959.0]	[-490.0, -490.0, -490.0, -490.0, -490.0, -490.0, -490.0, -490.0, -469.0, -425.0, -357.0, -284.0, -222.0, -136.0, -84.0, -48.0, -25.0, -12.0, -5.0, 0.0, 6.0, 15.0, 28.0, 51.0, 76.0, 105.0, 153.0, 186.0, 223.0, 259.0, 296.0, 338.0, 357.0, 364.0, 371.0, 381.0, 384.0, 396.0, 405.0, 418.0, 433.0, 450.0, 460.0, 466.0, 470.0, 470.0, 470.0, 470.0, 470.0, 457.0, 410.0, 405.0, 405.0, 405.0, 403.0, 403.0, 403.0, 403.0, 403.0, 403.0, 403.0, 403.0]	[0.005037666123826057, 0.010079155152197927, 0.025240486225811765, 0.0419535172986798, 0.05864436170668341, 0.07541029941057786, 0.09204721319838427, 0.10869778032065369, 0.1251647102762945, 0.14209243984078057, 0.15851363114779815, 0.17549017132841982, 0.1917990640795324, 0.20876809494802728, 0.22501042773365043, 0.24221190641401336, 0.2583330659836065, 0.2755628752638586, 0.29163454155786894, 0.30884933221386746, 0.3250479743874166, 0.3421654851117637, 0.3583719779562671, 0.37552669396973215, 0.3917028081777971, 0.4088943881797604, 0.42503705172566697, 0.44222043972695246, 0.45855493246926926, 0.4754741286742501, 0.4917785841098521, 0.508941492123995, 0.5272915564710274, 0.542168215761194, 0.5608739491435699, 0.5756113445677329, 0.5945338244200684, 0.6087189429963473, 0.6262143093917985, 0.642200301081175, 0.6590181213978212, 0.6756854138511699, 0.6924745621799957, 0.7088896094937809, 0.725030907720793, 0.7419716079311911, 0.7585846284346189, 0.7752334888791665, 0.7919140933081508, 0.8086162017425522, 0.8264894238091074, 0.8419340613181703, 0.8592652465158608, 0.8753034621768165, 0.8921216238231864, 0.9084151565621141, 0.9255091153318062, 0.942008471902227, 0.9587443722994067, 0.9753304274636321, 0.9921373251418117, 1.0085861644183751]
20	animate/a80.jpg	inanimate	animate	right	1.052	[0.0, 0.0, 0.0, 0.0, 0.0, 0.0, 0.0, 0.0, 1.0, 2.0, 7.0, 13.0, 18.0, 25.0, 34.0, 43.0, 58.0, 71.0, 77.0, 78.0, 78.0, 78.0, 76.0, 73.0, 69.0, 65.0, 57.0, 39.0, -20.0, -95.0, -184.0, -273.0, -365.0, -457.0, -535.0, -594.0, -627.0, -643.0, -652.0, -659.0, -662.0, -665.0, -666.0, -666.0, -659.0, -617.0, -508.0, -348.0, -131.0, 96.0, 317.0, 511.0, 716.0, 789.0, 828.0, 847.0, 852.0, 852.0, 852.0, 853.0, 855.0, 859.0, 860.0]	[-490.0, -490.0, -490.0, -490.0, -490.0, -490.0, -490.0, -489.0, -483.0, -475.0, -462.0, -443.0, -422.0, -398.0, -368.0, -335.0, -278.0, -232.0, -193.0, -163.0, -135.0, -110.0, -86.0, -63.0, -42.0, -28.0, -10.0, 11.0, 47.0, 75.0, 101.0, 126.0, 153.0, 180.0, 209.0, 236.0, 258.0, 271.0, 282.0, 296.0, 305.0, 314.0, 320.0, 325.0, 340.0, 370.0, 410.0, 438.0, 452.0, 452.0, 452.0, 452.0, 452.0, 452.0, 452.0, 450.0, 450.0, 450.0, 450.0, 450.0, 451.0, 455.0, 456.0]	[0.0032064143451862037, 0.008790622930973768, 0.02155340669560246, 0.0382992057420779, 0.05478900499292649, 0.07143786546657793, 0.08916704499279149, 0.10492673289263621, 0.12224801944103092, 0.13816984050208703, 0.15512897272128612, 0.17144878811086528, 0.1887335520295892, 0.20481614096206613, 0.2217397745407652, 0.238190661824774, 0.25503647144068964, 0.27149486806592904, 0.2884748215728905, 0.3048553942644503, 0.32168993991217576, 0.33811147254891694, 0.3549320235324558, 0.3714900894265156, 0.38836047501536086, 0.40480726631358266, 0.4216319132829085, 0.4381671098526567, 0.45497639683890156, 0.47152900137007236, 0.4883219043840654, 0.5047164717398118, 0.5217056412366219, 0.5379640166938771, 0.5550678740837611, 0.5713279562187381, 0.5883468216925394, 0.6046109998133034, 0.6216756039357278, 0.6379309073963668, 0.6550801620760467, 0.671275390923256, 0.6883884643320926, 0.7046796077629551, 0.7216848199022934, 0.737867760763038, 0.7550968874129467, 0.7712020043400116, 0.7883335096994415, 0.8045557038567495, 0.8217093958810437, 0.8379029180796351, 0.855068215430947, 0.8712357963086106, 0.8883990456524771, 0.9047188610711601, 0.9216738972463645, 0.9379636753583327, 0.955283596587833, 0.9712238496285863, 0.988357744354289, 1.0045625305210706, 1.0217472838703543]
21	animate/a24.jpg	inanimate	animate	right	0.933	[0.0, 0.0, 0.0, 0.0, 0.0, 0.0, 0.0, 0.0, 0.0, 0.0, 2.0, 5.0, 13.0, 18.0, 23.0, 29.0, 30.0, 30.0, 30.0, 29.0, 21.0, -1.0, -10.0, -50.0, -85.0, -132.0, -187.0, -253.0, -320.0, -387.0, -464.0, -539.0, -606.0, -658.0, -691.0, -715.0, -725.0, -725.0, -724.0, -703.0, -646.0, -535.0, -372.0, -178.0, 46.0, 378.0, 486.0, 745.0, 815.0, 959.0, 959.0, 959.0, 959.0, 959.0, 959.0, 959.0]	[-490.0, -490.0, -490.0, -490.0, -490.0, -490.0, -490.0, -490.0, -490.0, -484.0, -471.0, -457.0, -417.0, -382.0, -346.0, -305.0, -260.0, -222.0, -190.0, -162.0, -132.0, -86.0, -70.0, -23.0, 8.0, 38.0, 68.0, 104.0, 131.0, 159.0, 200.0, 243.0, 273.0, 297.0, 313.0, 326.0, 336.0, 338.0, 342.0, 351.0, 366.0, 396.0, 431.0, 457.0, 485.0, 489.0, 489.0, 484.0, 471.0, 442.0, 427.0, 422.0, 419.0, 419.0, 419.0, 419.0]	[0.009132092469371855, 0.014041826943866909, 0.018872372165787965, 0.03325717055122368, 0.04962170060025528, 0.06680030992720276, 0.08297096280148253, 0.10018336412031204, 0.11631783566554077, 0.13347971969051287, 0.14975106582278386, 0.16690032050246373, 0.1830716560361907, 0.19991780701093376, 0.21655062481295317, 0.233366397122154, 0.2498886230168864, 0.2668774511839729, 0.2834515597205609, 0.3001570814521983, 0.3192669531563297, 0.3334367117204238, 0.35258037538733333, 0.3666702620394062, 0.385976058896631, 0.4002355880511459, 0.41918400922440924, 0.43359440760104917, 0.4511385846417397, 0.4667573019687552, 0.4855033126368653, 0.5000413695524912, 0.517507040000055, 0.5333732237922959, 0.5502023081062362, 0.5667535472894087, 0.5836188129032962, 0.600211694749305, 0.6166601927252486, 0.6334664077148773, 0.6500418815703597, 0.6665774194407277, 0.6830160187673755, 0.6998140417563263, 0.719333854445722, 0.7332360079162754, 0.7515475016261917, 0.766531680827029, 0.783961852604989, 0.7999007403559517, 0.8167902406130452, 0.8332001679227687, 0.8501896787784062, 0.8667122460028622, 0.8834464397223201, 0.8998611457063816]
22	inanimate/n14.jpg	animate	inanimate	right	1.215	[0.0, 0.0, 0.0, 0.0, 0.0, 1.0, 1.0, 3.0, 12.0, 13.0, 13.0, 13.0, 13.0, 13.0, 13.0, 13.0, 13.0, 13.0, 13.0, 15.0, 15.0, 20.0, 27.0, 36.0, 50.0, 55.0, 55.0, -14.0, -88.0, -167.0, -228.0, -283.0, -347.0, -418.0, -485.0, -541.0, -585.0, -620.0, -646.0, -675.0, -696.0, -716.0, -721.0, -725.0, -726.0, -725.0, -698.0, -599.0, -436.0, -211.0, 11.0, 336.0, 421.0, 599.0, 641.0, 652.0, 652.0, 652.0, 652.0, 652.0, 652.0, 652.0, 652.0, 652.0, 656.0, 664.0, 682.0, 705.0, 734.0, 761.0, 778.0, 780.0]	[-490.0, -490.0, -490.0, -490.0, -489.0, -487.0, -487.0, -487.0, -488.0, -488.0, -488.0, -488.0, -488.0, -488.0, -488.0, -488.0, -488.0, -488.0, -488.0, -491.0, -491.0, -492.0, -488.0, -467.0, -432.0, -383.0, -331.0, -211.0, -113.0, -22.0, 42.0, 91.0, 146.0, 196.0, 238.0, 270.0, 293.0, 308.0, 313.0, 320.0, 324.0, 329.0, 332.0, 333.0, 334.0, 340.0, 348.0, 367.0, 404.0, 443.0, 484.0, 532.0, 540.0, 540.0, 536.0, 531.0, 531.0, 531.0, 531.0, 531.0, 531.0, 531.0, 531.0, 531.0, 514.0, 493.0, 474.0, 457.0, 442.0, 432.0, 429.0, 428.0]	[0.008997948607429862, 0.0191116466303356, 0.03306704806163907, 0.04992548699374311, 0.06644088623579592, 0.08324846657342277, 0.09974645782494918, 0.11670149402925745, 0.13311483469442464, 0.1499207083543297, 0.16647775020101108, 0.18335223180474713, 0.1994809007155709, 0.2166816967073828, 0.23280763495131396, 0.24994664965197444, 0.2661801078065764, 0.2833535971585661, 0.29948499670717865, 0.3167414299969096, 0.3328011496050749, 0.350045294908341, 0.3661650891590398, 0.38338261045282707, 0.39951366870081984, 0.41668169671902433, 0.43286156555404887, 0.44996269230614416, 0.46617771848104894, 0.4833266318310052, 0.4997341698326636, 0.5169359898136463, 0.5329230055212975, 0.5500196949287783, 0.5663661342987325, 0.5832877198699862, 0.5996123139339034, 0.6166659953887574, 0.6357639204361476, 0.6498858923732769, 0.6687923295830842, 0.6832505145575851, 0.7015466482844204, 0.7167957019410096, 0.7341712604393251, 0.7499947776086628, 0.7668245445820503, 0.7834389304043725, 0.7995300526672509, 0.8162246517604217, 0.8358990882989019, 0.8496947458770592, 0.8682154767448083, 0.8830655120545998, 0.9004110332462005, 0.9162447904236615, 0.9334739170444664, 0.949727855186211, 0.9667286300100386, 0.9830494694178924, 0.999919513677014, 1.0164304755744524, 1.0332540985546075, 1.04951281537069, 1.0664961822039913, 1.0830713147297502, 1.0999765162996482, 1.1164181875938084, 1.1332786745333578, 1.1497374124883208, 1.166502667532768, 1.1830655120720621]
23	inanimate/n29.jpg	inanimate	animate	left	0.796	[0.0, 0.0, 0.0, 0.0, 0.0, 0.0, 0.0, 0.0, 0.0, 0.0, 0.0, 0.0, 0.0, 0.0, 0.0, 0.0, 0.0, 0.0, 0.0, 0.0, 0.0, 0.0, -6.0, -21.0, -42.0, -70.0, -109.0, -162.0, -232.0, -315.0, -431.0, -493.0, -546.0, -588.0, -635.0, -677.0, -707.0, -713.0, -714.0, -714.0, -714.0, -717.0, -719.0, -720.0, -720.0, -720.0, -720.0, -720.0]	[-490.0, -490.0, -490.0, -490.0, -490.0, -490.0, -490.0, -490.0, -490.0, -490.0, -481.0, -462.0, -437.0, -408.0, -367.0, -320.0, -276.0, -225.0, -178.0, -123.0, -96.0, -71.0, -47.0, -16.0, 15.0, 45.0, 75.0, 105.0, 134.0, 170.0, 228.0, 263.0, 296.0, 319.0, 342.0, 366.0, 383.0, 388.0, 388.0, 396.0, 400.0, 415.0, 418.0, 420.0, 420.0, 420.0, 420.0, 420.0]	[0.00014875296619720757, 0.005607692321063951, 0.015666777064325288, 0.032565493311267346, 0.04876857282943092, 0.06586082489229739, 0.08210076836985536, 0.09925411906442605, 0.11543057460221462, 0.13227809089585207, 0.14934132967027836, 0.1655863931227941, 0.1826144746155478, 0.19897866330575198, 0.21592414219048806, 0.23226238955976442, 0.2492614577349741, 0.2656119931198191, 0.28264621857670136, 0.29894009267445654, 0.3159057101875078, 0.3323200748418458, 0.3494123269338161, 0.365419822599506, 0.3826346132555045, 0.3990162099362351, 0.415998211450642, 0.4321647683100309, 0.4492088924453128, 0.4655986811267212, 0.48258238928974606, 0.49894179933471605, 0.5159750008024275, 0.5320463257667143, 0.5496935853734612, 0.5654775078874081, 0.582729162502801, 0.5989817352965474, 0.6161470326478593, 0.6322698988951743, 0.6494823002140038, 0.6655812731478363, 0.6854004348861054, 0.6989151753659826, 0.7184189453837462, 0.7322961815516464, 0.751718372979667, 0.7654488359112293]
24	animate/a73.jpg	animate	inanimate	left	1.148	[0.0, 0.0, 0.0, 0.0, 0.0, 0.0, -1.0, -6.0, -15.0, -35.0, -55.0, -69.0, -76.0, -82.0, -83.0, -83.0, -83.0, -76.0, -68.0, -56.0, -45.0, -30.0, -17.0, -5.0, 0.0, 2.0, 0.0, -28.0, -141.0, -253.0, -370.0, -481.0, -585.0, -672.0, -738.0, -779.0, -805.0, -817.0, -823.0, -823.0, -813.0, -783.0, -718.0, -668.0, -648.0, -640.0, -640.0, -640.0, -640.0, -640.0, -640.0, -642.0, -648.0, -657.0, -672.0, -692.0, -708.0, -721.0, -723.0, -724.0, -724.0, -724.0, -724.0, -724.0, -726.0, -726.0, -726.0, -726.0, -726.0]	[-490.0, -490.0, -490.0, -490.0, -490.0, -490.0, -483.0, -460.0, -429.0, -386.0, -349.0, -319.0, -295.0, -268.0, -230.0, -217.0, -174.0, -144.0, -119.0, -93.0, -64.0, -40.0, -16.0, 4.0, 15.0, 23.0, 31.0, 50.0, 103.0, 146.0, 189.0, 222.0, 257.0, 298.0, 336.0, 363.0, 383.0, 397.0, 410.0, 411.0, 423.0, 432.0, 449.0, 458.0, 466.0, 472.0, 472.0, 472.0, 472.0, 472.0, 472.0, 472.0, 469.0, 468.0, 467.0, 467.0, 467.0, 465.0, 465.0, 465.0, 465.0, 465.0, 465.0, 465.0, 464.0, 464.0, 464.0, 464.0, 464.0]	[0.016762592626037076, 0.02314893383299932, 0.029806293488945812, 0.048336923005990684, 0.06369281391380355, 0.0827613843139261, 0.0970594841055572, 0.11406060025910847, 0.13033911437378265, 0.1464715379406698, 0.16328799290931784, 0.18139093214995228, 0.1965867378457915, 0.2137824138335418, 0.22993258672067896, 0.24726001726230606, 0.2632572729489766, 0.2803215357125737, 0.29663008713396266, 0.31369025391177274, 0.33010769056272693, 0.3468821615970228, 0.3634337421390228, 0.38029047442250885, 0.3967157617153134, 0.4136189153068699, 0.42994692269712687, 0.44694974552839994, 0.46336411018273793, 0.4803020797262434, 0.4965259805612732, 0.5136817205930129, 0.5301739091810305, 0.5469702255213633, 0.5633900515094865, 0.5801836371829268, 0.5967021084215958, 0.6137216565548442, 0.6300407892849762, 0.6467968283395749, 0.663392782153096, 0.6802686291048303, 0.6967915376590099, 0.713774221832864, 0.7298165334796067, 0.7469579375174362, 0.763300622231327, 0.7802740904153325, 0.7964573726058006, 0.8135694220254663, 0.8297636268544011, 0.8469265348976478, 0.863306083570933, 0.8802505384373944, 0.8964679539494682, 0.9137981151579879, 0.9298114134871867, 0.9470156228053384, 0.9631675023701973, 0.9803703463403508, 0.996485020586988, 1.0137011765618809, 1.029824725468643, 1.0470490734442137, 1.0631630650314037, 1.080387754336698, 1.0964996979164425, 1.1137090272386558, 1.1298298454785254]
25	animate/a21.jpg	animate	inanimate	left	0.83	[0.0, 0.0, 0.0, -5.0, -12.0, -16.0, -17.0, -19.0, -19.0, -20.0, -20.0, -21.0, -25.0, -25.0, -25.0, -25.0, -25.0, -27.0, -29.0, -31.0, -36.0, -47.0, -57.0, -75.0, -104.0, -171.0, -262.0, -357.0, -451.0, -573.0, -651.0, -726.0, -794.0, -853.0, -888.0, -904.0, -911.0, -913.0, -913.0, -913.0, -913.0, -913.0, -913.0, -913.0, -913.0, -913.0, -913.0, -913.0, -913.0, -913.0]	[-490.0, -492.0, -492.0, -493.0, -493.0, -493.0, -491.0, -487.0, -479.0, -461.0, -434.0, -405.0, -373.0, -319.0, -269.0, -240.0, -171.0, -127.0, -79.0, -37.0, -2.0, 30.0, 54.0, 79.0, 102.0, 140.0, 177.0, 208.0, 245.0, 296.0, 327.0, 359.0, 393.0, 427.0, 450.0, 462.0, 468.0, 469.0, 469.0, 469.0, 469.0, 469.0, 469.0, 469.0, 469.0, 469.0, 469.0, 469.0, 469.0, 469.0]	[0.006061665219021961, 0.012841563438996673, 0.026978895388310775, 0.04401243818574585, 0.06322197912959382, 0.07722004718380049, 0.09616334835300222, 0.11057238138164394, 0.12954606118728407, 0.1438544009870384, 0.161992838839069, 0.17723745515104383, 0.19601998847792856, 0.2105819387070369, 0.22738200970343314, 0.24374790507135913, 0.26021244568983093, 0.27695039406535216, 0.29645006809732877, 0.31037270155502483, 0.32852342739352025, 0.34360864118207246, 0.36141427932307124, 0.3768674501334317, 0.3947154135676101, 0.41021159235970117, 0.42736733239144087, 0.44356836390215904, 0.46086541580734774, 0.4770804419531487, 0.49387027297052555, 0.5104116135335062, 0.5271990551846102, 0.5437291317502968, 0.5605940560344607, 0.5770486979745328, 0.5938487690000329, 0.6102433363266755, 0.6273004311078694, 0.6437414197425824, 0.6605909840436652, 0.6769916953635402, 0.6938685663044453, 0.7100719871523324, 0.7272843884420581, 0.7436861237802077, 0.760574941377854, 0.7770190020091832, 0.7938986036169808, 0.8100750591256656]
26	animate/a47.jpg	animate	inanimate	left	0.868	[0.0, 0.0, 0.0, 0.0, 0.0, 0.0, 0.0, 0.0, -1.0, 4.0, 8.0, 10.0, 10.0, 10.0, 10.0, 10.0, 10.0, 10.0, 10.0, 10.0, 10.0, 10.0, 10.0, 10.0, 10.0, 10.0, 10.0, 10.0, 10.0, 6.0, -4.0, -32.0, -75.0, -138.0, -215.0, -284.0, -363.0, -435.0, -533.0, -596.0, -645.0, -669.0, -699.0, -721.0, -743.0, -758.0, -763.0, -766.0, -774.0, -776.0, -780.0, -780.0]	[-490.0, -490.0, -490.0, -490.0, -490.0, -490.0, -490.0, -479.0, -466.0, -452.0, -441.0, -432.0, -432.0, -432.0, -432.0, -432.0, -432.0, -432.0, -432.0, -432.0, -432.0, -432.0, -432.0, -432.0, -432.0, -432.0, -432.0, -432.0, -432.0, -429.0, -413.0, -355.0, -273.0, -173.0, -65.0, 41.0, 137.0, 207.0, 278.0, 319.0, 351.0, 365.0, 380.0, 389.0, 400.0, 408.0, 412.0, 414.0, 417.0, 417.0, 420.0, 420.0]	[0.0038409524713642895, 0.008482740493491292, 0.022706088377162814, 0.03888868787907995, 0.05890957746305503, 0.07300765611580573, 0.0893868634593673, 0.10587393207242712, 0.12336008247802965, 0.1394064901105594, 0.15621236377046444, 0.1725041898607742, 0.1896677805634681, 0.20628182505606674, 0.22271769368671812, 0.2391255730181001, 0.2562693663930986, 0.27249531520646997, 0.28956572199240327, 0.3058739320549648, 0.3225917418021709, 0.33967477787518874, 0.3558249507623259, 0.3730506640858948, 0.38919947162503377, 0.40635521165677346, 0.42266956574167125, 0.4397058392059989, 0.4559399800200481, 0.47300765610998496, 0.4890817117411643, 0.5063108383619692, 0.5226327017589938, 0.5396037806058303, 0.5558498680766206, 0.5728639549051877, 0.5892612528987229, 0.6062596384144854, 0.6226200724486262, 0.639593199302908, 0.6557566841656808, 0.6731052773538977, 0.6890404104196932, 0.7063193716749083, 0.7226849257131107, 0.7396102659404278, 0.755981622642139, 0.7730783120496199, 0.7893595568311866, 0.8065453341696411, 0.8227033576986287, 0.8397143725305796]
27	animate/a15.jpg	inanimate	animate	right	1.429	[0.0, 0.0, 0.0, 0.0, 0.0, 0.0, 0.0, 0.0, 0.0, -3.0, -7.0, -12.0, -15.0, -15.0, -15.0, -15.0, -11.0, -5.0, 2.0, 8.0, 16.0, 28.0, 31.0, 35.0, 35.0, 32.0, 16.0, -18.0, -70.0, -130.0, -207.0, -298.0, -409.0, -532.0, -624.0, -715.0, -738.0, -749.0, -755.0, -759.0, -760.0, -761.0, -761.0, -761.0, -761.0, -707.0, -649.0, -384.0, -155.0, 67.0, 258.0, 410.0, 532.0, 612.0, 644.0, 657.0, 660.0, 660.0, 660.0, 660.0, 660.0, 660.0, 660.0, 660.0, 660.0, 660.0, 660.0, 660.0, 660.0, 660.0, 660.0, 660.0, 644.0, 620.0, 609.0, 609.0, 609.0, 613.0, 637.0, 683.0, 763.0, 784.0, 816.0, 818.0, 818.0, 818.0]	[-490.0, -490.0, -490.0, -490.0, -490.0, -490.0, -490.0, -490.0, -490.0, -478.0, -469.0, -448.0, -436.0, -423.0, -411.0, -397.0, -378.0, -355.0, -322.0, -281.0, -229.0, -156.0, -124.0, -95.0, -69.0, -40.0, 5.0, 61.0, 120.0, 170.0, 213.0, 252.0, 301.0, 352.0, 393.0, 435.0, 449.0, 459.0, 471.0, 480.0, 484.0, 485.0, 485.0, 485.0, 485.0, 485.0, 478.0, 443.0, 413.0, 411.0, 411.0, 416.0, 434.0, 438.0, 438.0, 441.0, 441.0, 441.0, 441.0, 441.0, 441.0, 441.0, 441.0, 441.0, 441.0, 441.0, 441.0, 441.0, 441.0, 441.0, 441.0, 413.0, 374.0, 329.0, 305.0, 298.0, 298.0, 298.0, 313.0, 334.0, 370.0, 379.0, 404.0, 406.0, 406.0, 406.0]	[0.016027361270971596, 0.020907058438751847, 0.03003293866640888, 0.04730712124728598, 0.06337912887101993, 0.08056627152836882, 0.09673351107630879, 0.11376193386968225, 0.13026743446243927, 0.14711222008918412, 0.1635750540299341, 0.18044851164449938, 0.19686355895828456, 0.21403124564676546, 0.23283357627224177, 0.24709822543081827, 0.26632858769153245, 0.2804747942718677, 0.2996235779428389, 0.3138319071440492, 0.33296737881028093, 0.3471091480751056, 0.36601626794436015, 0.3804580689466093, 0.39946827141102403, 0.41379606717964634, 0.43117469767457806, 0.447123142745113, 0.46613232119125314, 0.48045499695581384, 0.49774931819410995, 0.5137933365185745, 0.5306179834879003, 0.5472241773095448, 0.5633818595379125, 0.5802522451267578, 0.5979039420781191, 0.6136933259258512, 0.6324273899372201, 0.6470200601615943, 0.6662251637608279, 0.6803877543425187, 0.698458608268993, 0.7133851021935698, 0.7329793254612014, 0.7469937775167637, 0.7647284183767624, 0.7803170984261669, 0.7972816919500474, 0.8134219661587849, 0.830666111462051, 0.846958620211808, 0.8638935177586973, 0.8800805546052288, 0.8972226413316093, 0.9136537312879227, 0.9305753168591764, 0.9467548443935812, 0.9638713310996536, 0.9803399677330162, 0.9971516440564301, 1.013428792823106, 1.0305292368866503, 1.0467067164136097, 1.0639122910797596, 1.080063146626344, 1.0972195693175308, 1.1134363021410536, 1.130604330159258, 1.146736071066698, 1.1638470964680891, 1.18011537057464, 1.1972154733375646, 1.2135806860169396, 1.2304759889375418, 1.2468930842587724, 1.2638238858198747, 1.2801481385540683, 1.297279643942602, 1.3157904761319514, 1.3305043195723556, 1.3473641238524579, 1.3638825950911269, 1.3830044134519994, 1.3971676866931375, 1.4151033727393951]
28	animate/a44.jpg	animate	inanimate	left	0.803	[0.0, 0.0, 0.0, 0.0, 0.0, 0.0, 0.0, 0.0, 3.0, 6.0, 10.0, 12.0, 15.0, 15.0, 15.0, 18.0, 23.0, 26.0, 26.0, 26.0, 26.0, 26.0, 25.0, 20.0, 12.0, 0.0, -22.0, -57.0, -100.0, -165.0, -253.0, -392.0, -491.0, -593.0, -679.0, -759.0, -823.0, -873.0, -898.0, -906.0, -909.0, -909.0, -909.0, -909.0, -909.0, -911.0, -911.0, -911.0]	[-490.0, -490.0, -490.0, -490.0, -490.0, -490.0, -490.0, -482.0, -469.0, -456.0, -437.0, -413.0, -379.0, -344.0, -303.0, -273.0, -241.0, -207.0, -161.0, -132.0, -108.0, -85.0, -67.0, -49.0, -33.0, -16.0, 3.0, 25.0, 50.0, 80.0, 114.0, 177.0, 219.0, 258.0, 297.0, 343.0, 380.0, 406.0, 418.0, 422.0, 424.0, 424.0, 424.0, 425.0, 426.0, 429.0, 430.0, 430.0]	[0.014654178434284404, 0.020112435100600123, 0.02768081263639033, 0.04438872370519675, 0.06211380724562332, 0.07768371398560703, 0.09493741657934152, 0.11100703486590646, 0.12877785702585243, 0.14448600364266895, 0.1615185224218294, 0.1778236605168786, 0.19476299540838227, 0.21116609606542625, 0.2280712976353243, 0.2446201475104317, 0.26131303995498456, 0.2775611754041165, 0.2946633261453826, 0.311170192057034, 0.32802009768784046, 0.3447146967810113, 0.3613536585762631, 0.3779414204182103, 0.39469336345791817, 0.41122173334588297, 0.4280337509990204, 0.4445853315410204, 0.46131269860779867, 0.47783253516536206, 0.49472305944073014, 0.5111841867328621, 0.5281402469263412, 0.5446594008244574, 0.5613669705635402, 0.5775895060505718, 0.5946564994810615, 0.6108964429586194, 0.6280835856450722, 0.6442668678355403, 0.661463909142185, 0.677589164726669, 0.6946896087902132, 0.7109131682955194, 0.7281709669041447, 0.7443351344263647, 0.7613939358852804, 0.7775963327148929]
29	inanimate/n62.jpg	inanimate	animate	left	0.848	[0.0, 0.0, 0.0, 0.0, 0.0, 0.0, 0.0, -1.0, -1.0, -2.0, -2.0, 0.0, 7.0, 7.0, 7.0, 7.0, 2.0, -6.0, -17.0, -26.0, -33.0, -39.0, -42.0, -44.0, -45.0, -48.0, -53.0, -66.0, -94.0, -149.0, -213.0, -283.0, -367.0, -462.0, -549.0, -628.0, -684.0, -724.0, -760.0, -775.0, -789.0, -798.0, -800.0, -800.0, -800.0, -800.0, -797.0, -797.0, -797.0, -797.0, -797.0]	[-490.0, -490.0, -490.0, -490.0, -490.0, -490.0, -490.0, -491.0, -489.0, -475.0, -451.0, -413.0, -349.0, -286.0, -234.0, -177.0, -93.0, -47.0, -3.0, 19.0, 37.0, 48.0, 54.0, 61.0, 65.0, 78.0, 87.0, 102.0, 122.0, 146.0, 172.0, 192.0, 216.0, 243.0, 272.0, 295.0, 317.0, 334.0, 352.0, 362.0, 373.0, 379.0, 381.0, 381.0, 383.0, 389.0, 398.0, 404.0, 407.0, 407.0, 407.0]	[0.012364175083348528, 0.01782004241249524, 0.025452249246882275, 0.03964214646839537, 0.0564555294404272, 0.07344504029606469, 0.0923415788274724, 0.10663558263331652, 0.12561301709502004, 0.14001454081153497, 0.15664462794666179, 0.1732252218062058, 0.18987783693592064, 0.20675197718082927, 0.2232800057681743, 0.23985855162027292, 0.2562087456462905, 0.27300335533800535, 0.2898665729444474, 0.30665435595437884, 0.3230134246405214, 0.33971826374181546, 0.35716106483596377, 0.3729934566654265, 0.3940588253608439, 0.4065447880420834, 0.42330526441219263, 0.43999542616074905, 0.45707368358853273, 0.47353242154349573, 0.49022121797315776, 0.5063273588893935, 0.5233206244010944, 0.5401544873602688, 0.556541204045061, 0.573002331337193, 0.5899392768624239, 0.6065847240097355, 0.6236513761105016, 0.6400558421155438, 0.6588905993558001, 0.6728524861100595, 0.6899375702196267, 0.7060559991223272, 0.7233414457004983, 0.7403258365520742, 0.7567446385219228, 0.7729627366934437, 0.7899624875281006, 0.8060887671017554, 0.8233646563603543]
30	animate/a65.jpg	inanimate	animate	right	1.123	[0.0, -9.0, -12.0, -14.0, -18.0, -23.0, -23.0, -21.0, -11.0, 0.0, 9.0, 12.0, 12.0, 12.0, 12.0, 12.0, 12.0, 12.0, 12.0, 12.0, 12.0, 12.0, 12.0, 15.0, 15.0, 18.0, 32.0, 49.0, 65.0, 68.0, 50.0, 7.0, -60.0, -124.0, -231.0, -297.0, -356.0, -411.0, -462.0, -510.0, -551.0, -585.0, -620.0, -669.0, -711.0, -746.0, -754.0, -755.0, -747.0, -680.0, -525.0, -310.0, -83.0, 241.0, 335.0, 556.0, 608.0, 667.0, 672.0, 673.0, 673.0, 673.0, 673.0, 673.0, 673.0, 673.0, 673.0]	[-490.0, -499.0, -499.0, -499.0, -499.0, -496.0, -486.0, -480.0, -474.0, -471.0, -467.0, -467.0, -467.0, -467.0, -467.0, -467.0, -467.0, -467.0, -467.0, -467.0, -467.0, -467.0, -467.0, -467.0, -467.0, -467.0, -453.0, -411.0, -368.0, -325.0, -254.0, -177.0, -85.0, 7.0, 145.0, 213.0, 263.0, 300.0, 332.0, 354.0, 363.0, 371.0, 373.0, 375.0, 382.0, 387.0, 389.0, 390.0, 395.0, 405.0, 412.0, 412.0, 412.0, 414.0, 414.0, 429.0, 433.0, 433.0, 433.0, 433.0, 433.0, 433.0, 433.0, 433.0, 433.0, 433.0, 433.0]	[0.002943587925983593, 0.009478409017901868, 0.02080110867973417, 0.03771074759424664, 0.05479856234160252, 0.0710316791664809, 0.08808365394361317, 0.10439596002106555, 0.12133870823890902, 0.1376926569500938, 0.15468933575903066, 0.17104464981821366, 0.18804440065287054, 0.20435329337487929, 0.22136191886966117, 0.23767900362145156, 0.2546596397878602, 0.2710463564726524, 0.2880392806546297, 0.30438981601037085, 0.32144179081660695, 0.3377394195704255, 0.3546982104307972, 0.3710187085089274, 0.38807648594956845, 0.40449358127079904, 0.4213707935414277, 0.4377650195383467, 0.45465656780288555, 0.47105864447075874, 0.4879993446811568, 0.5044860719353892, 0.5213387082330883, 0.5377100649347994, 0.5546732931106817, 0.5710562551394105, 0.5879539473971818, 0.6044123439933173, 0.6213117429288104, 0.6377411262365058, 0.6547016237454955, 0.6710125645040534, 0.6879955900076311, 0.7043266694236081, 0.7213578228838742, 0.7375376917480025, 0.7546285784919746, 0.7710180258436594, 0.7880027579958551, 0.8044195119873621, 0.821677651925711, 0.8375759210321121, 0.854761357040843, 0.8710040311852936, 0.8881191525724716, 0.9043713840364944, 0.9215387293952517, 0.9376612543128431, 0.9573834774782881, 0.971097215107875, 0.9911457526613958, 1.0043816240213346, 1.0240140766254626, 1.0377397609117907, 1.0580436155723874, 1.0710651297995355, 1.0909580194856972]
31	animate/a73.jpg	inanimate	animate	right	1.148	[0.0, 0.0, 0.0, 0.0, 0.0, 0.0, 0.0, 0.0, 0.0, 4.0, 4.0, 4.0, 4.0, 4.0, 4.0, 4.0, 4.0, 4.0, 4.0, 4.0, 4.0, 4.0, 4.0, 4.0, 4.0, 4.0, 6.0, 7.0, 8.0, 8.0, -10.0, -60.0, -127.0, -215.0, -384.0, -504.0, -610.0, -695.0, -760.0, -809.0, -832.0, -839.0, -841.0, -837.0, -823.0, -784.0, -653.0, -534.0, -391.0, -224.0, -50.0, 112.0, 271.0, 390.0, 474.0, 529.0, 567.0, 583.0, 587.0, 609.0, 628.0, 641.0, 664.0, 692.0, 716.0, 733.0, 740.0, 745.0, 745.0]	[-490.0, -490.0, -490.0, -490.0, -490.0, -490.0, -490.0, -490.0, -490.0, -488.0, -483.0, -483.0, -483.0, -483.0, -483.0, -483.0, -483.0, -483.0, -483.0, -483.0, -483.0, -483.0, -483.0, -483.0, -483.0, -483.0, -483.0, -483.0, -469.0, -449.0, -422.0, -370.0, -301.0, -225.0, -96.0, -4.0, 71.0, 132.0, 191.0, 239.0, 265.0, 279.0, 287.0, 298.0, 309.0, 326.0, 354.0, 368.0, 389.0, 413.0, 422.0, 422.0, 422.0, 422.0, 422.0, 422.0, 422.0, 422.0, 422.0, 423.0, 423.0, 423.0, 419.0, 417.0, 415.0, 415.0, 415.0, 418.0, 418.0]	[0.01532421523006633, 0.020824455859838054, 0.028703446470899507, 0.04584553316817619, 0.062216548540163785, 0.07922346735722385, 0.09801589933340438, 0.1124843243160285, 0.13135048421099782, 0.14577829054906033, 0.16233089510933496, 0.17890124896075577, 0.19894705584738404, 0.21236280974699184, 0.23184507578844205, 0.2456444880226627, 0.26327399830915965, 0.27900842754752375, 0.29630923410877585, 0.312357689748751, 0.32926630464498885, 0.34565575199667364, 0.3626421908265911, 0.3789876062364783, 0.39586789047461934, 0.41238363104639575, 0.429212715360336, 0.4455929467221722, 0.46248859097249806, 0.47885619298904203, 0.4957805092271883, 0.5122894231462851, 0.5291109981189948, 0.5454475388396531, 0.562334308429854, 0.5790275422041304, 0.5959033891267609, 0.6125570282456465, 0.6291362567571923, 0.6458407544996589, 0.662680420151446, 0.6790094515308738, 0.6959091917960905, 0.7125170922663528, 0.7291994033730589, 0.7457229946157895, 0.7624585536541417, 0.7787411637546029, 0.7959566370700486, 0.8122283245320432, 0.8292372913565487, 0.845414770883508, 0.8626869054569397, 0.8787401397712529, 0.8959146531124134, 0.9136626059771515, 0.92908505682135, 0.9454222802014556, 0.9625790442223661, 0.9787217077973764, 0.9958986104466021, 1.0120825753256213, 1.0291659527283628, 1.0453922429005615, 1.0625333056086674, 1.0788234250212554, 1.0959351330820937, 1.1121293379401322, 1.1292338780185673]
32	inanimate/n1.jpg	inanimate	animate	left	0.732	[0.0, 0.0, 0.0, 0.0, 0.0, 0.0, 0.0, 0.0, 0.0, 0.0, 0.0, 0.0, 0.0, 0.0, 0.0, 0.0, -9.0, -17.0, -22.0, -26.0, -31.0, -36.0, -45.0, -55.0, -69.0, -88.0, -124.0, -176.0, -244.0, -381.0, -472.0, -561.0, -640.0, -715.0, -773.0, -827.0, -856.0, -862.0, -864.0, -864.0, -865.0, -865.0, -865.0, -865.0, -865.0]	[-490.0, -490.0, -490.0, -490.0, -490.0, -490.0, -490.0, -490.0, -490.0, -490.0, -473.0, -452.0, -425.0, -387.0, -341.0, -294.0, -224.0, -175.0, -134.0, -101.0, -68.0, -34.0, -2.0, 23.0, 48.0, 70.0, 94.0, 118.0, 150.0, 198.0, 239.0, 278.0, 317.0, 358.0, 393.0, 427.0, 446.0, 452.0, 455.0, 458.0, 461.0, 465.0, 468.0, 469.0, 469.0]	[0.006625547393923625, 0.011378268682165071, 0.017381292884238064, 0.028892067086417228, 0.04512006387813017, 0.062400049151619896, 0.07849970474489965, 0.0954103676485829, 0.1119844761560671, 0.12874324587755837, 0.14522655980545096, 0.16222016664687544, 0.1786096139694564, 0.19542743428610265, 0.21194146820926107, 0.2287695285049267, 0.24530950371990912, 0.26202560678939335, 0.27856455801520497, 0.2953468796913512, 0.31210838005063124, 0.3287807925080415, 0.34491355740465224, 0.3620853400789201, 0.3782549689640291, 0.3954035409842618, 0.41159501517540775, 0.42874870719970204, 0.4449367680354044, 0.4620703214313835, 0.47829149159952067, 0.49546361560351215, 0.5117909403343219, 0.5288077578006778, 0.5449702186742797, 0.5622228973079473, 0.5782884195796214, 0.5954376742884051, 0.6116916124301497, 0.6287353952066042, 0.6452173438156024, 0.6621263000415638, 0.678513016726356, 0.6954346022976097, 0.7121728920028545]
33	animate/a68.jpg	inanimate	animate	right	1.049	[0.0, 0.0, 0.0, 0.0, 0.0, 0.0, 0.0, 0.0, 0.0, 0.0, -2.0, -8.0, -14.0, -15.0, -15.0, -15.0, -15.0, -12.0, -7.0, -7.0, -7.0, -7.0, -18.0, -35.0, -67.0, -115.0, -174.0, -232.0, -297.0, -392.0, -426.0, -533.0, -605.0, -673.0, -713.0, -736.0, -737.0, -737.0, -737.0, -722.0, -684.0, -555.0, -490.0, -232.0, -131.0, 206.0, 425.0, 620.0, 796.0, 942.0, 959.0, 959.0, 959.0, 959.0, 959.0, 959.0, 957.0, 940.0, 932.0, 919.0, 906.0, 892.0, 889.0, 889.0]	[-490.0, -490.0, -490.0, -490.0, -490.0, -490.0, -490.0, -490.0, -490.0, -490.0, -486.0, -462.0, -436.0, -413.0, -384.0, -348.0, -310.0, -270.0, -221.0, -175.0, -117.0, -92.0, -71.0, -48.0, -14.0, 26.0, 66.0, 97.0, 123.0, 152.0, 166.0, 219.0, 258.0, 290.0, 313.0, 329.0, 336.0, 351.0, 372.0, 398.0, 437.0, 498.0, 514.0, 540.0, 540.0, 540.0, 511.0, 466.0, 415.0, 366.0, 321.0, 301.0, 298.0, 298.0, 298.0, 305.0, 322.0, 356.0, 371.0, 385.0, 393.0, 401.0, 402.0, 402.0]	[0.010687069268897176, 0.015693401015596464, 0.02213708616909571, 0.03675228435895406, 0.05300144382636063, 0.07012953588855453, 0.08632613005465828, 0.10351805138634518, 0.11968324292683974, 0.13695162287331186, 0.15306254246388562, 0.1702776744205039, 0.18655687119462527, 0.20357164068263955, 0.21972761623328552, 0.236932849540608, 0.25305196113185957, 0.27018210117239505, 0.2863862046797294, 0.30361908598570153, 0.3199037440936081, 0.33687618825933896, 0.35323320896713994, 0.370224767801119, 0.3888171786093153, 0.40343408347689547, 0.42261392844375223, 0.4367915376788005, 0.4560382839117665, 0.4701162239070982, 0.48783857678063214, 0.5034798221022356, 0.5209308151970617, 0.5369089562445879, 0.5537192672200035, 0.5702763090957887, 0.5864708552835509, 0.6032101689779665, 0.6232034105923958, 0.6364676126104314, 0.6565045448369347, 0.6699295147263911, 0.6894052954448853, 0.7033139342383947, 0.7229238588479348, 0.73665022579371, 0.7550859647162724, 0.7700063146476168, 0.787843014113605, 0.8030565691296943, 0.8203543036943302, 0.8364194846653845, 0.8537179018894676, 0.8699165440630168, 0.8868258416478056, 0.9032801422581542, 0.9201047892274801, 0.9366744604485575, 0.9535513313603587, 0.9699267840478569, 0.9869528175331652, 1.0030292624724098, 1.0201672531838994, 1.0366532977786846]
34	animate/a1.jpg	inanimate	animate	right	1.003	[0.0, 0.0, 0.0, 0.0, 0.0, 0.0, 0.0, 0.0, 0.0, 0.0, 0.0, 0.0, 0.0, 0.0, 0.0, 0.0, 5.0, 10.0, 11.0, 11.0, 11.0, 11.0, 11.0, 11.0, 11.0, 11.0, 11.0, 11.0, 11.0, 11.0, 11.0, 11.0, 11.0, 11.0, 11.0, 11.0, 11.0, -6.0, -35.0, -90.0, -174.0, -266.0, -340.0, -389.0, -406.0, -334.0, -277.0, -27.0, 68.0, 359.0, 512.0, 642.0, 711.0, 738.0, 742.0, 742.0, 742.0, 742.0, 742.0, 742.0, 742.0]	[-490.0, -490.0, -490.0, -490.0, -490.0, -490.0, -490.0, -490.0, -490.0, -490.0, -490.0, -490.0, -490.0, -490.0, -490.0, -490.0, -488.0, -484.0, -484.0, -484.0, -484.0, -484.0, -484.0, -484.0, -484.0, -484.0, -484.0, -484.0, -484.0, -484.0, -484.0, -484.0, -484.0, -484.0, -484.0, -484.0, -480.0, -446.0, -396.0, -333.0, -262.0, -173.0, -87.0, -5.0, 78.0, 200.0, 244.0, 369.0, 401.0, 482.0, 523.0, 540.0, 540.0, 540.0, 540.0, 540.0, 540.0, 540.0, 540.0, 540.0, 540.0]	[0.008106591500109062, 0.013236144441179931, 0.01787110583973117, 0.031583478121319786, 0.04798111747368239, 0.06516996680875309, 0.08133959566475824, 0.09852434901404195, 0.11470012186327949, 0.1318633712362498, 0.14804085076320916, 0.1648842710419558, 0.18198130177916028, 0.19823762925807387, 0.21525888406904414, 0.23136604897445068, 0.24858493561623618, 0.2649221590254456, 0.28196355246473104, 0.2982690318895038, 0.3152964306937065, 0.3315507101651747, 0.34878905277582817, 0.3648969003697857, 0.38224242156138644, 0.3982147599454038, 0.41543842523242347, 0.4313114357064478, 0.4487842741073109, 0.46474500716431066, 0.4846682754869107, 0.4980744720669463, 0.5182308708608616, 0.531626827432774, 0.5513893278839532, 0.5649648256367072, 0.5844324143545236, 0.5981372773530893, 0.6177526632673107, 0.6314653769077267, 0.6515473650943022, 0.6646743512246758, 0.6845979609061033, 0.6981249893433414, 0.7176120340591297, 0.7314612808986567, 0.7508534350199625, 0.7647989378019702, 0.7821888322941959, 0.7982826852239668, 0.8150660308892839, 0.8316316060954705, 0.848602684942307, 0.8646753752254881, 0.8818512539146468, 0.8983724557911046, 0.9151291775051504, 0.931577675481094, 0.9484583010780625, 0.9649378603498917, 0.9818075632792898]
35	inanimate/n36.jpg	animate	inanimate	right	1.182	[0.0, 0.0, 0.0, -2.0, -5.0, -5.0, 4.0, 16.0, 25.0, 25.0, 25.0, 25.0, 25.0, 25.0, 25.0, 25.0, 25.0, 25.0, 29.0, 34.0, 40.0, 47.0, 57.0, 75.0, 89.0, 91.0, 82.0, 40.0, -74.0, -120.0, -253.0, -317.0, -382.0, -446.0, -516.0, -581.0, -637.0, -677.0, -712.0, -749.0, -794.0, -812.0, -820.0, -821.0, -821.0, -821.0, -806.0, -719.0, -558.0, -343.0, -125.0, 97.0, 273.0, 489.0, 577.0, 611.0, 622.0, 627.0, 632.0, 647.0, 677.0, 737.0, 778.0, 794.0, 794.0, 794.0, 804.0, 812.0, 814.0, 815.0, 816.0]	[-490.0, -490.0, -490.0, -486.0, -480.0, -480.0, -479.0, -475.0, -468.0, -467.0, -467.0, -467.0, -467.0, -467.0, -467.0, -467.0, -467.0, -467.0, -467.0, -467.0, -467.0, -468.0, -468.0, -452.0, -434.0, -412.0, -369.0, -284.0, -127.0, -74.0, 61.0, 112.0, 156.0, 203.0, 249.0, 294.0, 325.0, 348.0, 371.0, 392.0, 418.0, 428.0, 432.0, 435.0, 438.0, 443.0, 450.0, 462.0, 479.0, 498.0, 520.0, 534.0, 534.0, 536.0, 540.0, 540.0, 540.0, 540.0, 540.0, 540.0, 540.0, 540.0, 540.0, 538.0, 538.0, 538.0, 529.0, 523.0, 520.0, 519.0, 518.0]	[0.012082916626241058, 0.01879284158349037, 0.025402414583368227, 0.03911069090827368, 0.05627837759675458, 0.07247667844058014, 0.08949315457721241, 0.10602288981317542, 0.12286289676558226, 0.13922060013283044, 0.1562725749099627, 0.1741891462879721, 0.18953923453227617, 0.20867026888299733, 0.22303834193735383, 0.24039137247018516, 0.2563596148393117, 0.2727070782275405, 0.2892951813992113, 0.3058675832580775, 0.32273967552464455, 0.34213933898718096, 0.3559172472159844, 0.3754469585546758, 0.38923817878821865, 0.4067062385438476, 0.4225601343496237, 0.44004730877350084, 0.45590256989817135, 0.47296444335370325, 0.48944297860725783, 0.5067669958225451, 0.5227628861903213, 0.5401473193487618, 0.5558223566331435, 0.5738280159421265, 0.5894173786509782, 0.6069011397194117, 0.6227389928826597, 0.6397387436882127, 0.6561005430703517, 0.6729204113944434, 0.6893750533345155, 0.7061962869775016, 0.722473777103005, 0.7395882158307359, 0.7558271352900192, 0.7729258727049455, 0.7893706160248257, 0.8061689803435002, 0.8226652649464086, 0.8394325679691974, 0.8558390819525812, 0.8727845608373173, 0.8893569626961835, 0.9063089269038755, 0.9227642515033949, 0.9395274585403968, 0.9561606176721398, 0.9729012967436574, 0.989225549477851, 1.0061314337071963, 1.0225632063520607, 1.0396042584907264, 1.0558145059912931, 1.0743946287839208, 1.0893293147091754, 1.1062502176209819, 1.1226318143017124, 1.1395336025452707, 1.1559281698719133]
36	inanimate/n44.jpg	animate	inanimate	right	0.981	[0.0, 0.0, 0.0, 0.0, 0.0, 0.0, 0.0, -8.0, -18.0, -32.0, -51.0, -66.0, -77.0, -85.0, -94.0, -102.0, -103.0, -108.0, -109.0, -111.0, -114.0, -119.0, -130.0, -158.0, -206.0, -265.0, -329.0, -401.0, -480.0, -581.0, -631.0, -673.0, -697.0, -710.0, -718.0, -722.0, -724.0, -725.0, -725.0, -725.0, -725.0, -727.0, -729.0, -729.0, -701.0, -602.0, -441.0, -242.0, -7.0, 230.0, 572.0, 669.0, 897.0, 959.0, 959.0, 959.0, 959.0, 959.0, 959.0]	[-490.0, -490.0, -490.0, -490.0, -490.0, -490.0, -489.0, -472.0, -445.0, -413.0, -374.0, -327.0, -274.0, -222.0, -182.0, -141.0, -132.0, -106.0, -92.0, -80.0, -63.0, -45.0, -27.0, -1.0, 30.0, 67.0, 102.0, 140.0, 180.0, 240.0, 276.0, 307.0, 328.0, 342.0, 350.0, 357.0, 361.0, 362.0, 362.0, 362.0, 362.0, 368.0, 380.0, 395.0, 412.0, 424.0, 430.0, 430.0, 432.0, 432.0, 432.0, 432.0, 427.0, 411.0, 399.0, 393.0, 390.0, 390.0, 390.0]	[0.0032371343113482, 0.010395570861874148, 0.02793906524311751, 0.038374640338588506, 0.05521908463560976, 0.07156040400150232, 0.08852875221055001, 0.10491956488112919, 0.12182169445441104, 0.13813707252847962, 0.15527096725418232, 0.17144264411763288, 0.18854104020283557, 0.20475470102974214, 0.2219162436958868, 0.23809781923773699, 0.25530953786801547, 0.27144230279373005, 0.2886458294233307, 0.3049871488183271, 0.3219322863733396, 0.33807085393345915, 0.35518256199429743, 0.3714109001448378, 0.3885652748285793, 0.40476971966563724, 0.42190361439133994, 0.4380967952311039, 0.4553235325438436, 0.47146892675664276, 0.48866869875928387, 0.5049277568759862, 0.5217602545162663, 0.5380903099139687, 0.5553119272226468, 0.5714873587421607, 0.5886205707793124, 0.6050042154674884, 0.6219111237151083, 0.6383278777066153, 0.6552863272372633, 0.6716651932511013, 0.6884553655982018, 0.70520048198523, 0.7219285317114554, 0.7409284941386431, 0.7551221460453235, 0.7744101935822982, 0.7884840375627391, 0.8076662718667649, 0.8218701637524646, 0.8403932839282788, 0.8551648126740474, 0.8739562206319533, 0.8886874720628839, 0.9077659411123022, 0.9218438811076339, 0.9410612726933323, 0.9551764180068858]
37	animate/a60.jpg	inanimate	animate	right	1.069	[0.0, 0.0, 0.0, 0.0, 0.0, 0.0, 0.0, 0.0, 0.0, 0.0, 0.0, 0.0, 0.0, 0.0, 1.0, 8.0, 8.0, 8.0, 8.0, 8.0, 8.0, 1.0, -12.0, -39.0, -67.0, -109.0, -158.0, -222.0, -281.0, -348.0, -422.0, -544.0, -620.0, -675.0, -707.0, -724.0, -733.0, -739.0, -743.0, -745.0, -748.0, -757.0, -760.0, -766.0, -766.0, -766.0, -755.0, -718.0, -671.0, -628.0, -570.0, -451.0, -287.0, -69.0, 156.0, 469.0, 626.0, 748.0, 843.0, 898.0, 921.0, 939.0, 946.0, 946.0]	[-490.0, -490.0, -490.0, -490.0, -490.0, -490.0, -490.0, -490.0, -490.0, -490.0, -490.0, -471.0, -447.0, -416.0, -383.0, -339.0, -295.0, -246.0, -192.0, -148.0, -109.0, -87.0, -65.0, -32.0, -4.0, 29.0, 60.0, 97.0, 135.0, 173.0, 214.0, 277.0, 312.0, 333.0, 348.0, 359.0, 364.0, 369.0, 371.0, 374.0, 377.0, 389.0, 395.0, 405.0, 408.0, 412.0, 417.0, 428.0, 442.0, 453.0, 463.0, 463.0, 463.0, 444.0, 423.0, 423.0, 426.0, 442.0, 458.0, 465.0, 466.0, 466.0, 466.0, 466.0]	[0.002189924503909424, 0.008406964538153261, 0.019082496757619083, 0.03613617821247317, 0.05260344949783757, 0.06952230437309481, 0.08594554371666163, 0.10289033991284668, 0.11932928054011427, 0.13626349542755634, 0.15258774816174991, 0.1695984216639772, 0.1860148343257606, 0.20291559855104424, 0.219123456714442, 0.2362191221327521, 0.25251948155346327, 0.26948851242195815, 0.2857202638988383, 0.3029022865812294, 0.3190947847615462, 0.3362686154432595, 0.3525109482288826, 0.3695124057412613, 0.3857349412282929, 0.4029241318930872, 0.4190572381194215, 0.43622458347817883, 0.4524000149976928, 0.4695618990226649, 0.48576224787393585, 0.5028630332672037, 0.5190719154488761, 0.5362303861184046, 0.5525181162229273, 0.5694448217982426, 0.585927453066688, 0.6028732732520439, 0.620490495552076, 0.6362505247816443, 0.6550504660699517, 0.6694789550965652, 0.6884345442522317, 0.7029572411847766, 0.7196839255921077, 0.7362631541036535, 0.7529577531968243, 0.7695915949880145, 0.786008007649798, 0.8027548306854442, 0.8202314237714745, 0.8362515487824567, 0.852623588143615, 0.8693454938766081, 0.8858509944402613, 0.9027121640683617, 0.9190763527585659, 0.935837853117846, 0.9529922278306913, 0.9695717976719607, 0.9861257675511297, 1.002513166895369, 1.0204423675895669, 1.0362754420784768]
38	animate/a11.jpg	animate	inanimate	left	0.774	[0.0, 0.0, 0.0, 0.0, -1.0, -1.0, -1.0, 8.0, 10.0, 12.0, 12.0, 12.0, 12.0, 16.0, 23.0, 30.0, 30.0, 30.0, 30.0, 30.0, 30.0, 27.0, 22.0, 8.0, -18.0, -59.0, -121.0, -233.0, -313.0, -397.0, -485.0, -569.0, -628.0, -680.0, -709.0, -733.0, -746.0, -752.0, -754.0, -755.0, -756.0, -757.0, -757.0, -757.0, -757.0, -757.0]	[-490.0, -490.0, -490.0, -490.0, -491.0, -488.0, -478.0, -457.0, -435.0, -401.0, -357.0, -297.0, -237.0, -176.0, -124.0, -75.0, -50.0, -25.0, -4.0, 13.0, 27.0, 38.0, 46.0, 63.0, 84.0, 115.0, 152.0, 200.0, 233.0, 267.0, 304.0, 342.0, 367.0, 393.0, 410.0, 423.0, 431.0, 434.0, 436.0, 437.0, 438.0, 438.0, 438.0, 438.0, 438.0, 438.0]	[0.016689888696419075, 0.021725233731558546, 0.03153582802042365, 0.048377200320828706, 0.06647263022023253, 0.08173192385584116, 0.09915868233656511, 0.11487092491006479, 0.13249599788105115, 0.1485048588947393, 0.16529844453907572, 0.18176469183526933, 0.1986511200957466, 0.2150613887642976, 0.23223692609462887, 0.24845741360331886, 0.2653766098082997, 0.28155818535014987, 0.29876512533519417, 0.31492758620879613, 0.3320014062919654, 0.34813963252236135, 0.36524178326362744, 0.3818363717873581, 0.3987193866923917, 0.4151166847150307, 0.43200140629778616, 0.4484649229270872, 0.4652513405890204, 0.481683795893332, 0.4987306506955065, 0.5148306476185098, 0.5319645423442125, 0.5484147469687741, 0.5652445139421616, 0.5817486491869204, 0.5986763787514064, 0.6151825619745068, 0.6319727343216073, 0.6482703630754258, 0.6653325778606813, 0.6815230280335527, 0.6987739999894984, 0.7148811648949049, 0.7319491823436692, 0.748192539147567]
39	inanimate/n7.jpg	animate	inanimate	left	0.686	[0.0, 0.0, 0.0, 0.0, 0.0, 0.0, 0.0, 0.0, 0.0, -1.0, -5.0, -9.0, -9.0, -8.0, 1.0, 7.0, 7.0, 7.0, 2.0, -10.0, -15.0, -53.0, -99.0, -166.0, -235.0, -309.0, -388.0, -460.0, -537.0, -614.0, -691.0, -742.0, -764.0, -779.0, -788.0, -796.0, -798.0, -798.0, -798.0, -798.0, -798.0]	[-490.0, -490.0, -490.0, -490.0, -490.0, -485.0, -479.0, -470.0, -447.0, -407.0, -373.0, -333.0, -292.0, -244.0, -184.0, -122.0, -76.0, -47.0, -25.0, -1.0, 8.0, 42.0, 72.0, 110.0, 138.0, 173.0, 213.0, 255.0, 296.0, 340.0, 385.0, 414.0, 430.0, 443.0, 453.0, 463.0, 467.0, 467.0, 467.0, 467.0, 467.0]	[0.005872566718608141, 0.012414214492309839, 0.02656383439898491, 0.043717526423279196, 0.05992060594144277, 0.07690567945246585, 0.09333369744126685, 0.11038874421501532, 0.12906205095350742, 0.14356631590635516, 0.1620293614687398, 0.1769889646966476, 0.19614047903451137, 0.21046520280651748, 0.2291255388990976, 0.24361239586141892, 0.2628427581221331, 0.27694971140590496, 0.2960425164492335, 0.31033890959224664, 0.32774177473038435, 0.3436629131610971, 0.3601434964220971, 0.3767916742071975, 0.39348490798147395, 0.4103774802060798, 0.4268986821116414, 0.44366461981553584, 0.46017762972041965, 0.47686164747574367, 0.49327737747807987, 0.5100743764778599, 0.5270929006219376, 0.54352945194114, 0.5603831122280098, 0.5768459461687598, 0.5937405664299149, 0.6100975871377159, 0.627089145971695, 0.6433355747722089, 0.6602022057049908]
40	inanimate/n69.jpg	animate	inanimate	right	1.07	[0.0, 0.0, 0.0, 0.0, 0.0, 0.0, 0.0, -1.0, -1.0, -1.0, -1.0, -1.0, -1.0, -1.0, -2.0, -5.0, -5.0, -5.0, -5.0, -5.0, -5.0, -2.0, 2.0, 4.0, 4.0, 4.0, 4.0, -17.0, -29.0, -111.0, -186.0, -273.0, -364.0, -456.0, -537.0, -604.0, -654.0, -691.0, -728.0, -767.0, -776.0, -802.0, -810.0, -814.0, -815.0, -816.0, -816.0, -816.0, -750.0, -491.0, -380.0, 0.0, 122.0, 468.0, 641.0, 760.0, 828.0, 852.0, 857.0, 857.0, 857.0, 857.0, 858.0, 858.0, 858.0]	[-490.0, -490.0, -490.0, -490.0, -490.0, -490.0, -490.0, -491.0, -487.0, -482.0, -476.0, -465.0, -447.0, -421.0, -393.0, -360.0, -327.0, -278.0, -237.0, -188.0, -141.0, -105.0, -79.0, -59.0, -38.0, -17.0, 1.0, 38.0, 55.0, 107.0, 142.0, 180.0, 221.0, 260.0, 296.0, 326.0, 350.0, 372.0, 393.0, 416.0, 422.0, 437.0, 443.0, 445.0, 446.0, 446.0, 446.0, 448.0, 452.0, 452.0, 452.0, 446.0, 434.0, 400.0, 396.0, 393.0, 393.0, 393.0, 393.0, 393.0, 393.0, 393.0, 393.0, 394.0, 394.0]	[0.008520628471160308, 0.01346893358277157, 0.01831722812494263, 0.03239243742427789, 0.048605415591737255, 0.06583010489703156, 0.08203728040098213, 0.09910017784568481, 0.11568828101735562, 0.13240506674628705, 0.14858766627730802, 0.1657174649881199, 0.1821301229938399, 0.19905614588060416, 0.21544900655862875, 0.2323996054183226, 0.2486016609473154, 0.26564578505349346, 0.28192054451210424, 0.2990503432229161, 0.3154595878731925, 0.3324217920890078, 0.34862657825578935, 0.3657669582753442, 0.3819659418077208, 0.3991244124772493, 0.4156179664132651, 0.4322920855192933, 0.44877949546207674, 0.4657529636460822, 0.4822895255347248, 0.49896705796709284, 0.5156739450467285, 0.5323692267993465, 0.5489109086629469, 0.5657567183079664, 0.5821833709487692, 0.5990783325396478, 0.6180793189851101, 0.6322859415377025, 0.6499011158302892, 0.6657331663300283, 0.6829295249772258, 0.6991148551751394, 0.715454467892414, 0.7320855790167116, 0.7519972420413978, 0.7654027559328824, 0.7850659284740686, 0.7987277834909037, 0.8181701135763433, 0.8319910297868773, 0.8514565704972483, 0.865364185301587, 0.8848464513430372, 0.8986373302468564, 0.9162903925171122, 0.9321698882849887, 0.9496300973987672, 0.9653051346831489, 0.9826646505389363, 0.9988233567564748, 1.0157643982965965, 1.0322053869313095, 1.0490959111775737]
41	inanimate/n31.jpg	animate	inanimate	right	1.082	[0.0, 0.0, 0.0, 0.0, 0.0, 0.0, 0.0, 0.0, 0.0, 0.0, 0.0, 0.0, -2.0, -6.0, -6.0, -7.0, -14.0, -14.0, -14.0, -14.0, -14.0, -14.0, -14.0, -14.0, -17.0, -19.0, -28.0, -41.0, -78.0, -142.0, -276.0, -365.0, -440.0, -513.0, -578.0, -624.0, -661.0, -682.0, -701.0, -714.0, -725.0, -732.0, -734.0, -739.0, -747.0, -751.0, -751.0, -751.0, -715.0, -593.0, -415.0, -180.0, 178.0, 396.0, 561.0, 680.0, 759.0, 802.0, 824.0, 834.0, 837.0, 841.0, 848.0, 849.0, 849.0]	[-490.0, -490.0, -490.0, -490.0, -490.0, -490.0, -490.0, -490.0, -490.0, -490.0, -490.0, -490.0, -489.0, -462.0, -410.0, -339.0, -272.0, -179.0, -128.0, -89.0, -53.0, -24.0, 2.0, 21.0, 40.0, 56.0, 74.0, 93.0, 117.0, 143.0, 187.0, 225.0, 257.0, 291.0, 317.0, 339.0, 358.0, 374.0, 388.0, 400.0, 409.0, 413.0, 415.0, 419.0, 423.0, 428.0, 428.0, 428.0, 434.0, 436.0, 436.0, 436.0, 436.0, 436.0, 436.0, 436.0, 436.0, 436.0, 436.0, 435.0, 433.0, 430.0, 426.0, 426.0, 426.0]	[0.015979915944626555, 0.02059508001548238, 0.030510122218402103, 0.04733715852489695, 0.06384402443654835, 0.08052940753987059, 0.09692841221112758, 0.11377558717504144, 0.13126651625498198, 0.14699104681494646, 0.16414678684668615, 0.18052940754569136, 0.1973666838312056, 0.2137936778308358, 0.23082585528027266, 0.24709993207943626, 0.2641327921883203, 0.2805358928744681, 0.2973680491850246, 0.3138356618001126, 0.330764073994942, 0.347002310823882, 0.3640539442712907, 0.3805273595498875, 0.3973861398117151, 0.41386706443154253, 0.4307599780149758, 0.4472125719767064, 0.46402424830012023, 0.48057241551578045, 0.4974496277573053, 0.5139769736560993, 0.530980137817096, 0.5469907055085059, 0.5640901255828794, 0.5803747836616822, 0.597277595923515, 0.6136554379481822, 0.6307968419860117, 0.6470067481568549, 0.6641280135372654, 0.6802908157405909, 0.6973578091710806, 0.7136550965951756, 0.7308319992735051, 0.7469715908518992, 0.7641884294862393, 0.7802945704024751, 0.7974431424518116, 0.8136305206280667, 0.8308586232597008, 0.847258310590405, 0.8639983069733717, 0.8803887783142272, 0.8973223105422221, 0.9137479391938541, 0.9309169912012294, 0.9471163160633296, 0.9641375708742999, 0.9832232079061214, 0.9973342572047841, 1.0162731210293714, 1.0306551887770183, 1.0498483457195107, 1.0640102536417544]
42	animate/a17.jpg	inanimate	animate	right	1.013	[0.0, 0.0, 0.0, 0.0, 0.0, 0.0, 0.0, 0.0, 0.0, 0.0, -2.0, -12.0, -20.0, -26.0, -31.0, -35.0, -37.0, -37.0, -37.0, -37.0, -37.0, -37.0, -37.0, -42.0, -47.0, -55.0, -70.0, -94.0, -143.0, -231.0, -325.0, -419.0, -529.0, -595.0, -652.0, -693.0, -718.0, -735.0, -745.0, -751.0, -754.0, -758.0, -761.0, -761.0, -760.0, -731.0, -585.0, -434.0, -262.0, -71.0, 110.0, 266.0, 398.0, 505.0, 596.0, 656.0, 693.0, 722.0, 760.0, 770.0, 770.0]	[-490.0, -490.0, -490.0, -490.0, -490.0, -490.0, -490.0, -490.0, -490.0, -490.0, -488.0, -469.0, -449.0, -426.0, -400.0, -371.0, -337.0, -296.0, -247.0, -203.0, -162.0, -129.0, -83.0, -45.0, -11.0, 13.0, 39.0, 65.0, 98.0, 142.0, 184.0, 223.0, 261.0, 285.0, 308.0, 327.0, 340.0, 349.0, 355.0, 359.0, 362.0, 364.0, 368.0, 373.0, 381.0, 393.0, 418.0, 440.0, 457.0, 479.0, 499.0, 518.0, 531.0, 539.0, 540.0, 540.0, 540.0, 540.0, 540.0, 540.0, 540.0]	[0.016433206270448864, 0.025977219454944134, 0.031218729651300237, 0.04792391005321406, 0.06500250881072134, 0.08131720422534272, 0.09831524838227779, 0.11518358599278145, 0.13168499057064764, 0.15101980074541643, 0.1649837355071213, 0.1822268567921128, 0.198611184139736, 0.2158843427314423, 0.2315645000198856, 0.24886906126630493, 0.26495130886905827, 0.2819165850523859, 0.2983268537209369, 0.3146709037828259, 0.33148565207375214, 0.34800514733069576, 0.364889186254004, 0.3813021855894476, 0.39806982994196005, 0.4174012267612852, 0.4313146442291327, 0.4507907662773505, 0.46467141577159055, 0.4826166591083165, 0.4979387580533512, 0.515766241500387, 0.531352190853795, 0.5482748004142195, 0.5648086316650733, 0.581827155809151, 0.5981715471716598, 0.6149938048329204, 0.6315706440072972, 0.6482891364139505, 0.6648294529586565, 0.6815581853443291, 0.6981380965444259, 0.7148774102679454, 0.7315064734139014, 0.7483888056594878, 0.7647792770003434, 0.7816404466284439, 0.7980199953017291, 0.8149695701722521, 0.8315180787176359, 0.8482573924411554, 0.8645679918699898, 0.8817022278963123, 0.8979394407069776, 0.9148784342687577, 0.9312142923299689, 0.9483611576724797, 0.9645307865575887, 0.9817230492189992, 0.9979216913925484]
43	inanimate/n68.jpg	animate	inanimate	right	1.13	[0.0, 0.0, 0.0, 0.0, 0.0, 0.0, 0.0, 0.0, 0.0, 0.0, -5.0, -11.0, -15.0, -18.0, -16.0, -9.0, 7.0, 10.0, 26.0, 29.0, 30.0, 30.0, 29.0, 19.0, -5.0, -49.0, -105.0, -165.0, -239.0, -328.0, -466.0, -565.0, -638.0, -695.0, -734.0, -760.0, -776.0, -782.0, -785.0, -785.0, -785.0, -785.0, -785.0, -785.0, -785.0, -785.0, -774.0, -689.0, -551.0, -376.0, -176.0, 10.0, 180.0, 332.0, 505.0, 573.0, 609.0, 631.0, 645.0, 658.0, 667.0, 681.0, 702.0, 721.0, 734.0, 739.0, 740.0, 740.0]	[-490.0, -490.0, -490.0, -490.0, -490.0, -490.0, -490.0, -490.0, -490.0, -490.0, -470.0, -438.0, -389.0, -331.0, -219.0, -182.0, -69.0, -35.0, 39.0, 67.0, 86.0, 97.0, 107.0, 120.0, 135.0, 155.0, 180.0, 205.0, 234.0, 273.0, 327.0, 367.0, 398.0, 423.0, 443.0, 457.0, 468.0, 473.0, 478.0, 478.0, 478.0, 478.0, 478.0, 478.0, 478.0, 478.0, 478.0, 468.0, 447.0, 427.0, 423.0, 423.0, 423.0, 423.0, 423.0, 423.0, 428.0, 436.0, 441.0, 446.0, 448.0, 453.0, 454.0, 457.0, 458.0, 459.0, 459.0, 459.0]	[0.016366987634683028, 0.022267270600423217, 0.030542207532562315, 0.04773788352031261, 0.06385904308990575, 0.08382907405029982, 0.09722093463642523, 0.1172332908899989, 0.13055244751740247, 0.15067949166405015, 0.16372899521957152, 0.18284330423921347, 0.19725950525025837, 0.2169243844691664, 0.23069990338990465, 0.2500094549031928, 0.26365492594777606, 0.2833925090963021, 0.29725028926623054, 0.3147951489663683, 0.3305367461871356, 0.3478802194003947, 0.3636754059116356, 0.38124074559891596, 0.3972434626193717, 0.41494635949493386, 0.43049032491398975, 0.4475460543471854, 0.4637958964740392, 0.4811834016581997, 0.49707416142337024, 0.5141008775681257, 0.5304247889725957, 0.5477928381296806, 0.5636337632895447, 0.5813114015327301, 0.5971861186553724, 0.6142264881054871, 0.6305486928613391, 0.6474310251069255, 0.6638740617490839, 0.6807386447035242, 0.6969758575141896, 0.7141428615141194, 0.730575999506982, 0.7476532329164911, 0.7636603872524574, 0.7807898446626496, 0.7972335639642552, 0.8140448989288416, 0.83054118353175, 0.8474388757895213, 0.8638692830863874, 0.8807843833346851, 0.8972048919822555, 0.9140879068872891, 0.9305739515111782, 0.9475081663695164, 0.9636607285938226, 0.9806717434257735, 0.9970553881139494, 1.0140438749513123, 1.0305811194994021, 1.0475071423861664, 1.0636887178989127, 1.0807601486740168, 1.096958790847566, 1.114089954906376]
44	animate/a54.jpg	animate	inanimate	left	0.946	[0.0, 0.0, 0.0, 0.0, 0.0, 0.0, 0.0, 0.0, 0.0, 0.0, 0.0, 0.0, 0.0, -3.0, -4.0, -10.0, -14.0, -15.0, -15.0, -15.0, -15.0, -11.0, -8.0, -6.0, -6.0, -10.0, -17.0, -45.0, -81.0, -142.0, -210.0, -302.0, -400.0, -505.0, -613.0, -706.0, -778.0, -817.0, -836.0, -841.0, -841.0, -835.0, -827.0, -817.0, -803.0, -776.0, -745.0, -724.0, -721.0, -721.0, -721.0, -721.0, -729.0, -768.0, -792.0, -801.0, -801.0]	[-490.0, -490.0, -490.0, -490.0, -490.0, -490.0, -490.0, -490.0, -490.0, -490.0, -490.0, -490.0, -481.0, -448.0, -437.0, -395.0, -379.0, -304.0, -250.0, -185.0, -128.0, -89.0, -62.0, -34.0, -25.0, 1.0, 14.0, 49.0, 74.0, 97.0, 116.0, 141.0, 173.0, 219.0, 266.0, 315.0, 362.0, 390.0, 409.0, 421.0, 428.0, 433.0, 434.0, 434.0, 434.0, 434.0, 434.0, 434.0, 434.0, 434.0, 434.0, 434.0, 438.0, 450.0, 456.0, 459.0, 459.0]	[0.013902904407586902, 0.019343753083376214, 0.02575603561126627, 0.043037386203650385, 0.05961081205168739, 0.07628561381716281, 0.09528489361400716, 0.10959186806576326, 0.12888093962101266, 0.14293908228864893, 0.16108639480080456, 0.1763136031513568, 0.19562451998353936, 0.20963590004248545, 0.22889391027274542, 0.2429029009945225, 0.26209400992956944, 0.2762538698443677, 0.2931529274210334, 0.30996016642893665, 0.32871436909772456, 0.34295478361309506, 0.3622383938054554, 0.3762746911670547, 0.39531936825369485, 0.40960006005479954, 0.42690325595322065, 0.44302680488908663, 0.4593534469313454, 0.476093443314312, 0.4925733439158648, 0.5093652229406871, 0.5286474678141531, 0.5426458771980833, 0.5604784806491807, 0.5760200567310676, 0.5929682662535924, 0.609359420282999, 0.6266093682206701, 0.6426943464903161, 0.6596889773209114, 0.6760111820476595, 0.693130740779452, 0.7096205400594044, 0.7264486003550701, 0.7428240530425683, 0.7597371052834205, 0.7759036621428095, 0.793118452798808, 0.8094785455032252, 0.8263250378076918, 0.8428257597261108, 0.8598661291762255, 0.8761968672333751, 0.893081930174958, 0.9095167748164386, 0.9265489522658754]
45	animate/a31.jpg	animate	inanimate	left	0.813	[0.0, 0.0, 0.0, 0.0, 0.0, 0.0, 0.0, 0.0, 0.0, 0.0, 0.0, 0.0, 0.0, 0.0, 0.0, 0.0, 0.0, 0.0, 0.0, 6.0, 15.0, 22.0, 22.0, 16.0, 5.0, -6.0, -19.0, -33.0, -56.0, -109.0, -160.0, -234.0, -321.0, -410.0, -498.0, -669.0, -669.0, -672.0, -678.0, -683.0, -683.0, -686.0, -694.0, -704.0, -707.0, -709.0, -710.0]	[-490.0, -490.0, -490.0, -490.0, -490.0, -490.0, -490.0, -490.0, -490.0, -490.0, -490.0, -490.0, -490.0, -490.0, -490.0, -490.0, -490.0, -490.0, -490.0, -481.0, -460.0, -423.0, -363.0, -291.0, -212.0, -128.0, -44.0, 36.0, 104.0, 190.0, 234.0, 269.0, 298.0, 324.0, 353.0, 436.0, 436.0, 439.0, 448.0, 454.0, 455.0, 456.0, 456.0, 459.0, 459.0, 459.0, 459.0]	[0.01397492567775771, 0.019952691247453913, 0.0258290808997117, 0.04557622136780992, 0.05925377769744955, 0.07651089364662766, 0.09318569541210309, 0.10984274788643233, 0.1261359392956365, 0.14313091145595536, 0.15989002250717022, 0.1763180404668674, 0.1927839464333374, 0.2098611798719503, 0.22590861149365082, 0.24321180739207193, 0.2592769883631263, 0.27617502195062116, 0.29286108768428676, 0.3094556762080174, 0.3260488993837498, 0.3427581757714506, 0.3597173079906497, 0.3763159924710635, 0.39285972237121314, 0.40959255074267276, 0.4261751926096622, 0.44292952498653904, 0.4601651369302999, 0.47600060075637884, 0.49325293803121895, 0.5095416921249125, 0.5280013243900612, 0.5427919677458704, 0.5599637504492421, 0.6166588273772504, 0.6264680563472211, 0.6427527144551277, 0.6597818199370522, 0.6762337312102318, 0.6931037754984573, 0.7093031003314536, 0.7265195976360701, 0.7429039249836933, 0.7598306305590086, 0.7762200779106934, 0.793222559383139]
46	inanimate/n68.jpg	inanimate	animate	left	0.729	[0.0, 0.0, 0.0, 0.0, 0.0, 0.0, 0.0, 1.0, -8.0, -31.0, -49.0, -71.0, -89.0, -104.0, -122.0, -136.0, -141.0, -144.0, -148.0, -150.0, -155.0, -163.0, -176.0, -215.0, -240.0, -354.0, -400.0, -533.0, -621.0, -697.0, -750.0, -777.0, -787.0, -787.0, -787.0, -775.0, -767.0, -765.0, -765.0, -765.0, -767.0, -770.0, -770.0, -770.0]	[-490.0, -490.0, -490.0, -490.0, -490.0, -490.0, -490.0, -489.0, -459.0, -402.0, -354.0, -296.0, -236.0, -182.0, -124.0, -58.0, -22.0, 6.0, 29.0, 48.0, 63.0, 80.0, 97.0, 126.0, 137.0, 181.0, 195.0, 237.0, 269.0, 304.0, 332.0, 350.0, 358.0, 358.0, 363.0, 371.0, 376.0, 378.0, 379.0, 384.0, 389.0, 394.0, 394.0, 394.0]	[0.0002006355789490044, 0.005280695244437084, 0.015020633611129597, 0.0321729603165295, 0.04836511716712266, 0.06550925187184475, 0.0817147206980735, 0.0988370100967586, 0.11504077224526554, 0.13232178150792606, 0.14848560772952624, 0.1655194918566849, 0.18174305133288726, 0.19886431674240157, 0.21508787621860392, 0.23209889102145098, 0.2485013090481516, 0.2655252945260145, 0.28197003781679086, 0.2987581621564459, 0.3152527400816325, 0.33227297087432817, 0.3513231092947535, 0.365432793245418, 0.38448429701384157, 0.39871481285081245, 0.41651430699857883, 0.43225726956734434, 0.44936795363901183, 0.46548979586805217, 0.48196355247637257, 0.49884963940712623, 0.5152882387046702, 0.531923104514135, 0.5492211804375984, 0.5650252416089643, 0.582627445255639, 0.5985973943024874, 0.6155145425291266, 0.6319104752037674, 0.6488477620878257, 0.6652559827489313, 0.6821857602917589, 0.6984396984335035]
