trialIndex	stimulus	left_option	right_option	response	response_time	xTrajectory	yTrajectory	tTrajectory
0	animate/a27.jpg	inanimate	animate	right	1.45	[0.0, 0.0, 0.0, 0.0, 0.0, 0.0, 0.0, 0.0, 0.0, 0.0, 0.0, 0.0, 0.0, 0.0, 0.0, 0.0, 0.0, 0.0, -2.0, -7.0, -15.0, -22.0, -30.0, -36.0, -42.0, -47.0, -56.0, -63.0, -66.0, -70.0, -74.0, -77.0, -80.0, -86.0, -94.0, -101.0, -111.0, -117.0, -130.0, -144.0, -163.0, -183.0, -186.0, -186.0, -181.0, -171.0, -154.0, -134.0, -122.0, -119.0, -119.0, -122.0, -124.0, -124.0, -109.0, -59.0, 32.0, 146.0, 271.0, 391.0, 514.0, 614.0, 708.0, 779.0, 826.0, 844.0, 846.0, 846.0, 846.0, 846.0, 832.0, 804.0, 777.0, 762.0, 758.0, 758.0, 758.0, 757.0, 765.0, 777.0, 791.0, 802.0, 809.0, 812.0, 812.0, 812.0, 812.0]	[-490.0, -490.0, -490.0, -490.0, -490.0, -490.0, -490.0, -490.0, -490.0, -490.0, -490.0, -490.0, -490.0, -490.0, -490.0, -486.0, -481.0, -471.0, -462.0, -450.0, -434.0, -417.0, -401.0, -379.0, -357.0, -335.0, -307.0, -283.0, -260.0, -225.0, -202.0, -181.0, -158.0, -137.0, -115.0, -94.0, -79.0, -68.0, -54.0, -37.0, -14.0, 14.0, 25.0, 35.0, 43.0, 54.0, 67.0, 80.0, 89.0, 93.0, 99.0, 102.0, 106.0, 107.0, 116.0, 129.0, 150.0, 166.0, 193.0, 215.0, 242.0, 265.0, 293.0, 314.0, 327.0, 333.0, 334.0, 334.0, 334.0, 334.0, 332.0, 323.0, 316.0, 311.0, 310.0, 310.0, 310.0, 320.0, 338.0, 359.0, 383.0, 404.0, 422.0, 432.0, 438.0, 440.0, 440.0]	[0.01393649645615369, 0.02122430072631687, 0.0260882981820032, 0.04250608175061643, 0.05970824894029647, 0.07592191535513848, 0.09302680264227092, 0.10948725289199501, 0.126434444100596, 0.14276484644506127, 0.15977313637267798, 0.176119240000844, 0.19305175403133035, 0.20949547900818288, 0.2263208143413067, 0.2425464274128899, 0.2596789626404643, 0.2760865062009543, 0.2929766948800534, 0.3094979024026543, 0.3265232590492815, 0.3428434213856235, 0.35977730073500425, 0.37608654028736055, 0.3930914169177413, 0.4092105340678245, 0.4263785679358989, 0.44274207949638367, 0.45976607082411647, 0.4760585851036012, 0.4929774458287284, 0.5095471226377413, 0.5264379939762875, 0.5428670416586101, 0.5597428942564875, 0.5760849019279703, 0.5930426745908335, 0.60949151951354, 0.6263892175629735, 0.6427950544748455, 0.6597982244566083, 0.6760661627631634, 0.6930474874097854, 0.7093987109838054, 0.7263872036710382, 0.7428742778720334, 0.7596153039485216, 0.7758733436930925, 0.7929731109179556, 0.8091492305975407, 0.8263121445197612, 0.8425043068127707, 0.8596825806889683, 0.8758436817442998, 0.8942067230818793, 0.9096257658675313, 0.9266285944031551, 0.9427149435505271, 0.9597631695214659, 0.9760894757928327, 0.9931175630772486, 1.0091595388948917, 1.0263879887061194, 1.0427446736721322, 1.05960209434852, 1.0760823419550434, 1.0930575225502253, 1.1094391248188913, 1.12646652944386, 1.1428184357937425, 1.1597311524674296, 1.1761154853738844, 1.1930476580746472, 1.209446668275632, 1.2264494969276711, 1.2427556646289304, 1.2597311865538359, 1.2759015036281198, 1.292983180261217, 1.309461721102707, 1.3263601018115878, 1.3428041680017486, 1.359828500659205, 1.3760588923469186, 1.3930562596069649, 1.409183910000138, 1.426290845265612]
1	inanimate/n10.jpg	animate	inanimate	right	1.525	[0.0, 1.0, 1.0, 1.0, 1.0, 1.0, 1.0, 1.0, 1.0, 1.0, 1.0, 1.0, 1.0, 1.0, 1.0, 1.0, 1.0, 1.0, 1.0, 1.0, 1.0, 1.0, 1.0, 1.0, 1.0, 1.0, 1.0, 1.0, 1.0, 1.0, 1.0, 1.0, 1.0, 1.0, 1.0, 1.0, 1.0, 1.0, 1.0, 1.0, 1.0, -1.0, -11.0, -39.0, -114.0, -153.0, -299.0, -409.0, -516.0, -626.0, -729.0, -808.0, -858.0, -887.0, -900.0, -901.0, -899.0, -884.0, -834.0, -777.0, -701.0, -594.0, -472.0, -323.0, -150.0, 28.0, 204.0, 379.0, 541.0, 673.0, 800.0, 836.0, 851.0, 852.0, 852.0, 851.0, 847.0, 834.0, 824.0, 815.0, 804.0, 797.0, 789.0, 785.0, 782.0, 781.0, 780.0, 780.0, 780.0, 780.0, 780.0]	[-490.0, -491.0, -491.0, -491.0, -491.0, -491.0, -491.0, -491.0, -491.0, -491.0, -491.0, -491.0, -491.0, -491.0, -491.0, -491.0, -491.0, -491.0, -490.0, -488.0, -488.0, -486.0, -486.0, -486.0, -486.0, -486.0, -486.0, -486.0, -486.0, -486.0, -486.0, -486.0, -486.0, -486.0, -486.0, -486.0, -486.0, -486.0, -486.0, -486.0, -486.0, -482.0, -465.0, -433.0, -350.0, -304.0, -162.0, -67.0, 24.0, 119.0, 211.0, 291.0, 359.0, 405.0, 432.0, 444.0, 452.0, 455.0, 459.0, 459.0, 459.0, 451.0, 432.0, 411.0, 383.0, 358.0, 334.0, 310.0, 284.0, 270.0, 260.0, 260.0, 262.0, 263.0, 265.0, 267.0, 270.0, 275.0, 280.0, 284.0, 292.0, 299.0, 315.0, 327.0, 339.0, 352.0, 362.0, 371.0, 379.0, 382.0, 383.0]	[0.003499757032841444, 0.009457385982386768, 0.022108558216132224, 0.0391349388519302, 0.0555561357177794, 0.07246407377533615, 0.08885625738184899, 0.10573279275558889, 0.1221157603431493, 0.13918378355447203, 0.15522200474515557, 0.1723647799808532, 0.18890373676549643, 0.20587686949875206, 0.22213081317022443, 0.23912783910054713, 0.2554541453719139, 0.27246004599146545, 0.28898159484378994, 0.30583218892570585, 0.3218898660270497, 0.3390770145924762, 0.3554852408124134, 0.37250240542925894, 0.388953298330307, 0.40587284171488136, 0.4221073293592781, 0.43918217928148806, 0.45549346692860126, 0.47247240226715803, 0.48891373781953007, 0.5057936866069213, 0.522145934170112, 0.5392614027950913, 0.555469949147664, 0.5723809591727331, 0.5889666785951704, 0.6058022540528327, 0.6221606456674635, 0.6391440182924271, 0.655458036577329, 0.6724676919402555, 0.6889588620979339, 0.7058893281500787, 0.7221576077863574, 0.7390826124465093, 0.7552198201883584, 0.7722752140834928, 0.7889264696277678, 0.8058385036420077, 0.8221528632566333, 0.8390468065626919, 0.8554277261719108, 0.8724882401293144, 0.888580733211711, 0.9057030284311622, 0.9218869988108054, 0.9391284193843603, 0.9553250190801919, 0.9723752930294722, 0.9886166073847562, 1.0057812278391793, 1.0222427020780742, 1.0391663414193317, 1.0554960611043498, 1.0725074231158942, 1.088838849333115, 1.1057491766987368, 1.1219771790783852, 1.1391755916411057, 1.1554817592259496, 1.1724320225184783, 1.1888194275088608, 1.2058328374987468, 1.222104189102538, 1.239193033776246, 1.2554923746502027, 1.2724358113482594, 1.2888010296737775, 1.3057946423068643, 1.322135625872761, 1.3391234359005466, 1.3554773902287707, 1.3724030775483698, 1.3889505676925182, 1.405834271106869, 1.4222544439835474, 1.4391272247303277, 1.4554368056124076, 1.4724044769536704, 1.4889099831925705]
2	inanimate/n80.jpg	inanimate	animate	left	1.253	[0.0, 0.0, 0.0, 0.0, 0.0, 0.0, 0.0, 0.0, -1.0, -2.0, -5.0, -8.0, -9.0, -13.0, -16.0, -19.0, -25.0, -33.0, -45.0, -59.0, -78.0, -103.0, -124.0, -162.0, -181.0, -198.0, -209.0, -217.0, -220.0, -222.0, -222.0, -224.0, -224.0, -224.0, -224.0, -219.0, -206.0, -181.0, -130.0, -59.0, 34.0, 129.0, 217.0, 273.0, 299.0, 304.0, 304.0, 286.0, 256.0, 197.0, 115.0, 31.0, -45.0, -116.0, -179.0, -234.0, -280.0, -322.0, -352.0, -392.0, -417.0, -440.0, -467.0, -497.0, -533.0, -559.0, -590.0, -617.0, -643.0, -670.0, -691.0, -717.0, -727.0, -729.0, -729.0, -729.0]	[-490.0, -490.0, -490.0, -490.0, -490.0, -490.0, -490.0, -490.0, -490.0, -490.0, -490.0, -483.0, -479.0, -472.0, -466.0, -459.0, -451.0, -439.0, -425.0, -411.0, -393.0, -369.0, -351.0, -327.0, -314.0, -301.0, -292.0, -287.0, -284.0, -281.0, -277.0, -271.0, -267.0, -263.0, -258.0, -240.0, -221.0, -192.0, -150.0, -97.0, -31.0, 33.0, 87.0, 132.0, 156.0, 172.0, 188.0, 210.0, 221.0, 234.0, 245.0, 258.0, 268.0, 280.0, 289.0, 298.0, 304.0, 311.0, 317.0, 327.0, 335.0, 342.0, 349.0, 358.0, 368.0, 375.0, 384.0, 391.0, 396.0, 401.0, 404.0, 407.0, 409.0, 409.0, 409.0, 409.0]	[0.00788281625136733, 0.013462589355185628, 0.018334096181206405, 0.03079821786377579, 0.04799731308594346, 0.06424443004652858, 0.0814489865442738, 0.09770156489685178, 0.11466855357866734, 0.13104571856092662, 0.14803523512091488, 0.16409734962508082, 0.18126606615260243, 0.19772651640232652, 0.21463923307601362, 0.2310764726717025, 0.24802059191279113, 0.2643230049870908, 0.2813449482200667, 0.29771596915088594, 0.31467681378126144, 0.3307744269259274, 0.34807421534787863, 0.36440803098957986, 0.3813023157417774, 0.3977518433239311, 0.41475398920010775, 0.43079903698526323, 0.4480271455831826, 0.4643360438058153, 0.4813064457848668, 0.4976167094428092, 0.514634556719102, 0.5310124043608084, 0.5480671157129109, 0.5644289206247777, 0.5813313972903416, 0.5977867275942117, 0.6147386975353584, 0.6308342625852674, 0.6479411978507414, 0.664119706954807, 0.6812484874390066, 0.6977376097347587, 0.7146581769920886, 0.7310653793392703, 0.7480514826020226, 0.7643870048923418, 0.7813355615362525, 0.7992316590389237, 0.8147094111191109, 0.8311729333363473, 0.8480583433993161, 0.8641047565033659, 0.8812656224472448, 0.8974441314348951, 0.9145718880463392, 0.9308241250691935, 0.9479935242561623, 0.9643505505518988, 0.9813267551362514, 0.997768773464486, 1.014744636719115, 1.0308098231907934, 1.0479471370344982, 1.0643925686599687, 1.0813063093228266, 1.0975111010484397, 1.1145644469652325, 1.131045035785064, 1.1480905311182141, 1.1643741708248854, 1.1813056607497856, 1.1977125216508284, 1.2146911156596616, 1.23103175801225]
3	animate/a20.jpg	inanimate	animate	right	1.056	[0.0, 0.0, 0.0, 0.0, 0.0, 1.0, 8.0, 10.0, 10.0, 10.0, 12.0, 13.0, 14.0, 15.0, 15.0, 15.0, 15.0, 16.0, 17.0, 17.0, 17.0, 17.0, 17.0, 17.0, 17.0, 14.0, 12.0, 7.0, 2.0, -3.0, -10.0, -17.0, -21.0, -26.0, -28.0, -30.0, -30.0, -30.0, -17.0, -4.0, 21.0, 82.0, 184.0, 341.0, 438.0, 513.0, 577.0, 617.0, 641.0, 651.0, 651.0, 651.0, 651.0, 651.0, 651.0, 651.0, 652.0, 660.0, 676.0, 692.0, 705.0, 710.0, 712.0, 713.0]	[-490.0, -490.0, -490.0, -490.0, -490.0, -490.0, -485.0, -484.0, -482.0, -480.0, -477.0, -475.0, -472.0, -472.0, -471.0, -470.0, -469.0, -465.0, -458.0, -451.0, -433.0, -411.0, -388.0, -367.0, -350.0, -331.0, -310.0, -294.0, -278.0, -267.0, -249.0, -235.0, -217.0, -197.0, -171.0, -139.0, -93.0, -49.0, -10.0, 11.0, 42.0, 88.0, 147.0, 237.0, 279.0, 308.0, 332.0, 348.0, 354.0, 357.0, 357.0, 357.0, 357.0, 357.0, 357.0, 357.0, 357.0, 359.0, 368.0, 376.0, 384.0, 388.0, 389.0, 390.0]	[0.015233220881782472, 0.02455298148561269, 0.030215357313863933, 0.04537601082120091, 0.06191121297888458, 0.07897275092545897, 0.09525434265378863, 0.11232680326793343, 0.12872342416085303, 0.14587951137218624, 0.16200306580867618, 0.17898541444446892, 0.1953840833157301, 0.21237325866241008, 0.22870912228245288, 0.24578499619383365, 0.26206078520044684, 0.2791059392038733, 0.29515132831875235, 0.3124371221056208, 0.32852483657188714, 0.34583008638583124, 0.36183076084125787, 0.37901517865248024, 0.39547392225358635, 0.41230232967063785, 0.42866311059333384, 0.4456420459318906, 0.46204754151403904, 0.47912068478763103, 0.495496143004857, 0.5123685824219137, 0.5286259393906221, 0.5457895359722897, 0.5621308608679101, 0.5791097962064669, 0.5954668225022033, 0.6122887445380911, 0.6284716909285635, 0.6456035434966907, 0.6618503192439675, 0.6789743211120367, 0.6954910913482308, 0.7123512426624075, 0.7284901570528746, 0.7457797055831179, 0.7621271745301783, 0.7790204351767898, 0.795459040091373, 0.8123833620920777, 0.828749263077043, 0.845749702421017, 0.8618094275007024, 0.8788856427418068, 0.8954867222346365, 0.9123926123138517, 0.9286881985608488, 0.9457903552101925, 0.962089013424702, 0.9790034368634224, 0.9951857004780322, 1.0123318891273811, 1.0287261207122356, 1.0457705919397995]
4	animate/a1.jpg	animate	inanimate	left	1.206	[0.0, 0.0, 0.0, 0.0, 0.0, 0.0, -1.0, -4.0, -6.0, -7.0, -7.0, -7.0, -7.0, -7.0, -7.0, -8.0, -8.0, -8.0, -10.0, -13.0, -17.0, -22.0, -28.0, -36.0, -44.0, -54.0, -59.0, -63.0, -64.0, -64.0, -45.0, -22.0, 14.0, 60.0, 114.0, 182.0, 267.0, 343.0, 407.0, 455.0, 481.0, 509.0, 519.0, 522.0, 522.0, 522.0, 522.0, 522.0, 521.0, 495.0, 435.0, 343.0, 240.0, 137.0, -9.0, -98.0, -180.0, -258.0, -323.0, -391.0, -444.0, -496.0, -534.0, -570.0, -599.0, -629.0, -671.0, -700.0, -729.0, -753.0, -773.0, -776.0, -777.0]	[-490.0, -490.0, -490.0, -490.0, -490.0, -490.0, -490.0, -490.0, -490.0, -490.0, -490.0, -485.0, -481.0, -476.0, -472.0, -468.0, -465.0, -461.0, -455.0, -441.0, -427.0, -409.0, -388.0, -366.0, -349.0, -327.0, -301.0, -276.0, -249.0, -210.0, -144.0, -99.0, -45.0, 16.0, 65.0, 127.0, 190.0, 241.0, 278.0, 307.0, 325.0, 340.0, 346.0, 349.0, 349.0, 349.0, 349.0, 349.0, 349.0, 350.0, 350.0, 350.0, 350.0, 350.0, 350.0, 350.0, 350.0, 357.0, 365.0, 365.0, 368.0, 368.0, 368.0, 368.0, 368.0, 372.0, 378.0, 383.0, 389.0, 394.0, 400.0, 400.0, 401.0]	[0.010002153925597668, 0.016122257453389466, 0.021843342576175928, 0.03532224765513092, 0.052379348198883235, 0.06867561722174287, 0.08556239260360599, 0.10206824005581439, 0.11902669537812471, 0.13510519382543862, 0.1522428491152823, 0.16870432335417718, 0.1856638026656583, 0.20202151162084192, 0.21900147094856948, 0.2353335798252374, 0.2523548405151814, 0.26867193076759577, 0.2856467701494694, 0.30203417502343655, 0.31913496635388583, 0.3354121206793934, 0.35235419194214046, 0.36874193826224655, 0.38563861220609397, 0.40191815595608205, 0.4190329418051988, 0.43535242148209363, 0.4523528607096523, 0.468694185721688, 0.48565980908460915, 0.5020728139206767, 0.519160634605214, 0.5354330101981759, 0.5523402655962855, 0.5684624545974657, 0.5856315125711262, 0.601989904185757, 0.6190493940375745, 0.63509444182273, 0.6521593931829557, 0.6687816352350637, 0.6857735412195325, 0.7020158795639873, 0.7189282549079508, 0.7353794891387224, 0.7523007391719148, 0.768679610802792, 0.7856278261169791, 0.8020353696774691, 0.8189917770214379, 0.8353709899820387, 0.8523260320071131, 0.8687571275513619, 0.8856527776224539, 0.9017667747102678, 0.9190358431078494, 0.9354020854225382, 0.9524161780718714, 0.9686858230270445, 0.9855968330521137, 1.001936792745255, 1.0190686453133821, 1.0353502369252965, 1.0523192735854536, 1.0685261132894084, 1.0856501151574776, 1.102047077496536, 1.1191055433591828, 1.1354195616440848, 1.1523530996637419, 1.1687452832702547, 1.185613626614213]
5	animate/a25.jpg	animate	inanimate	left	1.161	[0.0, 1.0, 1.0, 1.0, 1.0, 1.0, 1.0, 1.0, 1.0, 1.0, 1.0, 1.0, 1.0, -1.0, -2.0, -3.0, -3.0, -3.0, -3.0, -3.0, -3.0, 1.0, 16.0, 39.0, 67.0, 100.0, 139.0, 158.0, 177.0, 198.0, 221.0, 266.0, 319.0, 380.0, 441.0, 487.0, 534.0, 585.0, 625.0, 677.0, 700.0, 713.0, 722.0, 728.0, 734.0, 739.0, 740.0, 740.0, 722.0, 674.0, 559.0, 416.0, 159.0, -5.0, -151.0, -284.0, -400.0, -492.0, -565.0, -606.0, -633.0, -648.0, -661.0, -667.0, -675.0, -688.0, -701.0, -713.0, -718.0, -719.0]	[-490.0, -492.0, -492.0, -492.0, -492.0, -492.0, -492.0, -492.0, -492.0, -492.0, -492.0, -493.0, -494.0, -495.0, -496.0, -496.0, -496.0, -496.0, -496.0, -491.0, -481.0, -460.0, -422.0, -366.0, -304.0, -225.0, -123.0, -83.0, -43.0, -6.0, 16.0, 62.0, 105.0, 148.0, 185.0, 213.0, 238.0, 261.0, 283.0, 312.0, 330.0, 342.0, 351.0, 358.0, 368.0, 374.0, 378.0, 385.0, 396.0, 406.0, 416.0, 416.0, 416.0, 416.0, 416.0, 416.0, 416.0, 416.0, 416.0, 416.0, 416.0, 416.0, 416.0, 416.0, 416.0, 416.0, 416.0, 416.0, 416.0, 416.0]	[0.002504634438082576, 0.008078263606876135, 0.019885660149157047, 0.036802814225666225, 0.05293490190524608, 0.07002238126005977, 0.08655109803657979, 0.10350511607248336, 0.11987135838717222, 0.13680660305544734, 0.15319195995107293, 0.17018557258415967, 0.1862466629827395, 0.2034071875968948, 0.22004342440050095, 0.23692951712291688, 0.2531384048052132, 0.27008252416271716, 0.286536147701554, 0.30347856029402465, 0.31993866921402514, 0.3368722072336823, 0.3531531161861494, 0.3701805208111182, 0.38652082183398306, 0.40353013575077057, 0.41982947674114257, 0.4368152387905866, 0.45315383304841816, 0.47026281629223377, 0.48656352260150015, 0.5033734979806468, 0.5198865135898814, 0.5368268782040104, 0.5532470510806888, 0.5702488557435572, 0.5865376153960824, 0.6035066520562395, 0.6198681156383827, 0.6368630935903639, 0.6532143172807992, 0.6703355885110795, 0.6865629082312807, 0.7033725422807038, 0.7198712218087167, 0.736792471841909, 0.7531747567700222, 0.7701956760138273, 0.786537001025863, 0.8034872643183917, 0.819827224011533, 0.8368187885498628, 0.8531730842078105, 0.8702271127840504, 0.8865762884961441, 0.9035217731725425, 0.9196746821980923, 0.9367580654798076, 0.9533181849401444, 0.9702660589246079, 0.9863421680638567, 1.0034603673266247, 1.0198682522168383, 1.0368847341742367, 1.0531676912214607, 1.0701339971274137, 1.0866623726906255, 1.1034337774617597, 1.1198812570655718, 1.1369110509986058]
6	animate/a29.jpg	animate	inanimate	left	1.069	[0.0, 0.0, 0.0, 0.0, 0.0, 0.0, -3.0, -8.0, -16.0, -25.0, -29.0, -37.0, -46.0, -58.0, -73.0, -96.0, -119.0, -161.0, -189.0, -215.0, -237.0, -254.0, -267.0, -282.0, -296.0, -316.0, -338.0, -370.0, -403.0, -450.0, -477.0, -503.0, -522.0, -532.0, -535.0, -534.0, -522.0, -497.0, -454.0, -370.0, -211.0, -153.0, -11.0, 23.0, 27.0, 21.0, -4.0, -44.0, -124.0, -219.0, -336.0, -443.0, -589.0, -662.0, -714.0, -758.0, -786.0, -800.0, -806.0, -808.0, -808.0, -808.0, -808.0, -808.0]	[-490.0, -490.0, -490.0, -490.0, -490.0, -490.0, -486.0, -473.0, -463.0, -447.0, -434.0, -407.0, -385.0, -356.0, -318.0, -264.0, -220.0, -153.0, -112.0, -80.0, -55.0, -37.0, -23.0, -6.0, 4.0, 23.0, 53.0, 100.0, 149.0, 219.0, 260.0, 296.0, 324.0, 341.0, 352.0, 361.0, 375.0, 393.0, 411.0, 439.0, 478.0, 488.0, 508.0, 508.0, 508.0, 503.0, 495.0, 484.0, 466.0, 453.0, 435.0, 423.0, 414.0, 414.0, 414.0, 414.0, 414.0, 414.0, 414.0, 414.0, 414.0, 414.0, 414.0, 414.0]	[0.006253974395804107, 0.012548840488307178, 0.02780301938764751, 0.0447894639801234, 0.06115604762453586, 0.07804794295225292, 0.09435513464268297, 0.11151907255407423, 0.12790101615246385, 0.14486902870703489, 0.16109156981110573, 0.17818143835756928, 0.1945019420236349, 0.21149828529451042, 0.22784814366605133, 0.2448489242233336, 0.261244862456806, 0.27810364856850356, 0.2944449734641239, 0.3115416687214747, 0.3278775323415175, 0.3447595291072503, 0.3611773126758635, 0.3781074373982847, 0.3945091782370582, 0.4114730949513614, 0.4275655880337581, 0.44475717388559133, 0.4611964614596218, 0.47811429819557816, 0.4945215004263446, 0.5115902062971145, 0.5278755526524037, 0.5448254746152088, 0.560994767700322, 0.57804196968209, 0.5943532573292032, 0.6115072965621948, 0.6276322162011638, 0.6452620738418773, 0.6611221190541983, 0.6781345050549135, 0.6942737607751042, 0.7116602478781715, 0.727595386444591, 0.74509656149894, 0.7608487453544512, 0.7781577497953549, 0.7942277149995789, 0.8115640260512009, 0.8275554846040905, 0.8446805104613304, 0.8609938460867852, 0.8780560666928068, 0.8943250289885327, 0.9114432282513008, 0.9276626972714439, 0.9447699738666415, 0.9611683015245944, 0.9780984261306003, 0.9945049457019195, 1.0115132357459515, 1.0277866353280842, 1.044799362658523]
7	animate/a63.jpg	animate	inanimate	left	1.003	[0.0, 0.0, 0.0, 0.0, 0.0, 0.0, 0.0, 0.0, 0.0, -8.0, -19.0, -31.0, -42.0, -52.0, -62.0, -79.0, -95.0, -112.0, -131.0, -152.0, -175.0, -204.0, -234.0, -266.0, -301.0, -370.0, -420.0, -464.0, -497.0, -519.0, -532.0, -542.0, -549.0, -555.0, -558.0, -560.0, -562.0, -562.0, -558.0, -529.0, -498.0, -468.0, -432.0, -396.0, -372.0, -362.0, -361.0, -361.0, -378.0, -414.0, -478.0, -598.0, -675.0, -746.0, -814.0, -877.0, -923.0, -944.0, -952.0, -952.0, -952.0]	[-490.0, -490.0, -490.0, -490.0, -490.0, -490.0, -490.0, -490.0, -489.0, -485.0, -480.0, -473.0, -466.0, -457.0, -446.0, -422.0, -401.0, -377.0, -350.0, -319.0, -288.0, -249.0, -208.0, -164.0, -119.0, -50.0, -8.0, 31.0, 61.0, 83.0, 102.0, 119.0, 132.0, 144.0, 155.0, 165.0, 174.0, 181.0, 196.0, 220.0, 243.0, 263.0, 285.0, 305.0, 319.0, 326.0, 329.0, 333.0, 335.0, 340.0, 347.0, 361.0, 374.0, 384.0, 396.0, 417.0, 428.0, 434.0, 437.0, 437.0, 437.0]	[0.007215509889647365, 0.013569426606409252, 0.017798544373363256, 0.029535626410506666, 0.046549719059839845, 0.06300402525812387, 0.07989660324528813, 0.09625362954102457, 0.11321379151195288, 0.12956467387266457, 0.14656955050304532, 0.1629443260608241, 0.17995398142375052, 0.19631919963285327, 0.2132793617201969, 0.2295909906970337, 0.24665969656780362, 0.2626784617314115, 0.27985912491567433, 0.2962342418031767, 0.3132077158661559, 0.32954938209149987, 0.34659965604078025, 0.36291196767706424, 0.379937665653415, 0.3963243879843503, 0.41327192063909024, 0.42933676566462964, 0.44662870350293815, 0.4629573991987854, 0.47991312376689166, 0.4963029180653393, 0.5132555707823485, 0.5293333865702152, 0.5465379430679604, 0.5629434386501089, 0.5799442193238065, 0.596307048224844, 0.6131982608931139, 0.6296109245158732, 0.6466506171273068, 0.6630073020933196, 0.6799422054318711, 0.6962575890356675, 0.7131034043850377, 0.7295682920375839, 0.7466073019895703, 0.7629469202365726, 0.7799268795643002, 0.7959657832980156, 0.8131331345066428, 0.8295744701754302, 0.8467814159812406, 0.863077002344653, 0.8799634362803772, 0.8962999826762825, 0.9132693605497479, 0.9293461523484439, 0.946541492943652, 0.9628404926043004, 0.9798112359130755]
8	inanimate/n72.jpg	animate	inanimate	left	1.117	[0.0, 0.0, 0.0, 0.0, 0.0, 0.0, -1.0, -7.0, -16.0, -31.0, -44.0, -52.0, -55.0, -58.0, -60.0, -70.0, -83.0, -100.0, -123.0, -147.0, -175.0, -213.0, -248.0, -276.0, -314.0, -347.0, -365.0, -379.0, -385.0, -387.0, -387.0, -382.0, -365.0, -336.0, -287.0, -219.0, -156.0, -92.0, -26.0, 63.0, 117.0, 143.0, 154.0, 154.0, 143.0, 118.0, 66.0, -26.0, -137.0, -254.0, -370.0, -526.0, -613.0, -673.0, -704.0, -715.0, -715.0, -715.0, -715.0, -715.0, -718.0, -723.0, -726.0, -728.0, -728.0, -728.0, -728.0]	[-490.0, -490.0, -490.0, -490.0, -490.0, -490.0, -490.0, -490.0, -486.0, -479.0, -473.0, -467.0, -463.0, -458.0, -451.0, -433.0, -413.0, -390.0, -361.0, -330.0, -300.0, -263.0, -232.0, -208.0, -164.0, -129.0, -107.0, -84.0, -54.0, -44.0, -35.0, -20.0, 0.0, 25.0, 59.0, 93.0, 127.0, 162.0, 198.0, 239.0, 263.0, 278.0, 287.0, 292.0, 298.0, 305.0, 312.0, 321.0, 337.0, 343.0, 343.0, 349.0, 362.0, 370.0, 375.0, 378.0, 378.0, 378.0, 378.0, 378.0, 379.0, 382.0, 383.0, 383.0, 383.0, 383.0, 383.0]	[0.0022513652220368385, 0.008082018233835697, 0.019509511068463326, 0.03645499562844634, 0.05272327538114041, 0.0699063278734684, 0.08611965295858681, 0.102994822897017, 0.11939246789552271, 0.13631474191788584, 0.1527028294513002, 0.16976231941953301, 0.1860756550449878, 0.2030610756482929, 0.21947442193049937, 0.23646359727717936, 0.25271685828920454, 0.2698029722087085, 0.2861268891720101, 0.3030160538619384, 0.3194635334657505, 0.3363547461340204, 0.35281587904319167, 0.36979481438174844, 0.3860596807207912, 0.40307957597542554, 0.419137594406493, 0.43645240156911314, 0.45271283050533384, 0.46969927521422505, 0.48609692009631544, 0.5029884740943089, 0.5193847537739202, 0.5363944090204313, 0.5524551582057029, 0.5697781572816893, 0.5858064797939733, 0.602934236289002, 0.6194742171792313, 0.6364456431474537, 0.6527248454513028, 0.6698734234087169, 0.6860454471316189, 0.70309060101863, 0.7194250993197784, 0.7364101785933599, 0.7527330715674907, 0.7699328494491056, 0.785977897234261, 0.8030097391456366, 0.8194258161820471, 0.8363450181204826, 0.8524672072380781, 0.8697721157222986, 0.8858383260667324, 0.9029950960539281, 0.9194982128683478, 0.9364460868528113, 0.9527891185134649, 0.9698472431628034, 0.9858096882235259, 1.0030244848458096, 1.0194405617658049, 1.0364194969879463, 1.0527458033757284, 1.0696663706330582, 1.0861875781556591]
9	inanimate/n47.jpg	animate	inanimate	right	1.315	[0.0, 0.0, 0.0, 0.0, 0.0, 0.0, 0.0, 0.0, 0.0, 0.0, 0.0, 0.0, 0.0, 0.0, 0.0, 0.0, 0.0, 0.0, 0.0, 0.0, 0.0, 0.0, 0.0, 0.0, 0.0, 0.0, 0.0, 0.0, 0.0, 0.0, -1.0, -1.0, -1.0, -1.0, -1.0, -1.0, -1.0, -1.0, -1.0, -1.0, -1.0, -1.0, -1.0, -1.0, -1.0, -1.0, -1.0, -1.0, -1.0, -1.0, 2.0, 17.0, 54.0, 122.0, 212.0, 311.0, 410.0, 507.0, 616.0, 668.0, 698.0, 715.0, 722.0, 724.0, 724.0, 724.0, 724.0, 722.0, 719.0, 715.0, 715.0, 715.0, 715.0, 715.0, 715.0, 715.0, 715.0, 715.0, 715.0]	[-490.0, -490.0, -490.0, -490.0, -490.0, -490.0, -490.0, -490.0, -490.0, -490.0, -490.0, -490.0, -490.0, -490.0, -490.0, -490.0, -490.0, -490.0, -490.0, -490.0, -490.0, -490.0, -490.0, -490.0, -490.0, -490.0, -490.0, -491.0, -491.0, -491.0, -491.0, -491.0, -491.0, -491.0, -491.0, -491.0, -491.0, -489.0, -489.0, -488.0, -486.0, -485.0, -482.0, -479.0, -476.0, -474.0, -471.0, -467.0, -461.0, -446.0, -424.0, -388.0, -329.0, -251.0, -163.0, -78.0, 4.0, 87.0, 184.0, 231.0, 260.0, 279.0, 291.0, 299.0, 303.0, 307.0, 310.0, 314.0, 315.0, 319.0, 329.0, 341.0, 351.0, 358.0, 362.0, 365.0, 365.0, 365.0, 365.0]	[0.00011714547872543335, 0.007872234913520515, 0.015153895132243633, 0.032342750346288085, 0.04870045930147171, 0.06568792788311839, 0.08183230366557837, 0.0989375322824344, 0.11544201441574842, 0.1324062724597752, 0.14848442957736552, 0.16567362612113357, 0.18207092967350036, 0.1991379288956523, 0.21550451254006475, 0.23247627983801067, 0.24880087946075946, 0.26574295083992183, 0.2820832517463714, 0.2991666350280866, 0.3151970055187121, 0.33232476213015616, 0.3486906629987061, 0.36572079826146364, 0.38203481666278094, 0.39915130916051567, 0.4153827248374, 0.4324207108002156, 0.44873848382849246, 0.46575086971279234, 0.4818071814952418, 0.49893596209585667, 0.5154346416238695, 0.5323613529326394, 0.5484715953934938, 0.5654716934077442, 0.5818119943141937, 0.5990424922201782, 0.6154002011753619, 0.6323897177353501, 0.648675405420363, 0.6657437700778246, 0.6818676657276228, 0.69899951829575, 0.7153708806727082, 0.732333090621978, 0.7487399515230209, 0.7657622362021357, 0.7820984411519021, 0.7990725977579132, 0.8155654746806249, 0.8324283566325903, 0.8487044869689271, 0.8656417797319591, 0.8820643419167027, 0.8990794585552067, 0.9154105435591191, 0.9324198574759066, 0.9487174918176606, 0.9659032750641927, 0.9820848560193554, 0.9990136154228821, 1.015373713686131, 1.0323260249570012, 1.0487666779663414, 1.0657548292074353, 1.0820541701978073, 1.0990689455065876, 1.1154887770535424, 1.1323929604841396, 1.1487407707609236, 1.1656947886804119, 1.1822296496247873, 1.199058398255147, 1.2154444379266351, 1.2323533999733627, 1.2484636423178017, 1.2654849030077457, 1.2820695984410122]
10	inanimate/n70.jpg	animate	inanimate	right	1.655	[0.0, 0.0, 0.0, 0.0, 0.0, 0.0, 0.0, 0.0, 0.0, 0.0, 0.0, 0.0, 0.0, 0.0, 0.0, 0.0, 0.0, 0.0, 0.0, 0.0, 0.0, 0.0, 0.0, 0.0, 0.0, -1.0, -1.0, -2.0, -2.0, -3.0, -4.0, -5.0, -7.0, -7.0, -9.0, -10.0, -12.0, -14.0, -14.0, -14.0, -14.0, -14.0, -14.0, -15.0, -17.0, -20.0, -22.0, -25.0, -28.0, -30.0, -34.0, -41.0, -51.0, -55.0, -68.0, -75.0, -81.0, -90.0, -98.0, -104.0, -109.0, -113.0, -115.0, -116.0, -116.0, -116.0, -98.0, -67.0, -5.0, 65.0, 143.0, 221.0, 294.0, 357.0, 402.0, 434.0, 458.0, 483.0, 498.0, 509.0, 521.0, 530.0, 540.0, 546.0, 555.0, 560.0, 564.0, 568.0, 570.0, 576.0, 582.0, 591.0, 601.0, 613.0, 629.0, 643.0, 654.0, 660.0, 663.0, 665.0]	[-490.0, -490.0, -490.0, -490.0, -490.0, -490.0, -490.0, -490.0, -490.0, -490.0, -490.0, -490.0, -490.0, -490.0, -490.0, -490.0, -488.0, -487.0, -484.0, -482.0, -480.0, -478.0, -476.0, -476.0, -475.0, -473.0, -472.0, -472.0, -469.0, -469.0, -465.0, -464.0, -462.0, -461.0, -459.0, -457.0, -453.0, -448.0, -443.0, -440.0, -435.0, -431.0, -421.0, -416.0, -411.0, -404.0, -402.0, -396.0, -393.0, -390.0, -386.0, -381.0, -374.0, -371.0, -362.0, -357.0, -352.0, -344.0, -337.0, -331.0, -325.0, -318.0, -313.0, -308.0, -292.0, -286.0, -256.0, -221.0, -170.0, -124.0, -73.0, -27.0, 21.0, 66.0, 102.0, 135.0, 164.0, 209.0, 238.0, 262.0, 291.0, 314.0, 335.0, 352.0, 368.0, 381.0, 391.0, 398.0, 403.0, 413.0, 420.0, 428.0, 436.0, 443.0, 452.0, 457.0, 459.0, 460.0, 460.0, 460.0]	[0.009311978123150766, 0.013820306514389813, 0.019323962391354144, 0.03393780020996928, 0.050248063867911696, 0.06722358579281718, 0.08367720944806933, 0.10064897674601525, 0.1170148776145652, 0.13400644226931036, 0.1503750738920644, 0.1672993958927691, 0.18345810764003545, 0.20048244029749185, 0.21677222393918782, 0.23390373517759144, 0.2503904680488631, 0.2673151313792914, 0.2836547496262938, 0.30069375957828015, 0.3170890152687207, 0.33401948120445013, 0.35010753700044006, 0.36721174151171, 0.38364249584265053, 0.4006582951406017, 0.41699962003622204, 0.43403419270180166, 0.4503919016569853, 0.4674158929847181, 0.48365993797779083, 0.5006771025946364, 0.517039931495674, 0.5339820028748363, 0.55033971183002, 0.5672804177738726, 0.5838023079559207, 0.6006423206999898, 0.6171171069145203, 0.6339755516964942, 0.650423031183891, 0.6673268732847646, 0.683640550239943, 0.7007840081350878, 0.7170594558119774, 0.7339933351613581, 0.7503606013488024, 0.7672169981524348, 0.7837085096398368, 0.8007099729729816, 0.8169953193282709, 0.834017945220694, 0.8503148969030008, 0.8673074855469167, 0.8834300158778206, 0.9007758843945339, 0.9168332201661542, 0.933886566082947, 0.9503122003516182, 0.9672788477037102, 0.983671031310223, 1.0007312038214877, 1.0169926568632945, 1.0339255122235045, 1.0503344211028889, 1.067368652438745, 1.0836208894615993, 1.1007066620513797, 1.1171278589172289, 1.1340057596098632, 1.150346060632728, 1.1672795986523852, 1.1836618835804984, 1.2007046481594443, 1.2170152531471103, 1.2339986257720739, 1.2503556520678103, 1.2672137554036453, 1.2836363177048042, 1.3006626983406022, 1.3170852605253458, 1.3339529212098569, 1.3503290622029454, 1.367227442911826, 1.383668095804751, 1.400625868467614, 1.417009177384898, 1.4340348753612489, 1.450331485713832, 1.4672837969847023, 1.4836851966101676, 1.5007412731647491, 1.5170829395065084, 1.5340949841775, 1.5503311784705147, 1.5673985190223902, 1.5836749906884506, 1.6007334566675127, 1.617127688252367, 1.633970431634225]
11	inanimate/n55.jpg	animate	inanimate	right	1.503	[0.0, 0.0, 0.0, 0.0, 0.0, 0.0, 0.0, 0.0, 0.0, 0.0, 0.0, -2.0, -3.0, -6.0, -10.0, -17.0, -25.0, -36.0, -43.0, -48.0, -54.0, -60.0, -66.0, -72.0, -77.0, -83.0, -86.0, -91.0, -101.0, -112.0, -124.0, -140.0, -156.0, -170.0, -182.0, -192.0, -205.0, -221.0, -236.0, -250.0, -266.0, -281.0, -299.0, -316.0, -348.0, -375.0, -398.0, -419.0, -437.0, -463.0, -483.0, -501.0, -512.0, -523.0, -528.0, -531.0, -532.0, -532.0, -532.0, -532.0, -532.0, -520.0, -492.0, -442.0, -366.0, -262.0, -135.0, 22.0, 192.0, 357.0, 528.0, 673.0, 781.0, 867.0, 884.0, 884.0, 884.0, 884.0, 882.0, 879.0, 875.0, 872.0, 871.0, 867.0, 862.0, 860.0, 859.0, 859.0, 859.0, 859.0, 859.0]	[-490.0, -490.0, -490.0, -490.0, -490.0, -490.0, -490.0, -490.0, -490.0, -490.0, -490.0, -487.0, -486.0, -481.0, -477.0, -472.0, -466.0, -460.0, -456.0, -452.0, -448.0, -444.0, -440.0, -436.0, -432.0, -424.0, -421.0, -415.0, -405.0, -392.0, -381.0, -368.0, -355.0, -345.0, -332.0, -315.0, -281.0, -246.0, -211.0, -179.0, -146.0, -117.0, -85.0, -54.0, -10.0, 33.0, 62.0, 92.0, 112.0, 140.0, 157.0, 172.0, 182.0, 193.0, 199.0, 205.0, 207.0, 207.0, 207.0, 207.0, 208.0, 217.0, 227.0, 237.0, 247.0, 257.0, 257.0, 257.0, 257.0, 257.0, 263.0, 278.0, 296.0, 313.0, 321.0, 326.0, 333.0, 338.0, 344.0, 352.0, 360.0, 365.0, 369.0, 375.0, 382.0, 385.0, 388.0, 388.0, 388.0, 388.0, 388.0]	[0.013264274806715548, 0.019143738434650004, 0.02459824236575514, 0.041660121525637805, 0.058172454475425184, 0.07513568841386586, 0.09131180809345096, 0.10849383671302348, 0.12480307638179511, 0.14187895029317588, 0.15787245670799166, 0.17511592525988817, 0.19156647683121264, 0.20845052145887166, 0.2246126466197893, 0.24171343783382326, 0.25822338135913014, 0.27519753796514124, 0.29148254299070686, 0.3084293929859996, 0.3248246485600248, 0.3418732158606872, 0.35813057282939553, 0.37512725754640996, 0.39124330261256546, 0.4083843711996451, 0.42482536542229354, 0.4419138686498627, 0.45820808957796544, 0.47517132363282144, 0.49145803530700505, 0.5085035305237398, 0.5248602154897526, 0.5417801002040505, 0.5581832064781338, 0.5751921790651977, 0.5916004052851349, 0.6084219861077145, 0.6248909696005285, 0.6418770729796961, 0.6582269312348217, 0.6751631998922676, 0.6915601621149108, 0.7085141801508144, 0.7248838357627392, 0.741765491082333, 0.757934101507999, 0.7750976980896667, 0.7912236418342218, 0.8084363903617486, 0.824796829954721, 0.8419962665066123, 0.8582338261185214, 0.8751629268517718, 0.8914711424149573, 0.9084350591292605, 0.9248088106978685, 0.9418635220499709, 0.9581652523484081, 0.975117904949002, 0.9914971179096028, 1.0084350932156667, 1.0247893888736144, 1.0418591188499704, 1.0582096597645432, 1.075005640508607, 1.0914957866771147, 1.108512268634513, 1.1248000042978674, 1.1418280915822834, 1.1581608832348138, 1.1751275305869058, 1.1914862635312602, 1.2085757907480001, 1.2248638677410781, 1.2418475816957653, 1.2582407894078642, 1.275061004795134, 1.2912275671260431, 1.3084700116887689, 1.3248536619357765, 1.3417820798931643, 1.3581974741537124, 1.375216345419176, 1.3915385557338595, 1.4084202111698687, 1.4248758826870471, 1.4418169300770387, 1.4582241323078051, 1.4751330943545327, 1.4914553046692163]
12	animate/a46.jpg	inanimate	animate	right	1.673	[0.0, 0.0, 0.0, 0.0, 0.0, 0.0, 0.0, 0.0, 0.0, 0.0, 0.0, 0.0, 0.0, 0.0, 0.0, 0.0, 0.0, 0.0, 0.0, 1.0, 3.0, 4.0, 6.0, 7.0, 8.0, 13.0, 15.0, 20.0, 23.0, 24.0, 25.0, 29.0, 29.0, 25.0, 11.0, -2.0, -29.0, -72.0, -100.0, -135.0, -158.0, -171.0, -180.0, -184.0, -186.0, -188.0, -190.0, -196.0, -205.0, -220.0, -242.0, -276.0, -290.0, -304.0, -309.0, -310.0, -310.0, -301.0, -282.0, -251.0, -200.0, -120.0, -17.0, 102.0, 290.0, 409.0, 520.0, 604.0, 666.0, 707.0, 730.0, 743.0, 744.0, 744.0, 744.0, 744.0, 744.0, 745.0, 746.0, 747.0, 747.0, 748.0, 749.0, 750.0, 750.0, 750.0, 750.0, 750.0, 750.0, 750.0, 750.0, 750.0, 750.0, 750.0, 750.0, 750.0, 750.0, 750.0, 750.0, 750.0, 750.0]	[-490.0, -490.0, -490.0, -490.0, -490.0, -489.0, -487.0, -485.0, -481.0, -478.0, -476.0, -474.0, -473.0, -472.0, -472.0, -471.0, -467.0, -466.0, -462.0, -459.0, -454.0, -449.0, -439.0, -428.0, -414.0, -398.0, -380.0, -349.0, -333.0, -315.0, -299.0, -282.0, -260.0, -235.0, -215.0, -199.0, -173.0, -138.0, -111.0, -79.0, -55.0, -39.0, -23.0, -13.0, -1.0, 7.0, 17.0, 26.0, 40.0, 55.0, 72.0, 101.0, 115.0, 130.0, 139.0, 147.0, 152.0, 162.0, 172.0, 184.0, 196.0, 211.0, 224.0, 240.0, 269.0, 285.0, 299.0, 310.0, 320.0, 326.0, 330.0, 332.0, 332.0, 332.0, 332.0, 332.0, 332.0, 334.0, 335.0, 336.0, 337.0, 339.0, 343.0, 347.0, 352.0, 358.0, 363.0, 365.0, 365.0, 365.0, 365.0, 365.0, 365.0, 365.0, 365.0, 365.0, 365.0, 365.0, 365.0, 365.0, 365.0]	[0.015466214972548187, 0.02333667501807213, 0.028980618808418512, 0.04613260994665325, 0.06259510817471892, 0.0797317394753918, 0.09603005647659302, 0.112906250404194, 0.1292209514649585, 0.1462292413925752, 0.16263303032610565, 0.17964780563488603, 0.1958379199495539, 0.21292027924209833, 0.22916500689461827, 0.24620708881411701, 0.26263818447478116, 0.2795969811268151, 0.2960294419899583, 0.31291963066905737, 0.32926163834054023, 0.34630406158976257, 0.36242113064508885, 0.37951782590243965, 0.3957011136226356, 0.4128275049151853, 0.42907666985411197, 0.4462102291872725, 0.46260923938825727, 0.47972402535378933, 0.4960755902575329, 0.5129456402501091, 0.5293210985837504, 0.5462577085709199, 0.5625846975017339, 0.5796161981998011, 0.5959029098739848, 0.6129272424150258, 0.6290347542380914, 0.6462393107358366, 0.6623553558019921, 0.6794786750106141, 0.6959684799658135, 0.7129027006449178, 0.7292716735973954, 0.7463093181140721, 0.7624898751964793, 0.7796056851511821, 0.7959678313927725, 0.8129119507502764, 0.829297307645902, 0.8462496190331876, 0.8625482772476971, 0.8797449831617996, 0.8960381801007316, 0.9129631848772988, 0.9291618325514719, 0.9463619517628103, 0.9625902954721823, 0.9797354600159451, 0.9959556116955355, 1.0129522962961346, 1.0290731200948358, 1.0463490152033046, 1.0626562068937346, 1.0796419688267633, 1.095988413784653, 1.1128980584908277, 1.1292820500675589, 1.1462306067114696, 1.1626374676125124, 1.179574077599682, 1.1957293760497123, 1.2128206099150702, 1.2293547881999984, 1.2463296274654567, 1.2626542270882055, 1.2797202023211867, 1.2960427539655939, 1.3130251026013866, 1.3292995262891054, 1.3462351122871041, 1.3626214932883158, 1.3796236392809078, 1.3958670016145334, 1.41286914749071, 1.4290097686462104, 1.4462508477736264, 1.4626409834017977, 1.4796134333591908, 1.4958998037036508, 1.5129203816177323, 1.5291903680190444, 1.546177836600691, 1.56268607347738, 1.5796387261943892, 1.5959991657873616, 1.6129289490636438, 1.629365164670162, 1.6462635453790426, 1.6626441236585379]
13	inanimate/n59.jpg	inanimate	animate	left	1.358	[0.0, 0.0, 0.0, 0.0, 0.0, 0.0, 0.0, 0.0, 3.0, 3.0, 3.0, 4.0, 5.0, 5.0, 6.0, 7.0, 7.0, 8.0, 11.0, 11.0, 13.0, 14.0, 15.0, 17.0, 19.0, 21.0, 23.0, 25.0, 26.0, 26.0, 26.0, 26.0, 26.0, 26.0, 25.0, 22.0, 22.0, 22.0, 22.0, 22.0, 26.0, 44.0, 66.0, 86.0, 94.0, 97.0, 97.0, 89.0, 75.0, 53.0, 18.0, -42.0, -152.0, -200.0, -357.0, -454.0, -527.0, -577.0, -599.0, -605.0, -606.0, -607.0, -607.0, -608.0, -610.0, -615.0, -622.0, -630.0, -640.0, -648.0, -656.0, -663.0, -668.0, -676.0, -680.0, -683.0, -685.0, -685.0, -687.0, -687.0, -687.0, -687.0]	[-490.0, -490.0, -490.0, -490.0, -490.0, -490.0, -490.0, -490.0, -487.0, -487.0, -485.0, -482.0, -479.0, -477.0, -474.0, -470.0, -467.0, -461.0, -450.0, -442.0, -434.0, -424.0, -413.0, -401.0, -388.0, -376.0, -362.0, -348.0, -336.0, -320.0, -313.0, -305.0, -298.0, -291.0, -283.0, -274.0, -266.0, -255.0, -240.0, -219.0, -200.0, -158.0, -119.0, -82.0, -56.0, -32.0, -7.0, 16.0, 42.0, 67.0, 96.0, 127.0, 162.0, 174.0, 218.0, 243.0, 264.0, 280.0, 288.0, 291.0, 293.0, 294.0, 294.0, 295.0, 296.0, 298.0, 304.0, 312.0, 322.0, 332.0, 342.0, 350.0, 360.0, 370.0, 375.0, 381.0, 386.0, 389.0, 393.0, 393.0, 393.0, 393.0]	[0.010911943390965462, 0.017794243874959648, 0.022803649306297302, 0.0370556740090251, 0.05334682296961546, 0.07037456892430782, 0.08666810719296336, 0.10384399176109582, 0.12016551941633224, 0.1370731161441654, 0.1535287876613438, 0.17051045363768935, 0.18682242394424975, 0.20376244734507054, 0.22016999090556055, 0.23719091014936566, 0.2535359897883609, 0.270530967740342, 0.2868354287929833, 0.30385191075038165, 0.32014749699737877, 0.33716090698726475, 0.3534663920290768, 0.3704511299729347, 0.38679825759027153, 0.4038362435530871, 0.4201591365272179, 0.43717834912240505, 0.4532769862562418, 0.4704228334594518, 0.4865842758445069, 0.5036526403855532, 0.520143810659647, 0.5372172952629626, 0.5535019588423893, 0.5704075075918809, 0.5868297284469008, 0.6038305091205984, 0.6201281434623525, 0.6371575960656628, 0.6536159983370453, 0.6704379203729331, 0.6867987012956291, 0.7038206446450204, 0.7201544602867216, 0.7371170115657151, 0.7534637978533283, 0.7703635438811034, 0.7868205807171762, 0.8038247746881098, 0.8201367449946702, 0.8372129603521898, 0.8532248988049105, 0.8703861059620976, 0.8866519962903112, 0.9037684889044613, 0.9201350725488737, 0.9371996824629605, 0.9532734021777287, 0.9703813614323735, 0.9868141637416556, 1.0038463469827548, 1.0201907439623028, 1.037161487271078, 1.0532195057021454, 1.070429864921607, 1.0868353605037555, 1.1038842691341415, 1.1199852955760434, 1.1371499160304666, 1.1535567770479247, 1.1704298990080133, 1.186793752014637, 1.2050018280278891, 1.220206854864955, 1.237179304822348, 1.2535052698804066, 1.2705053677782416, 1.2868204100523144, 1.3038027586881071, 1.3201314543839544, 1.3371093657333404]
14	animate/a11.jpg	inanimate	animate	right	1.043	[0.0, 2.0, 2.0, 2.0, 2.0, 2.0, 2.0, 2.0, 2.0, 2.0, 2.0, 2.0, 0.0, 0.0, 0.0, 0.0, 0.0, -2.0, -2.0, -7.0, -10.0, -15.0, -20.0, -25.0, -30.0, -36.0, -42.0, -46.0, -49.0, -52.0, -56.0, -62.0, -66.0, -67.0, -67.0, -67.0, -63.0, -59.0, -58.0, -57.0, -56.0, -53.0, -50.0, -43.0, -35.0, 15.0, 90.0, 197.0, 318.0, 445.0, 568.0, 683.0, 778.0, 840.0, 858.0, 862.0, 862.0, 862.0, 862.0, 862.0, 862.0, 862.0, 862.0]	[-490.0, -495.0, -495.0, -495.0, -495.0, -495.0, -495.0, -495.0, -495.0, -497.0, -498.0, -498.0, -499.0, -499.0, -499.0, -499.0, -499.0, -499.0, -495.0, -482.0, -476.0, -458.0, -442.0, -430.0, -413.0, -401.0, -386.0, -373.0, -363.0, -351.0, -339.0, -319.0, -305.0, -290.0, -274.0, -252.0, -231.0, -212.0, -194.0, -166.0, -138.0, -118.0, -103.0, -93.0, -80.0, -19.0, 47.0, 128.0, 213.0, 299.0, 367.0, 430.0, 477.0, 503.0, 514.0, 516.0, 517.0, 517.0, 517.0, 517.0, 517.0, 517.0, 517.0]	[0.013056061463430524, 0.018471653340384364, 0.024306061095558107, 0.041224921704269946, 0.05826666229404509, 0.0745526913087815, 0.09166884259320796, 0.10763947968371212, 0.12480751355178654, 0.14124065719079226, 0.1582707924535498, 0.17458412807900459, 0.19157671672292054, 0.20787981245666742, 0.22490926505997777, 0.24098469142336398, 0.2581025493564084, 0.2745517356088385, 0.2916003029095009, 0.30764808133244514, 0.3247966591734439, 0.34121546684764326, 0.35840910067781806, 0.3744224044494331, 0.3915300223743543, 0.4079263019375503, 0.42490967467892915, 0.4413264342583716, 0.458198873559013, 0.47456818784121424, 0.4916324564255774, 0.5076604376081377, 0.5248509994708002, 0.5410312152234837, 0.5581746730022132, 0.5743241687305272, 0.5914352000690997, 0.6079826902132481, 0.6248991615138948, 0.6412742785178125, 0.6582880298374221, 0.6746252587763593, 0.6916178474202752, 0.7079694123240188, 0.7249452756950632, 0.740983838099055, 0.7581290026428178, 0.7745648769196123, 0.7915451775770634, 0.8078970838105306, 0.8247917098924518, 0.8412166615016758, 0.858189111459069, 0.8745632043574005, 0.8915237076580524, 0.9079346646321937, 0.9248774186708033, 0.9411078103585169, 0.9582526335725561, 0.9745806464925408, 0.991551389801316, 1.007886229432188, 1.0249146580463275]
15	animate/a24.jpg	inanimate	animate	right	0.914	[0.0, 0.0, 0.0, 0.0, 0.0, 0.0, -2.0, -17.0, -25.0, -34.0, -36.0, -37.0, -37.0, -39.0, -40.0, -44.0, -49.0, -59.0, -75.0, -103.0, -116.0, -152.0, -167.0, -187.0, -206.0, -228.0, -241.0, -251.0, -256.0, -260.0, -261.0, -261.0, -242.0, -200.0, -133.0, -42.0, 73.0, 195.0, 327.0, 466.0, 597.0, 709.0, 798.0, 850.0, 876.0, 891.0, 891.0, 891.0, 891.0, 891.0, 891.0, 891.0, 891.0, 893.0, 895.0]	[-490.0, -490.0, -490.0, -490.0, -490.0, -490.0, -490.0, -490.0, -490.0, -490.0, -490.0, -490.0, -489.0, -487.0, -485.0, -478.0, -472.0, -459.0, -441.0, -409.0, -397.0, -360.0, -338.0, -317.0, -296.0, -278.0, -263.0, -248.0, -235.0, -225.0, -214.0, -197.0, -151.0, -100.0, -47.0, 9.0, 73.0, 134.0, 192.0, 250.0, 296.0, 337.0, 364.0, 378.0, 384.0, 391.0, 391.0, 391.0, 391.0, 391.0, 391.0, 391.0, 391.0, 392.0, 393.0]	[0.012597992434166372, 0.01808150962460786, 0.023467405582778156, 0.040312538272701204, 0.05742322816513479, 0.0736587397987023, 0.09070798975881189, 0.10714761866256595, 0.12398319412022829, 0.14035114308353513, 0.15734851034358144, 0.17366662458516657, 0.19062234926968813, 0.20700565818697214, 0.2239729881985113, 0.24045835575088859, 0.2574161284137517, 0.27382298931479454, 0.2907008900074288, 0.3069944283924997, 0.3241013636579737, 0.3403245873050764, 0.3573352665407583, 0.37372642615810037, 0.39071526017505676, 0.4069995825411752, 0.4240450777579099, 0.44035022146999836, 0.457266692770645, 0.4736523909959942, 0.49071017431560904, 0.5067978887818754, 0.5238979973364621, 0.5403355782618746, 0.5573411375517026, 0.573701577144675, 0.5906334085157141, 0.6067337521817535, 0.6238874500850216, 0.64034926565364, 0.6572998703923076, 0.6734773553907871, 0.6906088666291907, 0.706999002257362, 0.7239769134903327, 0.7403854811564088, 0.7573913817759603, 0.7736702427500859, 0.7906566874589771, 0.8070461403112859, 0.8239998170174658, 0.840338752605021, 0.8573740079300478, 0.8736832475988194, 0.8906096175778657]
16	animate/a65.jpg	animate	inanimate	left	1.3	[0.0, 0.0, 0.0, 0.0, 0.0, 0.0, 0.0, 0.0, 0.0, 0.0, 0.0, 0.0, 0.0, 0.0, 0.0, 0.0, 0.0, 0.0, 0.0, 0.0, 3.0, 6.0, 10.0, 18.0, 26.0, 39.0, 55.0, 66.0, 75.0, 89.0, 113.0, 154.0, 214.0, 286.0, 360.0, 470.0, 534.0, 584.0, 621.0, 650.0, 665.0, 674.0, 679.0, 679.0, 679.0, 681.0, 684.0, 692.0, 696.0, 696.0, 696.0, 696.0, 696.0, 691.0, 651.0, 562.0, 437.0, 293.0, 120.0, -128.0, -295.0, -420.0, -520.0, -572.0, -604.0, -619.0, -628.0, -632.0, -635.0, -641.0, -651.0, -671.0, -687.0, -699.0, -705.0, -705.0, -705.0, -705.0]	[-490.0, -490.0, -490.0, -490.0, -490.0, -490.0, -490.0, -490.0, -490.0, -490.0, -487.0, -484.0, -482.0, -481.0, -479.0, -475.0, -471.0, -463.0, -453.0, -440.0, -423.0, -403.0, -383.0, -340.0, -295.0, -246.0, -194.0, -146.0, -111.0, -74.0, -32.0, 19.0, 75.0, 132.0, 187.0, 256.0, 295.0, 323.0, 344.0, 361.0, 373.0, 380.0, 384.0, 385.0, 385.0, 385.0, 388.0, 393.0, 395.0, 396.0, 396.0, 396.0, 396.0, 396.0, 397.0, 397.0, 397.0, 392.0, 390.0, 387.0, 387.0, 387.0, 387.0, 387.0, 385.0, 384.0, 382.0, 382.0, 382.0, 382.0, 382.0, 382.0, 382.0, 382.0, 382.0, 382.0, 382.0, 382.0]	[0.01387730916030705, 0.01924033579416573, 0.026087137637659907, 0.04297049960587174, 0.05992451764177531, 0.07625730929430574, 0.09317139128688723, 0.10960487613920122, 0.12651383818592876, 0.14295756304636598, 0.15994742105249316, 0.1762675833888352, 0.19335676927585155, 0.20971686753910035, 0.2266367522533983, 0.24291356524918228, 0.25995325786061585, 0.27626386284828186, 0.29314278753008693, 0.30954828311223537, 0.3265552077209577, 0.3429163300897926, 0.3600140493363142, 0.3762734542833641, 0.39324385626241565, 0.4095756239257753, 0.4264617166481912, 0.4426682150224224, 0.45980416354723275, 0.47605332860257477, 0.4932193143758923, 0.5095906767528504, 0.5265388920670375, 0.5429689636221156, 0.5599810082931072, 0.5762820559320971, 0.5933732897974551, 0.6096456655068323, 0.6265635021263734, 0.6428003791952506, 0.659934621071443, 0.6762592206941918, 0.6932750199921429, 0.7096252195769921, 0.7265850402181968, 0.7426922107115388, 0.7598401058930904, 0.7762616442050785, 0.79326140077319, 0.8094033872475848, 0.8265045197913423, 0.8427058981033042, 0.859799180063419, 0.8762534862617031, 0.8932774775894359, 0.9096065146150067, 0.9266632738290355, 0.9429206307977438, 0.9599115127930418, 0.9762497657211497, 0.9932307490380481, 1.0095980153419077, 1.0266551160020754, 1.0429196410113946, 1.0598716109525412, 1.0760436346754432, 1.0932584311813116, 1.1096270628040656, 1.1265046221669763, 1.14291865110863, 1.159894855809398, 1.1762983032967895, 1.1932970359921455, 1.2096288036555052, 1.2266886348370463, 1.242892061243765, 1.259862121893093, 1.2762939002132043]
17	inanimate/n42.jpg	inanimate	animate	left	1.499	[0.0, 0.0, 0.0, 0.0, 0.0, 0.0, -2.0, -9.0, -17.0, -24.0, -24.0, -24.0, -24.0, -26.0, -29.0, -33.0, -41.0, -47.0, -56.0, -66.0, -77.0, -90.0, -105.0, -122.0, -143.0, -166.0, -227.0, -278.0, -321.0, -358.0, -379.0, -388.0, -392.0, -392.0, -378.0, -324.0, -286.0, -210.0, -81.0, -3.0, 78.0, 152.0, 234.0, 305.0, 373.0, 422.0, 458.0, 480.0, 494.0, 508.0, 517.0, 520.0, 523.0, 524.0, 526.0, 528.0, 530.0, 531.0, 531.0, 531.0, 518.0, 486.0, 362.0, 241.0, 101.0, -65.0, -231.0, -402.0, -550.0, -680.0, -786.0, -851.0, -882.0, -893.0, -894.0, -894.0, -894.0, -894.0, -894.0, -894.0, -894.0, -894.0, -894.0, -893.0, -891.0, -886.0, -877.0, -874.0, -873.0, -873.0]	[-490.0, -490.0, -490.0, -490.0, -490.0, -490.0, -490.0, -490.0, -490.0, -490.0, -490.0, -490.0, -490.0, -490.0, -489.0, -484.0, -470.0, -460.0, -446.0, -433.0, -418.0, -398.0, -382.0, -365.0, -346.0, -326.0, -260.0, -225.0, -201.0, -179.0, -167.0, -159.0, -155.0, -149.0, -137.0, -98.0, -71.0, -20.0, 86.0, 135.0, 173.0, 198.0, 224.0, 246.0, 267.0, 279.0, 297.0, 305.0, 314.0, 323.0, 331.0, 335.0, 338.0, 340.0, 343.0, 346.0, 349.0, 350.0, 350.0, 351.0, 353.0, 353.0, 353.0, 346.0, 327.0, 312.0, 303.0, 297.0, 297.0, 297.0, 297.0, 297.0, 298.0, 300.0, 300.0, 300.0, 301.0, 303.0, 306.0, 308.0, 312.0, 317.0, 326.0, 338.0, 351.0, 367.0, 396.0, 408.0, 413.0, 414.0]	[0.013545874739065766, 0.020399503177031875, 0.025271692662499845, 0.04234005731996149, 0.05861891829408705, 0.07585044007282704, 0.0920832211850211, 0.10912188980728388, 0.12520619085989892, 0.14238378207664937, 0.15880702703725547, 0.17577333294320852, 0.19190098333638161, 0.20899119332898408, 0.22522056102752686, 0.2423472935333848, 0.2588179837912321, 0.27583787904586643, 0.29208636144176126, 0.30910762201528996, 0.32549161359202117, 0.34246884228195995, 0.3586145833833143, 0.375663491897285, 0.3920962942065671, 0.4091568081639707, 0.42524315719492733, 0.44242518581449986, 0.45882419601548463, 0.4757498833350837, 0.491829747101292, 0.5090022183721885, 0.5254217085894197, 0.5424419451737776, 0.5602120908442885, 0.575709298835136, 0.5918587945634499, 0.6089909884613007, 0.6254490494029596, 0.6424580219900236, 0.658839282928966, 0.6757632635999471, 0.6921062952606007, 0.7090558758936822, 0.7254671741975471, 0.7423764775739983, 0.7588277118047699, 0.775751692475751, 0.7922172626713291, 0.809022800764069, 0.8254678909434006, 0.8425266982521862, 0.8587775699561462, 0.8756906279595569, 0.8919967955444008, 0.9090556028531864, 0.925426282454282, 0.9423267111415043, 0.9585837267804891, 0.9757029500324279, 0.9922053843038157, 1.0092020689044148, 1.0252218580571935, 1.0423782865982503, 1.058794022188522, 1.0757453094702214, 1.0920798077713698, 1.1090816124342382, 1.1253133694408461, 1.14237866201438, 1.158795080264099, 1.1757316903676838, 1.1921795111848041, 1.2090833532856777, 1.2252383102895692, 1.242936434573494, 1.2587927251588553, 1.27580886578653, 1.291974745457992, 1.3090178513666615, 1.3254550909623504, 1.3424763516522944, 1.3588064125506207, 1.3757880785269663, 1.3918457556283101, 1.4090045735938475, 1.425438399775885, 1.4425200764089823, 1.4588026920100674, 1.4757092647487298]
18	inanimate/n39.jpg	animate	inanimate	right	1.173	[0.0, 0.0, 0.0, 0.0, 0.0, 0.0, 0.0, 0.0, 0.0, 0.0, 0.0, 1.0, 1.0, 1.0, 1.0, -1.0, -9.0, -20.0, -47.0, -76.0, -104.0, -130.0, -148.0, -163.0, -171.0, -178.0, -181.0, -185.0, -187.0, -188.0, -192.0, -195.0, -199.0, -201.0, -205.0, -208.0, -209.0, -209.0, -209.0, -209.0, -209.0, -209.0, -213.0, -221.0, -236.0, -266.0, -302.0, -327.0, -341.0, -343.0, -343.0, -339.0, -319.0, -286.0, -232.0, -121.0, -31.0, 72.0, 175.0, 293.0, 410.0, 528.0, 635.0, 719.0, 792.0, 844.0, 875.0, 878.0, 878.0, 878.0, 878.0]	[-490.0, -491.0, -491.0, -491.0, -491.0, -491.0, -491.0, -491.0, -491.0, -491.0, -491.0, -491.0, -490.0, -485.0, -475.0, -464.0, -444.0, -419.0, -366.0, -322.0, -281.0, -245.0, -219.0, -196.0, -181.0, -169.0, -160.0, -150.0, -141.0, -127.0, -109.0, -80.0, -61.0, -40.0, -23.0, -15.0, -13.0, -13.0, -13.0, -13.0, -12.0, -3.0, 19.0, 34.0, 55.0, 81.0, 105.0, 121.0, 136.0, 147.0, 160.0, 174.0, 194.0, 216.0, 242.0, 286.0, 314.0, 344.0, 374.0, 400.0, 425.0, 449.0, 471.0, 484.0, 507.0, 523.0, 534.0, 535.0, 535.0, 535.0, 535.0]	[0.007770176278427243, 0.013510375982150435, 0.018346042837947607, 0.030633353861048818, 0.047708203783258796, 0.06390377948991954, 0.0809438134310767, 0.0973428237484768, 0.11443200963549316, 0.1307033613556996, 0.14775261119939387, 0.16402908286545426, 0.18099573021754622, 0.19735890056472272, 0.21431906253565103, 0.23069929948542267, 0.247669018805027, 0.26417042897082865, 0.28093637234997004, 0.29711590544320643, 0.3143648352706805, 0.3307699895231053, 0.34774141549132764, 0.3640131085412577, 0.3810077451635152, 0.397347022080794, 0.41441368008963764, 0.4304826211882755, 0.44773223367519677, 0.46380049211438745, 0.4809067447204143, 0.4973613922484219, 0.5143734369194135, 0.5307727884501219, 0.5477595744887367, 0.5639449101872742, 0.5809586613904685, 0.5973948769969866, 0.6143710816977546, 0.6307356172474101, 0.6477234272751957, 0.6641299468465149, 0.6809955595526844, 0.6973385912133381, 0.7143291317624971, 0.7309384032851085, 0.7476306187454611, 0.7640378210926428, 0.781055327039212, 0.7973550093593076, 0.8143366753356531, 0.8306356748798862, 0.8476620555156842, 0.8637637646170333, 0.8808870838256553, 0.897263907478191, 0.9144664159975946, 0.9308063756907359, 0.9477457163156942, 0.9640563213033602, 0.9809789366554469, 0.9972806669538841, 1.014339132932946, 1.03070162050426, 1.0476720224833116, 1.0640000354032964, 1.0809301601257175, 1.0973964129807428, 1.114353161654435, 1.130700971931219, 1.1477509045507759]
19	inanimate/n78.jpg	inanimate	animate	left	1.534	[0.0, 0.0, 0.0, 0.0, 0.0, -2.0, -6.0, -13.0, -25.0, -29.0, -31.0, -31.0, -33.0, -41.0, -49.0, -65.0, -86.0, -123.0, -173.0, -220.0, -278.0, -327.0, -374.0, -414.0, -446.0, -468.0, -470.0, -472.0, -472.0, -454.0, -433.0, -368.0, -266.0, -152.0, -15.0, 123.0, 261.0, 378.0, 527.0, 592.0, 619.0, 629.0, 629.0, 629.0, 629.0, 629.0, 629.0, 616.0, 587.0, 538.0, 474.0, 378.0, 319.0, 273.0, 237.0, 218.0, 212.0, 212.0, 212.0, 212.0, 211.0, 197.0, 171.0, 109.0, 64.0, 13.0, -39.0, -81.0, -117.0, -150.0, -178.0, -202.0, -230.0, -262.0, -338.0, -411.0, -492.0, -568.0, -642.0, -689.0, -720.0, -739.0, -749.0, -753.0, -756.0, -767.0, -771.0, -789.0, -796.0, -798.0, -799.0, -799.0]	[-490.0, -490.0, -490.0, -490.0, -490.0, -489.0, -483.0, -478.0, -472.0, -469.0, -464.0, -450.0, -435.0, -416.0, -393.0, -353.0, -302.0, -241.0, -179.0, -134.0, -92.0, -61.0, -36.0, -12.0, 6.0, 27.0, 32.0, 52.0, 63.0, 91.0, 113.0, 154.0, 200.0, 235.0, 268.0, 289.0, 310.0, 326.0, 328.0, 328.0, 328.0, 328.0, 328.0, 328.0, 328.0, 328.0, 328.0, 328.0, 328.0, 328.0, 318.0, 306.0, 301.0, 301.0, 301.0, 301.0, 301.0, 301.0, 301.0, 301.0, 301.0, 301.0, 300.0, 295.0, 292.0, 287.0, 286.0, 284.0, 284.0, 284.0, 284.0, 284.0, 284.0, 284.0, 284.0, 284.0, 292.0, 305.0, 315.0, 323.0, 329.0, 335.0, 340.0, 344.0, 350.0, 362.0, 365.0, 378.0, 387.0, 389.0, 391.0, 391.0]	[0.0036175171844661236, 0.010467732325196266, 0.022324963589198887, 0.038752304506488144, 0.055929213063791394, 0.07229204196482897, 0.08923274790868163, 0.10556349158287048, 0.12253764818888158, 0.13865744799841195, 0.15581421786919236, 0.17229583079461008, 0.18922288343310356, 0.20531230454798788, 0.22248204506468028, 0.23867284215521067, 0.2558473612880334, 0.2723095181863755, 0.28924066689796746, 0.30557823716662824, 0.32255102845374495, 0.33868004428222775, 0.35589791275560856, 0.37225050176493824, 0.38923489837907255, 0.40563186060171574, 0.4225766626186669, 0.43895621690899134, 0.4559232055908069, 0.47203105862718076, 0.48915335384663194, 0.5055646521504968, 0.5224589367862791, 0.5389129017712548, 0.5559392822906375, 0.5722485219594091, 0.5893066466087475, 0.6054445370100439, 0.6224866189295426, 0.6389433145523071, 0.6559007458854467, 0.672230806783773, 0.6892281740438193, 0.7056620003422722, 0.7225781303131953, 0.7388972686603665, 0.7558912226231769, 0.7722253795946017, 0.7892370829358697, 0.805744978482835, 0.8226242444943637, 0.8389010574901477, 0.8558857954340056, 0.8723022136837244, 0.889302994357422, 0.9055586446775123, 0.9226526092970744, 0.9389492195332423, 0.955918597523123, 0.9721250958973542, 0.9891497698845342, 1.0056231907801703, 1.0225539981620386, 1.0389171683927998, 1.0560790583258495, 1.0723138872999698, 1.0892040759790689, 1.105574414250441, 1.1225072696106508, 1.138930514571257, 1.155969524406828, 1.1719968229299411, 1.1891979661304504, 1.2056208697613329, 1.2225189090240747, 1.23894112999551, 1.2558818359393626, 1.272315320908092, 1.28930620290339, 1.3056676664855331, 1.3225820898078382, 1.3389486734522507, 1.3558996194042265, 1.3722037391271442, 1.3903845084132627, 1.4056468793423846, 1.4225718840025365, 1.438899214263074, 1.4559116002637893, 1.472332455799915, 1.489258143119514, 1.50558956945315]
20	animate/a20.jpg	animate	inanimate	left	1.053	[0.0, 0.0, 0.0, 0.0, 0.0, 0.0, 0.0, 0.0, -2.0, -4.0, -4.0, -6.0, -8.0, -19.0, -39.0, -61.0, -80.0, -95.0, -113.0, -128.0, -141.0, -150.0, -157.0, -158.0, -158.0, -154.0, -127.0, -80.0, -10.0, 80.0, 185.0, 295.0, 401.0, 510.0, 605.0, 690.0, 753.0, 794.0, 815.0, 816.0, 816.0, 810.0, 792.0, 763.0, 703.0, 596.0, 470.0, 318.0, 166.0, -4.0, -255.0, -393.0, -512.0, -594.0, -643.0, -663.0, -667.0, -667.0, -667.0, -667.0, -667.0, -667.0, -667.0]	[-490.0, -490.0, -490.0, -490.0, -490.0, -490.0, -489.0, -486.0, -482.0, -479.0, -477.0, -471.0, -465.0, -451.0, -433.0, -414.0, -395.0, -375.0, -353.0, -333.0, -313.0, -294.0, -274.0, -254.0, -234.0, -214.0, -169.0, -117.0, -55.0, 14.0, 75.0, 146.0, 201.0, 257.0, 300.0, 334.0, 364.0, 384.0, 399.0, 400.0, 401.0, 404.0, 408.0, 409.0, 409.0, 402.0, 394.0, 383.0, 379.0, 375.0, 375.0, 375.0, 375.0, 375.0, 375.0, 375.0, 375.0, 375.0, 375.0, 375.0, 375.0, 375.0, 375.0]	[0.004869390511885285, 0.01083213952369988, 0.024486831156536937, 0.04157226241659373, 0.057908808696083724, 0.07497478404548019, 0.09138676489237696, 0.10837286827154458, 0.12466572388075292, 0.14170063787605613, 0.15789757890161127, 0.1750137300696224, 0.19117585523054004, 0.20829098240938038, 0.22471354471053928, 0.24175426131114364, 0.2581041195662692, 0.275142788188532, 0.2913776171626523, 0.3084196991985664, 0.3244568962836638, 0.34160991152748466, 0.3580495404312387, 0.37509196368046105, 0.3914687873329967, 0.4084429439390078, 0.4247613996267319, 0.44167240953538567, 0.45793522789608687, 0.4749759444966912, 0.4912322775926441, 0.5083750527119264, 0.5247802070807666, 0.5417642623651773, 0.5580270807258785, 0.5751111465506256, 0.5914644182194024, 0.6083740629255772, 0.6247747798915952, 0.6417011498706415, 0.6581366827012971, 0.6750592980533838, 0.6914347563870251, 0.7084061823552474, 0.7247703766915947, 0.7417346346192062, 0.7580841515446082, 0.775022468296811, 0.7913822252303362, 0.8083652565255761, 0.8247195521835238, 0.8418128340272233, 0.8581770283635706, 0.8751150036696345, 0.8914143446600065, 0.9084103466011584, 0.9247226582374424, 0.9416923775570467, 0.9580992384580895, 0.9749996671453118, 0.9914485120680183, 1.008468407439068, 1.024715524399653]
21	animate/a17.jpg	animate	inanimate	left	1.113	[0.0, 0.0, 0.0, 0.0, 0.0, 0.0, 0.0, -1.0, -1.0, -2.0, -3.0, -4.0, -5.0, -5.0, -7.0, -12.0, -21.0, -35.0, -53.0, -75.0, -100.0, -137.0, -156.0, -169.0, -177.0, -179.0, -176.0, -156.0, -113.0, -29.0, 87.0, 226.0, 379.0, 527.0, 705.0, 771.0, 795.0, 799.0, 799.0, 799.0, 796.0, 788.0, 774.0, 746.0, 698.0, 622.0, 472.0, 353.0, 219.0, 72.0, -91.0, -256.0, -399.0, -537.0, -643.0, -719.0, -742.0, -755.0, -765.0, -767.0, -768.0, -771.0, -774.0, -775.0, -776.0, -776.0, -776.0]	[-490.0, -500.0, -503.0, -505.0, -506.0, -507.0, -507.0, -508.0, -508.0, -508.0, -508.0, -507.0, -506.0, -504.0, -497.0, -486.0, -468.0, -448.0, -426.0, -401.0, -363.0, -304.0, -278.0, -255.0, -238.0, -221.0, -209.0, -191.0, -162.0, -124.0, -74.0, -16.0, 41.0, 104.0, 174.0, 210.0, 225.0, 236.0, 245.0, 258.0, 267.0, 275.0, 280.0, 284.0, 285.0, 285.0, 291.0, 295.0, 301.0, 312.0, 325.0, 344.0, 365.0, 382.0, 400.0, 423.0, 435.0, 441.0, 448.0, 450.0, 452.0, 453.0, 455.0, 456.0, 456.0, 456.0, 456.0]	[0.0008754512527957559, 0.006250424426980317, 0.016707165748812258, 0.033694293117150664, 0.05012265802361071, 0.0671333372592926, 0.08318760106340051, 0.1004082002909854, 0.11673689587041736, 0.1336209406144917, 0.1500813908642158, 0.16708387807011604, 0.1834153044037521, 0.20036010642070323, 0.21671849803533405, 0.23381280398461968, 0.2500343209831044, 0.26706240826752037, 0.2834173865849152, 0.30036150582600385, 0.31672604149207473, 0.33364968083333224, 0.3500510804587975, 0.36696994106750935, 0.38346998603083193, 0.4003751933341846, 0.41671344626229256, 0.4336968188872561, 0.44980672001838684, 0.46704950591083616, 0.4834140414604917, 0.5003823954612017, 0.5164991231868044, 0.5336207357468084, 0.5498388394480571, 0.5670147240161896, 0.5832239530282095, 0.6003356669098139, 0.6167319465894252, 0.6336845991900191, 0.6498368255561218, 0.6669734568567947, 0.683243784471415, 0.7002961063990369, 0.716793761937879, 0.7337075027171522, 0.7500665769912302, 0.7669922643108293, 0.7835107411956415, 0.8004422311205417, 0.8167132415110245, 0.8337297234684229, 0.8500908457208425, 0.8670462290756404, 0.8833923327038065, 0.9004272465826944, 0.9164992597652599, 0.9335826430469751, 0.9498475093860179, 0.9669964285567403, 0.9834749693982303, 1.0004337660502642, 1.0167447123676538, 1.0336796157062054, 1.050078967353329, 1.0671091026160866, 1.0834094675956294]
22	inanimate/n70.jpg	inanimate	animate	left	1.129	[0.0, 1.0, 2.0, 2.0, 2.0, 2.0, 2.0, 2.0, 0.0, -7.0, -19.0, -29.0, -34.0, -34.0, -37.0, -46.0, -62.0, -94.0, -129.0, -166.0, -182.0, -216.0, -242.0, -266.0, -283.0, -292.0, -294.0, -292.0, -275.0, -235.0, -164.0, -64.0, 54.0, 175.0, 294.0, 411.0, 514.0, 600.0, 659.0, 700.0, 724.0, 725.0, 725.0, 725.0, 725.0, 725.0, 722.0, 703.0, 674.0, 610.0, 523.0, 399.0, 169.0, 1.0, -186.0, -350.0, -505.0, -627.0, -714.0, -749.0, -752.0, -752.0, -752.0, -752.0, -752.0, -752.0, -752.0, -752.0]	[-490.0, -498.0, -498.0, -498.0, -498.0, -498.0, -498.0, -498.0, -491.0, -476.0, -463.0, -450.0, -438.0, -421.0, -401.0, -362.0, -323.0, -269.0, -217.0, -172.0, -152.0, -106.0, -70.0, -34.0, -1.0, 23.0, 42.0, 67.0, 89.0, 121.0, 165.0, 211.0, 259.0, 311.0, 350.0, 390.0, 423.0, 456.0, 472.0, 484.0, 492.0, 492.0, 492.0, 492.0, 492.0, 492.0, 491.0, 480.0, 467.0, 441.0, 415.0, 384.0, 354.0, 348.0, 348.0, 348.0, 355.0, 373.0, 384.0, 389.0, 390.0, 390.0, 390.0, 390.0, 390.0, 390.0, 390.0, 390.0]	[0.004107193672098219, 0.009890401386655867, 0.023221509181894362, 0.04025505774188787, 0.056398068205453455, 0.07345824083313346, 0.08996954967733473, 0.1066883890889585, 0.12318331399001181, 0.14011480403132737, 0.15652473689988256, 0.17341697367373854, 0.18984738655854017, 0.20684372982941568, 0.223299742792733, 0.24006841680966318, 0.25655583234038204, 0.273488687700592, 0.28993719129357487, 0.30694036127533764, 0.3232451635412872, 0.34019849891774356, 0.3562886026920751, 0.37351056712213904, 0.3898693001829088, 0.4068175154970959, 0.42296052584424615, 0.4400493704015389, 0.4565743326675147, 0.4734515507007018, 0.4899526195367798, 0.506918242899701, 0.5231947145657614, 0.5402012978447601, 0.556533748167567, 0.5735239473870024, 0.5899700616719201, 0.6068534237565473, 0.6230616287793964, 0.640224201255478, 0.6565255902241915, 0.6735355869168416, 0.6898714505368844, 0.7067732445430011, 0.7229749643011019, 0.7400016861502081, 0.7565710217459127, 0.7734769117087126, 0.7898325726855546, 0.8068688519997522, 0.8232682035304606, 0.840302093536593, 0.8564894772134721, 0.8734957191627473, 0.8899169161450118, 0.9068398728268221, 0.9231020084116608, 0.9401137117529288, 0.9562652554595843, 0.9736343346303329, 0.9898203529883176, 1.006743309670128, 1.0231624585576355, 1.040089511196129, 1.0565305054187775, 1.0735244593815878, 1.0900982322636992, 1.1068853383185342]
23	inanimate/n8.jpg	animate	inanimate	right	1.005	[0.0, 2.0, 2.0, 2.0, 2.0, 2.0, 2.0, 3.0, 3.0, -2.0, -10.0, -17.0, -20.0, -31.0, -39.0, -60.0, -86.0, -117.0, -147.0, -189.0, -226.0, -257.0, -289.0, -309.0, -320.0, -329.0, -331.0, -328.0, -313.0, -269.0, -199.0, -108.0, -13.0, 89.0, 197.0, 299.0, 399.0, 501.0, 527.0, 534.0, 534.0, 534.0, 529.0, 517.0, 508.0, 506.0, 506.0, 506.0, 519.0, 545.0, 583.0, 634.0, 678.0, 705.0, 714.0, 714.0, 714.0, 714.0, 714.0, 714.0, 714.0]	[-490.0, -491.0, -491.0, -491.0, -491.0, -491.0, -491.0, -488.0, -480.0, -471.0, -458.0, -436.0, -427.0, -398.0, -374.0, -337.0, -300.0, -263.0, -224.0, -166.0, -114.0, -63.0, -7.0, 30.0, 55.0, 85.0, 100.0, 118.0, 141.0, 179.0, 227.0, 277.0, 324.0, 366.0, 394.0, 418.0, 433.0, 448.0, 451.0, 451.0, 451.0, 451.0, 450.0, 445.0, 440.0, 435.0, 432.0, 429.0, 428.0, 428.0, 428.0, 428.0, 428.0, 428.0, 427.0, 427.0, 427.0, 427.0, 427.0, 427.0, 427.0]	[0.01413023704662919, 0.019793295417912304, 0.02658855600748211, 0.04341969406232238, 0.060527994646690786, 0.07675497292075306, 0.09369499632157385, 0.11004656122531742, 0.12712789652869105, 0.14324462425429374, 0.16042255680076778, 0.17672428709920496, 0.19369571306742728, 0.21006059006322175, 0.22698388807475567, 0.24349724489729851, 0.26040825492236763, 0.2766983798937872, 0.29368960321880877, 0.31001864024437964, 0.32713513274211437, 0.343429695116356, 0.36044959037099034, 0.37646528345067054, 0.3937039733864367, 0.41008011426310986, 0.42704300698824227, 0.4435447584837675, 0.46052437648177147, 0.47682474146131426, 0.4936842101160437, 0.5100565964821726, 0.5270631797611713, 0.5431956087704748, 0.560245200060308, 0.5764984610723332, 0.5935975456377491, 0.6098497826606035, 0.6269693472422659, 0.64344447478652, 0.6603554848115891, 0.676736404420808, 0.6937621023971587, 0.7100638326955959, 0.7270181920612231, 0.7434544075513259, 0.7604149109683931, 0.7767511159181595, 0.7936590538593009, 0.8100625014631078, 0.8270421194611117, 0.8435452363919467, 0.8604876489844173, 0.8767491020262241, 0.8938003999646753, 0.9100611703470349, 0.92699027096387, 0.9431336227571592, 0.9604084938764572, 0.9764791416237131, 0.993579932837747]
24	animate/a21.jpg	inanimate	animate	right	1.217	[0.0, 0.0, 0.0, 0.0, 0.0, -1.0, -1.0, -2.0, -2.0, -2.0, -2.0, -2.0, -2.0, -2.0, -2.0, -2.0, -2.0, -1.0, 4.0, 11.0, 18.0, 21.0, 29.0, 56.0, 80.0, 121.0, 170.0, 224.0, 299.0, 407.0, 540.0, 667.0, 771.0, 848.0, 880.0, 898.0, 899.0, 899.0, 899.0, 899.0, 899.0, 899.0, 899.0, 899.0, 889.0, 847.0, 768.0, 608.0, 466.0, 324.0, 170.0, 45.0, -48.0, -74.0, -75.0, -75.0, -71.0, -45.0, 23.0, 183.0, 310.0, 434.0, 542.0, 618.0, 670.0, 697.0, 711.0, 716.0, 716.0, 717.0, 718.0, 718.0, 718.0, 718.0]	[-490.0, -496.0, -496.0, -496.0, -496.0, -497.0, -497.0, -497.0, -497.0, -497.0, -497.0, -497.0, -497.0, -497.0, -497.0, -497.0, -495.0, -484.0, -463.0, -437.0, -408.0, -380.0, -353.0, -296.0, -256.0, -204.0, -149.0, -98.0, -37.0, 38.0, 129.0, 215.0, 277.0, 332.0, 360.0, 376.0, 378.0, 378.0, 378.0, 378.0, 378.0, 378.0, 378.0, 378.0, 383.0, 391.0, 403.0, 419.0, 429.0, 438.0, 440.0, 446.0, 449.0, 452.0, 452.0, 452.0, 454.0, 459.0, 466.0, 468.0, 468.0, 468.0, 468.0, 468.0, 468.0, 468.0, 468.0, 468.0, 468.0, 468.0, 469.0, 469.0, 469.0, 469.0]	[0.010624745395034552, 0.017593403230421245, 0.02333633357193321, 0.036416561575606465, 0.053393107489682734, 0.06950061931274831, 0.08660926122684032, 0.10312739678192884, 0.12019985727965832, 0.1364558490458876, 0.15332589903846383, 0.16955970402341336, 0.18664547661319375, 0.20311070559546351, 0.220134696806781, 0.23642516310792416, 0.2533696237951517, 0.26956758880987763, 0.2868161773076281, 0.30307421705219895, 0.3200528110610321, 0.33623336802702397, 0.3533624899573624, 0.36958468961529434, 0.3866489581996575, 0.40311486984137446, 0.42000437586102635, 0.4364081647945568, 0.45342259877361357, 0.4697311556665227, 0.48671179765369743, 0.5030363972764462, 0.5200610712636262, 0.5362528923433274, 0.5533987395465374, 0.5697458671638742, 0.5867596184834838, 0.6031101593980566, 0.6201815960230306, 0.6364812783431262, 0.6533110510790721, 0.6697411226341501, 0.6867507778806612, 0.70308152155485, 0.7200935662258416, 0.7364683417836204, 0.7534346478059888, 0.7697333061369136, 0.7868586733238772, 0.8028552518226206, 0.8199963204097003, 0.8364519919268787, 0.8534623299492523, 0.8697845402639359, 0.8868027288699523, 0.9031123098684475, 0.9200595010770485, 0.9362014875514433, 0.9534084333572537, 0.9697439556475729, 0.9867532696807757, 1.0031543279765174, 1.0202302018878981, 1.0363957402296364, 1.0533432728843763, 1.0695043739397079, 1.0867058584699407, 1.1031065754359588, 1.120028849458322, 1.1364585796836764, 1.153395872330293, 1.1695054321317002, 1.186665273969993, 1.2031086575007066]
25	animate/a45.jpg	inanimate	animate	right	1.035	[0.0, 0.0, 0.0, 0.0, 0.0, 0.0, 0.0, 0.0, 3.0, 3.0, 3.0, 3.0, 3.0, 3.0, -1.0, -15.0, -29.0, -66.0, -108.0, -170.0, -213.0, -248.0, -269.0, -297.0, -319.0, -345.0, -364.0, -377.0, -389.0, -397.0, -400.0, -402.0, -402.0, -402.0, -402.0, -402.0, -395.0, -365.0, -299.0, -202.0, -95.0, 26.0, 146.0, 255.0, 378.0, 451.0, 487.0, 508.0, 520.0, 535.0, 554.0, 575.0, 593.0, 609.0, 624.0, 634.0, 645.0, 651.0, 657.0, 663.0, 667.0, 668.0, 668.0]	[-490.0, -491.0, -491.0, -491.0, -491.0, -491.0, -491.0, -491.0, -488.0, -484.0, -482.0, -475.0, -469.0, -458.0, -442.0, -421.0, -405.0, -376.0, -345.0, -308.0, -290.0, -273.0, -265.0, -254.0, -247.0, -239.0, -234.0, -229.0, -221.0, -211.0, -206.0, -202.0, -201.0, -199.0, -199.0, -198.0, -190.0, -173.0, -137.0, -93.0, -46.0, -1.0, 40.0, 81.0, 136.0, 169.0, 187.0, 199.0, 208.0, 218.0, 233.0, 250.0, 265.0, 281.0, 296.0, 309.0, 324.0, 333.0, 344.0, 352.0, 359.0, 360.0, 360.0]	[0.010151998954825103, 0.015185639029368758, 0.0209838654845953, 0.03559872729238123, 0.05197282019071281, 0.06898281688336283, 0.08531185379251838, 0.10224266117438674, 0.11862597009167075, 0.13551957218442112, 0.15169091324787587, 0.16885997110512108, 0.1852408907143399, 0.2022283592959866, 0.21837273507844657, 0.2355636382708326, 0.2516793420072645, 0.2689801544183865, 0.2850968822604045, 0.30217821744736284, 0.31858883309178054, 0.3355711817275733, 0.352123791933991, 0.3690641565481201, 0.385250857565552, 0.4023362888256088, 0.41873086185660213, 0.4355220638681203, 0.45195350074209273, 0.4689433587482199, 0.48527546774130315, 0.5022458697203547, 0.5186141600133851, 0.5355995806166902, 0.5519296416314319, 0.568926326232031, 0.5852912032278255, 0.6021919732447714, 0.6183609248837456, 0.6357095240382478, 0.6519296757178381, 0.6689625417347997, 0.68503455480095, 0.7021575326798484, 0.7185763402376324, 0.7354887155815959, 0.7520225525368005, 0.7689502878347412, 0.7851987701142207, 0.8021558601176366, 0.8186033397214487, 0.8356713630491868, 0.8519297440070659, 0.8689977672183886, 0.8853087135357782, 0.902239179587923, 0.9183538593351841, 0.9354147146223113, 0.9519379701232538, 0.9689250974915922, 0.9852616437710822, 1.0022166856797412, 1.0183969014324248]
26	animate/a4.jpg	inanimate	animate	right	0.929	[0.0, 0.0, 0.0, 0.0, 0.0, 0.0, 0.0, 0.0, 0.0, 0.0, -1.0, -1.0, -2.0, -3.0, -3.0, -3.0, -4.0, -8.0, -19.0, -29.0, -49.0, -75.0, -100.0, -121.0, -136.0, -148.0, -153.0, -154.0, -154.0, -151.0, -146.0, -144.0, -143.0, -152.0, -171.0, -197.0, -216.0, -231.0, -238.0, -238.0, -234.0, -212.0, -168.0, -89.0, 86.0, 223.0, 365.0, 500.0, 619.0, 691.0, 712.0, 714.0, 714.0, 714.0, 714.0, 714.0]	[-490.0, -490.0, -490.0, -490.0, -490.0, -490.0, -490.0, -490.0, -490.0, -490.0, -490.0, -490.0, -490.0, -490.0, -489.0, -487.0, -486.0, -480.0, -456.0, -435.0, -407.0, -381.0, -359.0, -340.0, -326.0, -318.0, -312.0, -308.0, -304.0, -297.0, -284.0, -271.0, -239.0, -191.0, -131.0, -67.0, -23.0, 18.0, 52.0, 81.0, 111.0, 148.0, 189.0, 230.0, 289.0, 330.0, 357.0, 376.0, 394.0, 406.0, 414.0, 415.0, 415.0, 415.0, 415.0, 415.0]	[0.015779217472299933, 0.024020706536248326, 0.029524362413212657, 0.046774316229857504, 0.06323135318234563, 0.0801341711776331, 0.09659018414095044, 0.11358413810376078, 0.13002444966696203, 0.14688221167307347, 0.1632528912741691, 0.1802526479586959, 0.1965997755760327, 0.21354150550905615, 0.23000059043988585, 0.24688804848119617, 0.26323961338493973, 0.2802905699936673, 0.29642777773551643, 0.3135200357064605, 0.3298415633616969, 0.34687033330556005, 0.36328299692831933, 0.38019366550724953, 0.39659062784630805, 0.4134139152010903, 0.4298692455049604, 0.4469307833351195, 0.46322261507157236, 0.48019711300730705, 0.49635104613844305, 0.5134747066767886, 0.5299037542426959, 0.5468526522163302, 0.5633615717524663, 0.5803268537856638, 0.5966214160434902, 0.6135877220658585, 0.6298894523642957, 0.6468489316757768, 0.6632404326228425, 0.6802104932721704, 0.6966880101244897, 0.7135829775361344, 0.7314080777578056, 0.7468417978379875, 0.7632493413984776, 0.7801719567505643, 0.7965487804031, 0.8134918756550178, 0.8299055632669479, 0.8468913253163919, 0.8632876048795879, 0.8802351375343278, 0.8966341478517279, 0.9135236538713798]
27	inanimate/n35.jpg	animate	inanimate	right	1.078	[0.0, 0.0, 0.0, 0.0, 0.0, 0.0, 0.0, 0.0, -6.0, -16.0, -30.0, -40.0, -54.0, -70.0, -87.0, -103.0, -111.0, -111.0, -113.0, -113.0, -110.0, -91.0, -61.0, -29.0, 14.0, 71.0, 143.0, 219.0, 297.0, 366.0, 423.0, 468.0, 502.0, 541.0, 561.0, 575.0, 582.0, 585.0, 585.0, 587.0, 587.0, 587.0, 587.0, 589.0, 589.0, 589.0, 563.0, 521.0, 469.0, 439.0, 433.0, 433.0, 433.0, 433.0, 450.0, 485.0, 548.0, 626.0, 758.0, 832.0, 880.0, 895.0, 895.0, 895.0, 895.0]	[-490.0, -490.0, -490.0, -490.0, -490.0, -489.0, -482.0, -475.0, -469.0, -461.0, -435.0, -414.0, -389.0, -367.0, -343.0, -318.0, -294.0, -275.0, -250.0, -219.0, -182.0, -134.0, -74.0, -27.0, 26.0, 79.0, 138.0, 189.0, 237.0, 273.0, 298.0, 316.0, 329.0, 344.0, 352.0, 358.0, 362.0, 364.0, 364.0, 364.0, 364.0, 364.0, 365.0, 366.0, 366.0, 366.0, 368.0, 366.0, 358.0, 353.0, 353.0, 353.0, 353.0, 353.0, 355.0, 366.0, 383.0, 405.0, 436.0, 451.0, 461.0, 463.0, 463.0, 463.0, 463.0]	[0.013553725322708488, 0.019616484874859452, 0.02545532980002463, 0.04232572123873979, 0.058764326153323054, 0.07571697875391692, 0.09210199443623424, 0.1090669350232929, 0.12540723604615778, 0.14251417119521648, 0.15875412023160607, 0.17581292754039168, 0.19188835402019322, 0.20900962525047362, 0.22542297141626477, 0.24243808805476874, 0.25860533316154033, 0.2756590204080567, 0.2921242492739111, 0.3090158033883199, 0.32542914955411106, 0.34240774356294423, 0.35875521251000464, 0.3757727184565738, 0.3921051687793806, 0.4090953681152314, 0.425419285078533, 0.4424067536601797, 0.45875797735061496, 0.47578265133779496, 0.4920898429118097, 0.5090926715638489, 0.5254746151622385, 0.5423258919036016, 0.5585241982480511, 0.5756386427674443, 0.5921530236955732, 0.6090688123367727, 0.6255016146460548, 0.6424184272764251, 0.6587955922586843, 0.6757598501862958, 0.692103223176673, 0.709097518469207, 0.7254941394785419, 0.7424010534305125, 0.7588253223802894, 0.7758045990485698, 0.7921295400010422, 0.8091071099042892, 0.825523869600147, 0.8424188368953764, 0.8587424125289544, 0.8757885905215517, 0.8921319633955136, 0.9090538960881531, 0.9254839677596465, 0.9424891857197508, 0.9587608786532655, 0.9758046672213823, 0.9921439442550763, 1.009131412836723, 1.0253058259841055, 1.0423421051818877, 1.0588124541100115]
28	inanimate/n68.jpg	animate	inanimate	right	0.923	[0.0, 0.0, 0.0, 0.0, 0.0, 0.0, 0.0, 0.0, 0.0, 0.0, -1.0, -6.0, -9.0, -16.0, -26.0, -42.0, -64.0, -97.0, -132.0, -150.0, -152.0, -151.0, -137.0, -98.0, -36.0, 53.0, 143.0, 246.0, 353.0, 458.0, 537.0, 597.0, 623.0, 627.0, 627.0, 627.0, 627.0, 627.0, 627.0, 627.0, 627.0, 627.0, 627.0, 627.0, 627.0, 628.0, 636.0, 649.0, 670.0, 689.0, 713.0, 732.0, 737.0, 737.0, 737.0, 737.0]	[-490.0, -490.0, -490.0, -490.0, -490.0, -490.0, -490.0, -490.0, -490.0, -490.0, -490.0, -490.0, -490.0, -485.0, -478.0, -463.0, -438.0, -392.0, -335.0, -297.0, -258.0, -229.0, -199.0, -162.0, -112.0, -52.0, 16.0, 90.0, 170.0, 244.0, 300.0, 339.0, 356.0, 360.0, 361.0, 361.0, 361.0, 361.0, 361.0, 361.0, 361.0, 361.0, 361.0, 361.0, 361.0, 361.0, 370.0, 381.0, 393.0, 403.0, 417.0, 428.0, 431.0, 431.0, 431.0, 431.0]	[0.010304916184395552, 0.014799591270275414, 0.020338745787739754, 0.03592743107583374, 0.05213870818261057, 0.06923608609940857, 0.08560710703022778, 0.10260515694972128, 0.11894306866452098, 0.13598003052175045, 0.15235071012284607, 0.16937709075864404, 0.18561465048696846, 0.20263010845519602, 0.2188075934536755, 0.23591452871914953, 0.252281112363562, 0.26923615427222103, 0.2853590260492638, 0.30250623857136816, 0.31894006486982107, 0.33593060553539544, 0.35226476250682026, 0.3692710044560954, 0.3856962973950431, 0.4025571313686669, 0.41874963510781527, 0.4358657863922417, 0.4520845727529377, 0.4691993586020544, 0.48566936620045453, 0.5025858375011012, 0.5189356958726421, 0.5359170204028487, 0.5522784841014072, 0.5693540166830644, 0.5857373256003484, 0.6025800689822063, 0.618955185986124, 0.6358839452732354, 0.6522153716068715, 0.6691540295723826, 0.685609701089561, 0.7026036551687866, 0.7188504307996482, 0.7358553074300289, 0.7523109789472073, 0.7692998129641637, 0.7856650312896818, 0.8026330438442528, 0.8189532061805949, 0.8360024561407045, 0.8523202291689813, 0.8691680924966931, 0.8855380894383416, 0.9039752000244334]
29	inanimate/n47.jpg	inanimate	animate	left	2.397	[0.0, 0.0, 0.0, 0.0, 0.0, 0.0, 0.0, 0.0, -1.0, -7.0, -14.0, -16.0, -19.0, -25.0, -31.0, -40.0, -47.0, -53.0, -58.0, -58.0, -34.0, 0.0, 52.0, 118.0, 192.0, 278.0, 368.0, 460.0, 531.0, 574.0, 591.0, 592.0, 592.0, 592.0, 592.0, 592.0, 592.0, 592.0, 592.0, 592.0, 589.0, 586.0, 584.0, 584.0, 584.0, 584.0, 584.0, 598.0, 621.0, 644.0, 656.0, 656.0, 656.0, 656.0, 656.0, 651.0, 624.0, 510.0, 390.0, 247.0, 109.0, -32.0, -159.0, -272.0, -355.0, -408.0, -442.0, -468.0, -490.0, -517.0, -534.0, -545.0, -554.0, -562.0, -571.0, -575.0, -579.0, -587.0, -599.0, -617.0, -635.0, -651.0, -662.0, -666.0, -668.0, -670.0, -672.0, -673.0, -673.0, -674.0, -674.0, -674.0, -675.0, -676.0, -676.0, -678.0, -679.0, -679.0, -677.0, -671.0, -664.0, -656.0, -651.0, -651.0, -651.0, -651.0, -651.0, -651.0, -651.0, -651.0, -651.0, -651.0, -651.0, -651.0, -651.0, -651.0, -651.0, -651.0, -651.0, -651.0, -651.0, -651.0, -656.0, -669.0, -677.0, -679.0, -681.0, -682.0, -683.0, -683.0, -683.0, -683.0, -683.0, -684.0, -685.0, -686.0, -687.0, -687.0, -687.0, -687.0, -687.0, -687.0, -687.0, -687.0]	[-490.0, -490.0, -490.0, -490.0, -490.0, -490.0, -490.0, -490.0, -484.0, -477.0, -467.0, -461.0, -452.0, -440.0, -426.0, -404.0, -380.0, -332.0, -276.0, -216.0, -122.0, -53.0, 15.0, 91.0, 165.0, 241.0, 301.0, 363.0, 403.0, 429.0, 439.0, 439.0, 439.0, 439.0, 439.0, 439.0, 439.0, 439.0, 439.0, 439.0, 439.0, 439.0, 439.0, 439.0, 439.0, 439.0, 439.0, 439.0, 439.0, 440.0, 440.0, 440.0, 440.0, 440.0, 440.0, 436.0, 424.0, 403.0, 376.0, 355.0, 339.0, 318.0, 299.0, 287.0, 278.0, 275.0, 275.0, 275.0, 275.0, 280.0, 284.0, 285.0, 289.0, 291.0, 293.0, 294.0, 295.0, 297.0, 299.0, 305.0, 311.0, 319.0, 323.0, 325.0, 327.0, 328.0, 330.0, 332.0, 333.0, 334.0, 334.0, 334.0, 334.0, 337.0, 337.0, 339.0, 340.0, 343.0, 347.0, 356.0, 372.0, 383.0, 388.0, 388.0, 388.0, 388.0, 388.0, 389.0, 389.0, 389.0, 389.0, 389.0, 389.0, 389.0, 389.0, 389.0, 389.0, 389.0, 389.0, 389.0, 389.0, 389.0, 389.0, 387.0, 384.0, 383.0, 383.0, 382.0, 381.0, 381.0, 381.0, 381.0, 381.0, 381.0, 381.0, 381.0, 381.0, 381.0, 381.0, 381.0, 381.0, 381.0, 381.0, 381.0]	[0.011011817259714007, 0.017376998090185225, 0.02325338975060731, 0.03719650791026652, 0.05414233391638845, 0.07056455477140844, 0.0874837568262592, 0.10391451104078442, 0.12076135049574077, 0.13722248340491205, 0.15424169600009918, 0.1707338901469484, 0.187636025599204, 0.20400192646775395, 0.2208972352091223, 0.23723856010474265, 0.25421408214606345, 0.27060933772008866, 0.28752478503156453, 0.30390843539498746, 0.3208324160659686, 0.33721811429131776, 0.3542407403001562, 0.3706854891497642, 0.3876732991775498, 0.40378081088420004, 0.420786370174028, 0.4372399937128648, 0.45425852364860475, 0.47059848334174603, 0.48757025063969195, 0.5039443436544389, 0.5208601322956383, 0.5369567213347182, 0.5541510379407555, 0.5706002241931856, 0.5875248875236139, 0.6039498390164226, 0.6208437824388966, 0.6369782594265416, 0.6542469866108149, 0.6705586155876517, 0.6874689429532737, 0.7038918465841562, 0.7209554325090721, 0.7372517015319318, 0.7541695381514728, 0.7707282922929153, 0.7875986837316304, 0.8039116780273616, 0.8208063039928675, 0.8372800662182271, 0.8541514816461131, 0.8704637932823971, 0.8875813098857179, 0.9036376216681674, 0.9208384234225377, 0.9370698392158374, 0.9543088703649119, 0.9704450541175902, 0.9875356053235009, 1.0039373462786898, 1.020837774965912, 1.0369545026915148, 1.0541880725650117, 1.0705399787984788, 1.0876356500666589, 1.1038834498031065, 1.120849414379336, 1.13720336870756, 1.1541819627163932, 1.170467308955267, 1.1875626388937235, 1.2039626732002944, 1.2208231658441946, 1.2372102295048535, 1.2541881408542395, 1.2705434603849426, 1.2874766570748761, 1.3036370754707605, 1.3207614186685532, 1.3371843222994357, 1.3542328896000981, 1.3705571478931233, 1.3875599765451625, 1.4037023042328656, 1.4207679381361231, 1.4372205378022045, 1.454177969135344, 1.470569811295718, 1.4875470399856567, 1.5038928022840992, 1.5209342015441507, 1.5371748332399875, 1.5542728938162327, 1.5705650667659938, 1.5875706260558218, 1.6041150443488732, 1.6209284330252558, 1.6371820353670046, 1.654280778602697, 1.6705681729363278, 1.68746860162355, 1.7036218519788235, 1.7207246912876144, 1.7371820695698261, 1.7542634047567844, 1.7705651350552216, 1.7875594303477556, 1.803664211416617, 1.8207796800415963, 1.8370520557509735, 1.8542576362378895, 1.870571313193068, 1.8876325098099187, 1.9038123842328787, 1.9207561621442437, 1.9372019350994378, 1.9541870143730193, 1.9705549633363262, 1.9875342400046065, 2.003921644994989, 2.0208418709225953, 2.037084891926497, 2.0541587178595364, 2.0705662615364417, 2.0874636181397364, 2.1039165591355413, 2.1208248384064063, 2.1369873047806323, 2.1541683092946187, 2.1705587862525135, 2.1876094015315175, 2.20401762786787, 2.220827261917293, 2.2371853122022003, 2.254167660837993, 2.270647908328101, 2.2874599318020046, 2.303906728629954, 2.320817055995576, 2.3369290051050484, 2.3541622336488217, 2.370534961228259]
30	inanimate/n52.jpg	animate	inanimate	right	0.943	[0.0, 0.0, 0.0, 0.0, 0.0, 0.0, 0.0, 0.0, 0.0, 0.0, 0.0, 0.0, -5.0, -15.0, -35.0, -61.0, -90.0, -143.0, -199.0, -247.0, -266.0, -270.0, -262.0, -227.0, -108.0, 14.0, 156.0, 289.0, 405.0, 488.0, 519.0, 530.0, 530.0, 525.0, 512.0, 501.0, 488.0, 481.0, 472.0, 449.0, 421.0, 390.0, 376.0, 375.0, 378.0, 408.0, 478.0, 570.0, 684.0, 726.0, 755.0, 774.0, 784.0, 788.0, 788.0, 788.0]	[-490.0, -490.0, -490.0, -490.0, -490.0, -490.0, -490.0, -490.0, -490.0, -491.0, -491.0, -491.0, -484.0, -471.0, -455.0, -437.0, -419.0, -380.0, -344.0, -306.0, -281.0, -258.0, -234.0, -196.0, -101.0, -22.0, 70.0, 161.0, 244.0, 313.0, 352.0, 396.0, 423.0, 452.0, 469.0, 478.0, 481.0, 481.0, 480.0, 469.0, 455.0, 436.0, 425.0, 416.0, 413.0, 413.0, 413.0, 413.0, 421.0, 428.0, 432.0, 435.0, 437.0, 438.0, 438.0, 438.0]	[0.0073032325599342585, 0.014317287597805262, 0.029818250332027674, 0.046816983027383685, 0.06303645204752684, 0.08003347797784954, 0.09641610423568636, 0.11355102888774127, 0.1297247592592612, 0.14668253192212433, 0.1630969021935016, 0.18009665876161307, 0.19618198391981423, 0.21343671635258943, 0.2294954174431041, 0.2468245605705306, 0.26320513885002583, 0.2800768956076354, 0.29631445521954447, 0.31342753453645855, 0.3297681767726317, 0.3467450641328469, 0.36307478370144963, 0.38004791643470526, 0.3964144999627024, 0.4134272272931412, 0.42988187493756413, 0.44691405817866325, 0.4631683431798592, 0.4800083559239283, 0.4964220435358584, 0.5134057574905455, 0.529796575778164, 0.5467451324220747, 0.5628963347990066, 0.5799797180807218, 0.5961766591062769, 0.6134006716310978, 0.6297996818320826, 0.6468421050813049, 0.6630875155096874, 0.6801292560994625, 0.6961661118548363, 0.713365207077004, 0.7298137106699869, 0.746723014046438, 0.7628701203502715, 0.7799541862914339, 0.7964583272114396, 0.813519865158014, 0.82979497150518, 0.8469305787002668, 0.8628367038909346, 0.8798408978618681, 0.896460750605911, 0.913430811255239]
31	inanimate/n13.jpg	animate	inanimate	right	1.097	[0.0, 0.0, 0.0, 0.0, 0.0, 0.0, 1.0, 3.0, 4.0, 4.0, 4.0, 4.0, 4.0, 4.0, 4.0, 6.0, 6.0, 6.0, 6.0, 7.0, 7.0, 0.0, -10.0, -31.0, -57.0, -83.0, -92.0, -92.0, -66.0, 36.0, 147.0, 279.0, 407.0, 509.0, 595.0, 652.0, 673.0, 689.0, 696.0, 699.0, 701.0, 701.0, 703.0, 703.0, 703.0, 703.0, 694.0, 666.0, 640.0, 627.0, 627.0, 627.0, 627.0, 626.0, 633.0, 646.0, 662.0, 681.0, 700.0, 714.0, 719.0, 721.0, 721.0, 721.0, 721.0, 721.0]	[-490.0, -490.0, -490.0, -490.0, -490.0, -490.0, -490.0, -488.0, -487.0, -487.0, -487.0, -487.0, -487.0, -487.0, -487.0, -487.0, -487.0, -487.0, -487.0, -487.0, -481.0, -460.0, -434.0, -393.0, -340.0, -276.0, -229.0, -161.0, -87.0, 47.0, 143.0, 229.0, 298.0, 340.0, 366.0, 383.0, 387.0, 389.0, 391.0, 391.0, 391.0, 391.0, 392.0, 392.0, 392.0, 392.0, 394.0, 397.0, 397.0, 397.0, 397.0, 397.0, 397.0, 397.0, 399.0, 404.0, 409.0, 411.0, 415.0, 417.0, 417.0, 417.0, 417.0, 417.0, 417.0, 417.0]	[0.003505764645524323, 0.008503906079567969, 0.02234428294468671, 0.03893102647271007, 0.05586763645987958, 0.07233081734739244, 0.08918994478881359, 0.10554321634117514, 0.12247914366889745, 0.13887303392402828, 0.15586493990849704, 0.17219636624213308, 0.18923537619411945, 0.20553471718449146, 0.2225525644607842, 0.23885566007811576, 0.25585883005987853, 0.27221756300423294, 0.2891108237672597, 0.30534360476303846, 0.3225819532526657, 0.3389307875186205, 0.3558540855301544, 0.3722138424636796, 0.38912178052123636, 0.4055170360952616, 0.4225843767635524, 0.43859972851350904, 0.45587971969507635, 0.4721937379799783, 0.48917540395632386, 0.5055174116278067, 0.5225663201417774, 0.5389687437564135, 0.5559299298329279, 0.5722371214069426, 0.5891733900643885, 0.605551237706095, 0.6225103756878525, 0.6388810552889481, 0.6558599906275049, 0.6721897101961076, 0.6892471521859989, 0.7053000506712124, 0.7223609058419243, 0.7387141775107011, 0.7558258913923055, 0.7720139578450471, 0.7891946210293099, 0.8053645967738703, 0.8224367159418762, 0.8386234170757234, 0.8558030562708154, 0.8721781731583178, 0.8892386871157214, 0.905540076084435, 0.9225616781041026, 0.938918704399839, 0.9558389303274453, 0.9722000526962802, 0.9891793292481452, 1.0054281529737636, 1.02243166428525, 1.0389255651971325, 1.0558406711788848, 1.0721994041232392]
32	inanimate/n46.jpg	inanimate	animate	left	1.533	[0.0, -1.0, -1.0, -1.0, -1.0, -2.0, -2.0, -2.0, -2.0, -2.0, -3.0, -5.0, -7.0, -7.0, -8.0, -8.0, -8.0, -9.0, -11.0, -12.0, -13.0, -13.0, -11.0, 5.0, 33.0, 73.0, 118.0, 176.0, 232.0, 290.0, 350.0, 405.0, 445.0, 473.0, 505.0, 523.0, 540.0, 556.0, 572.0, 583.0, 597.0, 613.0, 625.0, 640.0, 650.0, 659.0, 668.0, 670.0, 672.0, 673.0, 674.0, 674.0, 675.0, 675.0, 675.0, 675.0, 675.0, 676.0, 677.0, 678.0, 678.0, 680.0, 681.0, 683.0, 683.0, 683.0, 683.0, 683.0, 683.0, 682.0, 639.0, 553.0, 436.0, 288.0, 120.0, -47.0, -206.0, -349.0, -466.0, -559.0, -608.0, -636.0, -657.0, -663.0, -672.0, -683.0, -701.0, -717.0, -732.0, -747.0, -758.0, -759.0]	[-490.0, -493.0, -493.0, -493.0, -493.0, -494.0, -494.0, -494.0, -494.0, -494.0, -494.0, -494.0, -494.0, -494.0, -494.0, -494.0, -494.0, -494.0, -493.0, -486.0, -474.0, -454.0, -412.0, -362.0, -300.0, -231.0, -153.0, -74.0, -5.0, 52.0, 104.0, 147.0, 181.0, 206.0, 235.0, 250.0, 267.0, 280.0, 294.0, 304.0, 315.0, 329.0, 339.0, 351.0, 359.0, 365.0, 373.0, 375.0, 378.0, 380.0, 381.0, 382.0, 383.0, 383.0, 383.0, 383.0, 383.0, 385.0, 385.0, 386.0, 387.0, 388.0, 389.0, 389.0, 389.0, 390.0, 390.0, 390.0, 390.0, 391.0, 393.0, 393.0, 393.0, 393.0, 393.0, 393.0, 393.0, 393.0, 395.0, 399.0, 399.0, 400.0, 402.0, 403.0, 404.0, 405.0, 408.0, 410.0, 410.0, 410.0, 410.0, 410.0]	[0.015062076621688902, 0.0219774863217026, 0.028174731181934476, 0.045421613031066954, 0.06160148745402694, 0.07869203865993768, 0.09508831822313368, 0.11200717894826084, 0.1284478318411857, 0.14550015376880765, 0.1615629509324208, 0.17874532076530159, 0.19509415503125638, 0.2120898156426847, 0.22845469263847917, 0.24551554792560637, 0.2617230702890083, 0.2787566188490018, 0.2950720025692135, 0.3120471831643954, 0.32847657206002623, 0.34539748076349497, 0.3617415364133194, 0.37883447704371065, 0.3948808901477605, 0.4121851158561185, 0.4285598915303126, 0.4454203841742128, 0.46177979989442974, 0.4787925271084532, 0.49507821479346603, 0.512154771364294, 0.528476640349254, 0.5454419223824516, 0.56179109797813, 0.5787543319165707, 0.5951710916124284, 0.6121619734913111, 0.6285657624248415, 0.6454310338012874, 0.6617802093969658, 0.6788291180273518, 0.6951148057123646, 0.7121193410130218, 0.7282367513980716, 0.7453610947122797, 0.7617829742375761, 0.7787171949166805, 0.7948752240044996, 0.8121487298049033, 0.828413596143946, 0.845512680709362, 0.8615396377863362, 0.8785370051627979, 0.8951100952690467, 0.9120279320050031, 0.928180841030553, 0.9452888002851978, 0.9617608558619395, 0.9787005378166214, 0.9950316228205338, 1.0121607447508723, 1.0285375682869926, 1.0454526743851602, 1.0617701059672982, 1.0786790680140257, 1.095119379577227, 1.112048821640201, 1.1284761625574902, 1.145447247195989, 1.161827142816037, 1.1788466967409477, 1.1951730030123144, 1.2122307863319293, 1.2284178286790848, 1.2453622893663123, 1.2616199876647443, 1.2788064535707235, 1.2950634692097083, 1.3121174977859482, 1.328435270814225, 1.3453804141608998, 1.3617166191106662, 1.378723202389665, 1.3951867246069014, 1.4122346092481166, 1.428393320995383, 1.4453132055932656, 1.4617777517996728, 1.4787611245410517, 1.4950891374610364, 1.5121319020399824]
33	inanimate/n53.jpg	inanimate	animate	left	1.299	[0.0, 0.0, 0.0, 0.0, 0.0, 3.0, 4.0, 4.0, 4.0, 4.0, 5.0, 5.0, 5.0, 5.0, 5.0, 5.0, 5.0, 5.0, 5.0, 3.0, -2.0, -8.0, -14.0, -14.0, -6.0, 7.0, 41.0, 93.0, 166.0, 244.0, 331.0, 390.0, 434.0, 460.0, 478.0, 499.0, 508.0, 513.0, 518.0, 518.0, 518.0, 518.0, 518.0, 518.0, 518.0, 518.0, 518.0, 518.0, 518.0, 522.0, 529.0, 529.0, 529.0, 517.0, 449.0, 314.0, 155.0, -10.0, -212.0, -318.0, -397.0, -447.0, -474.0, -484.0, -491.0, -493.0, -497.0, -505.0, -524.0, -562.0, -635.0, -695.0, -755.0, -812.0, -856.0, -885.0, -902.0, -907.0, -907.0]	[-490.0, -489.0, -489.0, -486.0, -483.0, -476.0, -473.0, -469.0, -468.0, -467.0, -465.0, -464.0, -463.0, -463.0, -462.0, -462.0, -461.0, -458.0, -454.0, -440.0, -424.0, -402.0, -352.0, -298.0, -233.0, -154.0, -65.0, 28.0, 121.0, 201.0, 269.0, 317.0, 346.0, 360.0, 366.0, 375.0, 377.0, 380.0, 383.0, 383.0, 383.0, 383.0, 383.0, 383.0, 383.0, 383.0, 383.0, 383.0, 383.0, 385.0, 388.0, 388.0, 388.0, 388.0, 388.0, 388.0, 388.0, 388.0, 388.0, 388.0, 388.0, 391.0, 391.0, 391.0, 391.0, 391.0, 391.0, 391.0, 391.0, 391.0, 391.0, 391.0, 391.0, 391.0, 391.0, 391.0, 391.0, 391.0, 391.0]	[0.006031766417436302, 0.010733289294876158, 0.01582802808843553, 0.026638731826096773, 0.04399688832927495, 0.060683642397634685, 0.07709221006371081, 0.09398376406170428, 0.11038960097357631, 0.12735624832566828, 0.14364739728625864, 0.16070586326532066, 0.17705640417989343, 0.19405445409938693, 0.21039168315473944, 0.2273692530579865, 0.24355015147011727, 0.26070794533006847, 0.2770813556853682, 0.2940377629129216, 0.3104357492411509, 0.32745496183633804, 0.3437017375836149, 0.3607489394489676, 0.37711176846642047, 0.3939961544238031, 0.4105040499707684, 0.42727340676356107, 0.44375706766732037, 0.4606298482976854, 0.4770899572176859, 0.494038172531873, 0.5101508043007925, 0.5272874354850501, 0.5434877899242565, 0.5606080371653661, 0.5771357299527153, 0.5940907719777897, 0.610466230311431, 0.627340717590414, 0.6437052532564849, 0.6607166152680293, 0.6770855882205069, 0.6940723741427064, 0.7102143605006859, 0.7271956851473078, 0.7436039114836603, 0.760630292003043, 0.7771351155824959, 0.7941157575696707, 0.8104478665627539, 0.8273892551660538, 0.8437148788943887, 0.860791094135493, 0.8770638110581785, 0.893989498494193, 0.9103874847060069, 0.927468478679657, 0.9437589449808002, 0.9606962376274168, 0.9770993439015001, 0.9941339164506644, 1.0101847669575363, 1.0272715635364875, 1.0437323551159352, 1.0606925170868635, 1.0770877726608887, 1.0940353053156286, 1.1102848117006943, 1.1273040242958814, 1.1437177119078115, 1.160689820535481, 1.1771328628528863, 1.1941278408048674, 1.2104988617356867, 1.2273006450850517, 1.2437143326969817, 1.2606830280274153, 1.2770980809582397]
34	inanimate/n38.jpg	inanimate	animate	left	1.075	[0.0, 0.0, 0.0, 0.0, -1.0, -1.0, -2.0, -5.0, -10.0, -11.0, -11.0, -11.0, -11.0, -18.0, -26.0, -32.0, -37.0, -38.0, -39.0, -39.0, -39.0, -41.0, -50.0, -66.0, -85.0, -119.0, -188.0, -274.0, -337.0, -374.0, -387.0, -400.0, -412.0, -416.0, -386.0, -247.0, -106.0, 39.0, 183.0, 310.0, 404.0, 440.0, 447.0, 446.0, 435.0, 398.0, 327.0, 162.0, 22.0, -123.0, -273.0, -411.0, -522.0, -616.0, -679.0, -715.0, -734.0, -742.0, -746.0, -755.0, -757.0, -757.0, -757.0, -757.0, -757.0]	[-490.0, -490.0, -490.0, -490.0, -489.0, -483.0, -476.0, -470.0, -458.0, -446.0, -431.0, -400.0, -375.0, -349.0, -321.0, -294.0, -270.0, -249.0, -229.0, -209.0, -190.0, -175.0, -160.0, -139.0, -125.0, -103.0, -53.0, 6.0, 51.0, 72.0, 85.0, 92.0, 102.0, 119.0, 161.0, 259.0, 330.0, 393.0, 438.0, 473.0, 485.0, 486.0, 486.0, 480.0, 470.0, 451.0, 430.0, 400.0, 379.0, 369.0, 358.0, 358.0, 358.0, 358.0, 358.0, 358.0, 358.0, 361.0, 364.0, 365.0, 366.0, 366.0, 366.0, 366.0, 366.0]	[0.011778110172599554, 0.017511141952127218, 0.02229117148090154, 0.03849186724983156, 0.05563976243138313, 0.07182578078936785, 0.08905696135479957, 0.10539862758014351, 0.12239053356461227, 0.13871786394156516, 0.15570260188542306, 0.17198931355960667, 0.18902559275738895, 0.205428016372025, 0.22245132504031062, 0.23854040482547134, 0.25562344666104764, 0.2720750223379582, 0.2891089122276753, 0.3054273679153994, 0.322381044505164, 0.33873124420642853, 0.35581053141504526, 0.37212181906215847, 0.38910962908994406, 0.40544344461522996, 0.4224247692618519, 0.438550713006407, 0.4557600482366979, 0.4720621198648587, 0.4890963512007147, 0.5054175375262275, 0.5223831607727334, 0.5387432590359822, 0.5557488183258101, 0.5720669326838106, 0.589102529338561, 0.6054216675693169, 0.6224193762755021, 0.6387200825847685, 0.6557669431203976, 0.6718246203381568, 0.6891575180925429, 0.7051530726021156, 0.7222879971377552, 0.738719092682004, 0.7557755106827244, 0.7720946489134803, 0.7890343309845775, 0.8054336825152859, 0.822372340480797, 0.8385088655631989, 0.8557441420853138, 0.8718482404947281, 0.8890193464467302, 0.9053879780694842, 0.9223699853755534, 0.9385054864687845, 0.9556711309123784, 0.9720745785161853, 0.9890043619088829, 1.0054515001829714, 1.0223563661566004, 1.038601435138844, 1.055788925033994]
35	animate/a5.jpg	animate	inanimate	left	1.358	[0.0, 0.0, 0.0, 0.0, -2.0, -3.0, -4.0, -8.0, -10.0, -11.0, -12.0, -12.0, -12.0, -12.0, -12.0, -12.0, -12.0, -12.0, -13.0, -14.0, -14.0, -14.0, -14.0, -12.0, 2.0, 24.0, 58.0, 147.0, 256.0, 371.0, 470.0, 526.0, 580.0, 618.0, 639.0, 651.0, 654.0, 655.0, 660.0, 669.0, 680.0, 689.0, 692.0, 692.0, 690.0, 684.0, 681.0, 676.0, 674.0, 674.0, 674.0, 674.0, 674.0, 674.0, 672.0, 663.0, 633.0, 580.0, 493.0, 393.0, 279.0, 98.0, -32.0, -156.0, -259.0, -359.0, -442.0, -520.0, -577.0, -631.0, -678.0, -733.0, -785.0, -849.0, -886.0, -909.0, -922.0, -924.0, -924.0, -924.0, -924.0]	[-490.0, -490.0, -490.0, -490.0, -489.0, -485.0, -481.0, -475.0, -473.0, -471.0, -470.0, -470.0, -470.0, -470.0, -470.0, -470.0, -470.0, -465.0, -456.0, -442.0, -420.0, -390.0, -352.0, -304.0, -250.0, -202.0, -175.0, -120.0, -60.0, -13.0, 42.0, 76.0, 111.0, 134.0, 147.0, 154.0, 155.0, 157.0, 161.0, 171.0, 183.0, 196.0, 206.0, 214.0, 223.0, 235.0, 241.0, 250.0, 259.0, 272.0, 286.0, 297.0, 305.0, 313.0, 323.0, 331.0, 338.0, 343.0, 345.0, 345.0, 345.0, 345.0, 347.0, 359.0, 374.0, 388.0, 404.0, 415.0, 430.0, 442.0, 451.0, 459.0, 467.0, 475.0, 479.0, 479.0, 479.0, 479.0, 479.0, 479.0, 479.0]	[0.004521025926806033, 0.01036601490341127, 0.024188983836211264, 0.04074910341296345, 0.05766898801084608, 0.07380483043380082, 0.09087114699650556, 0.10740225319750607, 0.12435900187119842, 0.14074538287241012, 0.15765844087582082, 0.17390521650668234, 0.19092306378297508, 0.20735450077336282, 0.2242556121200323, 0.2407024089479819, 0.2577861335594207, 0.27378919743932784, 0.29098180728033185, 0.3073357614921406, 0.3243877422064543, 0.3407205337425694, 0.3576834264677018, 0.37405001011211425, 0.39107297733426094, 0.4073805103544146, 0.424301418941468, 0.44070896261837333, 0.45765820192173123, 0.4738244229229167, 0.4910941740963608, 0.507355285808444, 0.5243673304794356, 0.540744154015556, 0.5577408386161551, 0.5738971610553563, 0.5909982935991138, 0.6071686106733978, 0.6243008045712486, 0.640482044313103, 0.6578514646971598, 0.6738425819203258, 0.690914701204747, 0.707376858103089, 0.7243216600036249, 0.7407442223047838, 0.7576763950055465, 0.7740955438930541, 0.7910116738639772, 0.8073594842571765, 0.8243698221631348, 0.8407326510641724, 0.8577218264108524, 0.8737798448419198, 0.8909628974506631, 0.9074107182677835, 0.9243439149577171, 0.9407190319616348, 0.9576508632162586, 0.9740782041335478, 0.9909909208072349, 1.0073568217922002, 1.024352141073905, 1.0407108740182593, 1.0576386094326153, 1.0738048304338008, 1.090906304307282, 1.1074920238461345, 1.1243248685495928, 1.1406655109021813, 1.157726707519032, 1.1740038618445396, 1.191100898431614, 1.2072363994084299, 1.2242607320658863, 1.24063926236704, 1.2576885123271495, 1.2740509998984635, 1.290926169953309, 1.3073896921705455, 1.3243652142118663]
36	animate/a6.jpg	inanimate	animate	right	1.009	[0.0, 5.0, 7.0, 9.0, 9.0, 9.0, 9.0, 9.0, 6.0, 5.0, 0.0, -1.0, -2.0, -2.0, -2.0, -3.0, -7.0, -12.0, -18.0, -27.0, -49.0, -70.0, -81.0, -81.0, -67.0, -25.0, 37.0, 123.0, 228.0, 388.0, 470.0, 511.0, 530.0, 542.0, 549.0, 552.0, 555.0, 561.0, 569.0, 583.0, 598.0, 603.0, 603.0, 600.0, 573.0, 519.0, 465.0, 440.0, 436.0, 436.0, 438.0, 450.0, 469.0, 536.0, 601.0, 676.0, 728.0, 753.0, 758.0, 758.0, 758.0]	[-490.0, -490.0, -491.0, -493.0, -493.0, -493.0, -496.0, -500.0, -503.0, -504.0, -509.0, -513.0, -514.0, -514.0, -514.0, -514.0, -512.0, -496.0, -478.0, -450.0, -399.0, -350.0, -289.0, -230.0, -165.0, -98.0, -30.0, 46.0, 109.0, 222.0, 268.0, 293.0, 304.0, 312.0, 316.0, 319.0, 321.0, 327.0, 335.0, 346.0, 359.0, 364.0, 367.0, 371.0, 378.0, 384.0, 391.0, 394.0, 395.0, 395.0, 397.0, 401.0, 404.0, 415.0, 424.0, 431.0, 437.0, 438.0, 438.0, 438.0, 438.0]	[0.011668200953863561, 0.017024742206558585, 0.0383881019661203, 0.0441784777212888, 0.05521104799117893, 0.07181793020572513, 0.08873713226057589, 0.1051091771805659, 0.12211610178928822, 0.13823624281212687, 0.15534863946959376, 0.17176232708152384, 0.1887395556550473, 0.20515290193725377, 0.2220741519704461, 0.23852982348762453, 0.2553363855695352, 0.2717698705382645, 0.2886918031144887, 0.305007528164424, 0.3221414287108928, 0.3381820392096415, 0.35550435562618077, 0.3717852645786479, 0.38875464256852865, 0.4051212262129411, 0.4220619321567938, 0.43828174262307584, 0.4554965391289443, 0.47177062137052417, 0.4887874446576461, 0.5051871376344934, 0.5221442276379094, 0.5381858621258289, 0.5553655013209209, 0.5717624635435641, 0.5887758735334501, 0.6051076411968097, 0.6219705231487751, 0.6384425787255168, 0.6554034233558923, 0.6717911696759984, 0.6887974116252735, 0.7051295206183568, 0.7221313252812251, 0.7385740261524916, 0.7554652388207614, 0.7715870866086334, 0.7886196111794561, 0.8050882534589618, 0.8220989326946437, 0.8383648230228573, 0.8554045156342909, 0.871507931384258, 0.8885643493849784, 0.9049435623455793, 0.92209043353796, 0.9381924839690328, 0.9552062352886423, 0.9718499813461676, 0.9887756686657667]
