trialIndex	stimulus	isAnimate	left_option	right_option	response	response_time	xTrajectory	yTrajectory	tTrajectory
0	老鼠	True	animate	inanimate	left	1.399	[0.0, 0.0, 0.0, 0.0, 0.0, 0.0, 0.0, 0.0, 0.0, -6.0, -18.0, -20.0, -20.0, -20.0, -20.0, -20.0, -20.0, -20.0, -20.0, -20.0, -20.0, -20.0, -13.0, -1.0, 0.0, 1.0, 2.0, 7.0, 11.0, 11.0, -1.0, -23.0, -47.0, -71.0, -95.0, -133.0, -144.0, -176.0, -192.0, -206.0, -217.0, -222.0, -228.0, -237.0, -253.0, -278.0, -326.0, -343.0, -390.0, -445.0, -475.0, -496.0, -508.0, -515.0, -518.0, -519.0, -520.0, -523.0, -527.0, -536.0, -540.0, -552.0, -558.0, -563.0, -568.0, -572.0, -575.0, -581.0, -593.0, -601.0, -623.0, -643.0, -663.0, -676.0, -693.0, -714.0, -732.0, -744.0, -750.0, -755.0, -758.0, -758.0, -758.0, -758.0]	[-490.0, -490.0, -490.0, -490.0, -490.0, -490.0, -490.0, -490.0, -490.0, -490.0, -491.0, -491.0, -491.0, -491.0, -491.0, -491.0, -491.0, -491.0, -491.0, -491.0, -491.0, -491.0, -499.0, -509.0, -509.0, -509.0, -508.0, -504.0, -496.0, -481.0, -457.0, -424.0, -388.0, -346.0, -306.0, -246.0, -232.0, -189.0, -172.0, -157.0, -147.0, -141.0, -134.0, -124.0, -107.0, -87.0, -55.0, -43.0, -17.0, 12.0, 30.0, 41.0, 49.0, 55.0, 57.0, 57.0, 58.0, 58.0, 58.0, 59.0, 62.0, 70.0, 74.0, 77.0, 82.0, 83.0, 84.0, 88.0, 105.0, 116.0, 163.0, 209.0, 264.0, 311.0, 368.0, 426.0, 469.0, 499.0, 512.0, 521.0, 527.0, 527.0, 527.0, 527.0]	[0.005723882117308676, 0.01068925386061892, 0.027471916866488755, 0.04469592351233587, 0.0621482819551602, 0.07650952832773328, 0.09532824298366904, 0.11136714124586433, 0.12709952250588685, 0.14471128350123763, 0.16576231620274484, 0.17652761901263148, 0.19663315918296576, 0.21147909853607416, 0.22976226155878976, 0.2448768300237134, 0.26320539036532864, 0.27699592791032046, 0.29630343144526705, 0.3113814772805199, 0.3294021552428603, 0.34471230750204995, 0.3621397486422211, 0.37650167767424136, 0.39505961386021227, 0.41146612784359604, 0.4269780079484917, 0.44490823266096413, 0.4617625756072812, 0.47653376299422234, 0.49508111784234643, 0.5113295946503058, 0.5267844721092843, 0.5447809154284187, 0.5616656370111741, 0.5766805362072773, 0.5949206913355738, 0.6114128798944876, 0.6266957255429588, 0.6448150487267412, 0.6616878236527555, 0.6771764931036159, 0.6950114858918823, 0.7114524745265953, 0.726786861428991, 0.7447805741103366, 0.7617390236118808, 0.7766982855391689, 0.7949435606133193, 0.8112435787334107, 0.8268346480908804, 0.84457338496577, 0.8615454877726734, 0.876400301756803, 0.8948240940808319, 0.91118179744808, 0.9268042694311589, 0.9445324249682017, 0.9615120371454395, 0.9763566111214459, 0.9948616406763904, 1.0111981814261526, 1.0266953841783106, 1.0446607662015595, 1.062049295345787, 1.0766006642952561, 1.0951432404690422, 1.1141442268854007, 1.1265864989254624, 1.1475388864055276, 1.1615052105044015, 1.1764798323856667, 1.1949531179270707, 1.2140155443339609, 1.2266540828859434, 1.2470893507706933, 1.261570063768886, 1.2792893446749076, 1.295158600434661, 1.3124351723818108, 1.3268274801084772, 1.3449365632841364, 1.3615267144632526, 1.3764361417270266]
1	鸡蛋	False	animate	inanimate	right	1.046	[0.0, 0.0, 0.0, 0.0, 0.0, 0.0, 0.0, 0.0, 0.0, 0.0, 0.0, 0.0, 0.0, 0.0, 0.0, 0.0, 0.0, 0.0, 0.0, -3.0, -9.0, -16.0, -33.0, -47.0, -60.0, -75.0, -91.0, -109.0, -135.0, -184.0, -250.0, -328.0, -415.0, -502.0, -611.0, -644.0, -653.0, -653.0, -643.0, -600.0, -500.0, -380.0, -267.0, -176.0, -121.0, -105.0, -108.0, -137.0, -159.0, -160.0, -141.0, -76.0, 40.0, 219.0, 444.0, 658.0, 840.0, 959.0, 959.0, 959.0, 959.0, 959.0, 959.0, 959.0]	[-490.0, -492.0, -492.0, -492.0, -492.0, -492.0, -492.0, -492.0, -492.0, -492.0, -493.0, -496.0, -497.0, -499.0, -499.0, -499.0, -499.0, -499.0, -500.0, -500.0, -498.0, -493.0, -481.0, -470.0, -459.0, -446.0, -429.0, -413.0, -387.0, -353.0, -306.0, -256.0, -195.0, -133.0, -42.0, -10.0, 4.0, 12.0, 22.0, 38.0, 64.0, 88.0, 112.0, 133.0, 151.0, 161.0, 180.0, 206.0, 230.0, 245.0, 265.0, 292.0, 327.0, 353.0, 374.0, 378.0, 393.0, 397.0, 411.0, 413.0, 414.0, 414.0, 414.0, 414.0]	[0.011409807892050594, 0.01614716916810721, 0.021066802321001887, 0.03986947430530563, 0.05632889491971582, 0.07160559651674703, 0.08965392247773707, 0.1066369479522109, 0.12147674331208691, 0.13983124500373378, 0.15749454725300893, 0.17160662054084241, 0.1909322147257626, 0.21728892822284251, 0.22573282499797642, 0.2396704771090299, 0.2571730114868842, 0.27162880718242377, 0.28997853019973263, 0.3064642334356904, 0.3212524874834344, 0.33945577865233645, 0.3562817909405567, 0.37169741513207555, 0.3897529090172611, 0.4064911987516098, 0.4212518048589118, 0.4396005038288422, 0.45642412680899724, 0.4717820656951517, 0.4896150105050765, 0.5064239561324939, 0.5215197512879968, 0.5397196291014552, 0.5562565323198214, 0.5717475910787471, 0.589402018697001, 0.6062983456067741, 0.6215750472038053, 0.6398565036361106, 0.6564271988463588, 0.6717202844447456, 0.689585997199174, 0.7064335134928115, 0.7215207752888091, 0.7397346477373503, 0.7562930549029261, 0.7716530418256298, 0.7895832665381022, 0.8064638921059668, 0.8215648072073236, 0.8398165676626377, 0.8563036362756975, 0.8717267697793432, 0.8893887067097239, 0.9064113268395886, 0.921320412773639, 0.9396486317855306, 0.9563490335713141, 0.9717441777465865, 0.9897563223494217, 1.0064413641230203, 1.0215508125838824, 1.0397346477257088]
2	老虎	True	animate	inanimate	left	0.965	[0.0, 0.0, 0.0, 0.0, 0.0, 0.0, 0.0, 0.0, 0.0, 0.0, 0.0, 1.0, 1.0, -9.0, -14.0, -16.0, -16.0, -16.0, -16.0, -16.0, -16.0, -16.0, -16.0, -16.0, -8.0, -3.0, -3.0, -12.0, -24.0, -31.0, -39.0, -49.0, -72.0, -106.0, -151.0, -225.0, -248.0, -311.0, -351.0, -399.0, -453.0, -518.0, -583.0, -645.0, -695.0, -737.0, -774.0, -801.0, -820.0, -830.0, -830.0, -823.0, -815.0, -812.0, -809.0, -809.0, -808.0, -808.0, -808.0]	[-490.0, -490.0, -490.0, -490.0, -490.0, -490.0, -490.0, -490.0, -490.0, -490.0, -492.0, -493.0, -493.0, -494.0, -493.0, -493.0, -493.0, -493.0, -493.0, -493.0, -493.0, -493.0, -493.0, -493.0, -503.0, -510.0, -509.0, -504.0, -496.0, -489.0, -478.0, -463.0, -436.0, -396.0, -350.0, -267.0, -239.0, -165.0, -117.0, -61.0, 1.0, 69.0, 133.0, 186.0, 226.0, 257.0, 285.0, 310.0, 325.0, 342.0, 350.0, 364.0, 385.0, 404.0, 415.0, 421.0, 423.0, 423.0, 423.0]	[0.00012001267168670893, 0.00830176571616903, 0.015161194547545165, 0.03352661884855479, 0.05036150582600385, 0.06510538654401898, 0.08376674662576988, 0.1001503913430497, 0.11529260774841532, 0.1333948642713949, 0.150347511167638, 0.16511426120996475, 0.18374524265527725, 0.2000438953982666, 0.21546737023163587, 0.2334317282657139, 0.25032054586336017, 0.26533715170808136, 0.2838217012467794, 0.30056886561214924, 0.3154892156017013, 0.3353203239967115, 0.35042533511295915, 0.36791592283407226, 0.38373944000341, 0.4016467953915708, 0.4154830715851858, 0.43447586602997035, 0.45044479105854407, 0.46758551243692636, 0.48373158933827654, 0.500787318800576, 0.5154332369565964, 0.5337853492819704, 0.550255692563951, 0.5653211090248078, 0.5835213281679899, 0.5999599274946377, 0.6152909010997973, 0.6333487843512557, 0.6500945833977312, 0.665491092891898, 0.6836786827188917, 0.6999056555214338, 0.7154724902356975, 0.7334634722210467, 0.7502577405539341, 0.765311551745981, 0.783579696144443, 0.7999363755225204, 0.8154154876247048, 0.8334604002302513, 0.8502167806145735, 0.8654002983239479, 0.8836500107427128, 0.899831586284563, 0.9153834023163654, 0.9334518669056706, 0.9502666152548045]
3	信封	False	animate	inanimate	right	0.933	[0.0, 0.0, 0.0, 0.0, 0.0, 0.0, 0.0, 1.0, 1.0, 2.0, 6.0, 6.0, 5.0, 5.0, 5.0, 5.0, 5.0, 5.0, 5.0, 5.0, 5.0, 5.0, 5.0, 4.0, 7.0, 3.0, -33.0, -92.0, -155.0, -247.0, -282.0, -378.0, -441.0, -515.0, -591.0, -654.0, -720.0, -760.0, -778.0, -789.0, -796.0, -800.0, -801.0, -800.0, -775.0, -671.0, -496.0, -247.0, 25.0, 291.0, 527.0, 702.0, 823.0, 897.0, 899.0, 899.0, 899.0]	[-490.0, -490.0, -490.0, -490.0, -490.0, -490.0, -490.0, -489.0, -489.0, -489.0, -489.0, -500.0, -507.0, -507.0, -507.0, -507.0, -507.0, -507.0, -507.0, -507.0, -507.0, -507.0, -507.0, -508.0, -505.0, -479.0, -441.0, -390.0, -329.0, -228.0, -191.0, -91.0, -28.0, 46.0, 116.0, 166.0, 215.0, 247.0, 265.0, 281.0, 305.0, 325.0, 335.0, 354.0, 365.0, 384.0, 404.0, 408.0, 408.0, 408.0, 420.0, 439.0, 450.0, 457.0, 457.0, 457.0, 457.0]	[0.015210209996439517, 0.01936252642190084, 0.02910075813997537, 0.04626537283184007, 0.06323986500501633, 0.07805713237030432, 0.0960501623339951, 0.11292873992351815, 0.12776853528339416, 0.14588103181449696, 0.162754830729682, 0.17827319615753368, 0.19615324487676844, 0.2129161105840467, 0.2279139431193471, 0.2459602210437879, 0.2626886121579446, 0.27815407095476985, 0.2961313995765522, 0.3129638972459361, 0.32767637533834204, 0.3459776290692389, 0.3633589902310632, 0.377996375085786, 0.396427676663734, 0.41289528930792585, 0.42817676957929507, 0.44594144774600863, 0.4630644198041409, 0.47794585779774934, 0.49625871679745615, 0.5127010708092712, 0.5280320443562232, 0.5459591970429756, 0.5629050172865391, 0.5780018363730051, 0.5961948875337839, 0.6124822762794793, 0.628136150946375, 0.6461278155911714, 0.6630483771441504, 0.677751297946088, 0.6961436875863001, 0.7124843242927454, 0.7280156603665091, 0.7458076452021487, 0.7628865853184834, 0.7777857725741342, 0.7961116022779606, 0.8124017217196524, 0.8281539002782665, 0.8458281251951121, 0.8629650918883272, 0.8776615273673087, 0.8962617887882516, 0.9126679615001194, 0.9278245138702914]
4	小鸡	True	animate	inanimate	left	0.847	[0.0, 0.0, 0.0, 0.0, 1.0, 3.0, 4.0, 4.0, 4.0, 4.0, 6.0, 6.0, 6.0, 6.0, 6.0, 6.0, 6.0, 6.0, 6.0, 6.0, 6.0, 8.0, 9.0, 9.0, 9.0, 9.0, 9.0, 9.0, 9.0, 9.0, 9.0, 0.0, -16.0, -32.0, -124.0, -224.0, -349.0, -476.0, -592.0, -684.0, -737.0, -766.0, -777.0, -783.0, -794.0, -800.0, -820.0, -827.0, -827.0, -827.0, -827.0, -827.0]	[-490.0, -490.0, -490.0, -490.0, -489.0, -487.0, -484.0, -483.0, -483.0, -483.0, -481.0, -481.0, -481.0, -481.0, -481.0, -481.0, -481.0, -481.0, -481.0, -481.0, -481.0, -482.0, -484.0, -484.0, -484.0, -483.0, -482.0, -481.0, -479.0, -478.0, -474.0, -458.0, -436.0, -421.0, -319.0, -223.0, -110.0, 14.0, 114.0, 196.0, 253.0, 292.0, 316.0, 337.0, 367.0, 379.0, 407.0, 418.0, 425.0, 429.0, 432.0, 433.0]	[0.002034891047514975, 0.008650266740005463, 0.015030805312562734, 0.03382903995225206, 0.050264908582903445, 0.06559042085427791, 0.08353839482879266, 0.10042072710348293, 0.11540627165231854, 0.13369762670481578, 0.1502512552542612, 0.16563650080934167, 0.18354180816095322, 0.20043403911404312, 0.21541787695605308, 0.23372356803156435, 0.25009902071906254, 0.2656658554333262, 0.283495728217531, 0.3005620390176773, 0.31517177587375045, 0.3337167413556017, 0.3500621567363851, 0.36559451679931954, 0.38354829349555075, 0.4003876178176142, 0.4154366502771154, 0.4337426826823503, 0.45007854071445763, 0.4656030501355417, 0.48356194683583453, 0.500373964488972, 0.5152967037283815, 0.5336153654498048, 0.549997303460259, 0.5655433168867603, 0.5834919735789299, 0.6003603111603297, 0.6154325542738661, 0.6336809013737366, 0.6500945833977312, 0.6656068048323505, 0.6834254136192612, 0.7004306257585995, 0.7151243305415846, 0.7336440374492668, 0.7499140182044357, 0.7655907621374354, 0.783397082996089, 0.8003514364827424, 0.8152243411168456, 0.8336819253745489]
5	农民	True	inanimate	animate	right	1.232	[0.0, 0.0, 0.0, 0.0, 0.0, 0.0, 0.0, 1.0, 2.0, 2.0, 3.0, 4.0, 4.0, 4.0, 4.0, 4.0, 4.0, 4.0, 4.0, 4.0, 4.0, 4.0, 5.0, 14.0, 18.0, 5.0, -60.0, -137.0, -222.0, -338.0, -477.0, -624.0, -760.0, -877.0, -960.0, -960.0, -960.0, -959.0, -950.0, -936.0, -914.0, -887.0, -862.0, -842.0, -832.0, -832.0, -829.0, -808.0, -731.0, -605.0, -421.0, -211.0, 99.0, 186.0, 326.0, 416.0, 445.0, 455.0, 457.0, 457.0, 457.0, 459.0, 461.0, 462.0, 462.0, 462.0, 462.0, 472.0, 511.0, 592.0, 741.0, 820.0, 839.0, 865.0, 865.0]	[-490.0, -490.0, -490.0, -490.0, -489.0, -486.0, -486.0, -484.0, -483.0, -483.0, -482.0, -478.0, -478.0, -478.0, -478.0, -478.0, -478.0, -478.0, -478.0, -478.0, -478.0, -478.0, -478.0, -471.0, -462.0, -442.0, -398.0, -336.0, -251.0, -144.0, -38.0, 68.0, 176.0, 268.0, 368.0, 402.0, 419.0, 433.0, 444.0, 452.0, 456.0, 459.0, 461.0, 466.0, 469.0, 469.0, 470.0, 468.0, 458.0, 446.0, 444.0, 444.0, 444.0, 444.0, 444.0, 444.0, 444.0, 446.0, 447.0, 447.0, 447.0, 450.0, 453.0, 453.0, 453.0, 453.0, 453.0, 454.0, 454.0, 454.0, 454.0, 454.0, 454.0, 454.0, 454.0]	[0.007943912234622985, 0.012638606887776405, 0.017202570976223797, 0.0328216296620667, 0.04925374366575852, 0.06458983721677214, 0.08254463790217414, 0.09929111960809678, 0.1143360561109148, 0.13261956052156165, 0.14920390903716907, 0.16476050374330953, 0.18254702724516392, 0.19936279952526093, 0.21409917098935694, 0.23257450456731021, 0.24917250638827682, 0.26455536257708445, 0.28256341122323647, 0.2993832795182243, 0.3142718854942359, 0.3327089897939004, 0.3491445170948282, 0.3644987012958154, 0.38251084595685825, 0.39935153553960845, 0.4140909789712168, 0.4326625684625469, 0.4491994716809131, 0.4645225946442224, 0.48241493134992197, 0.4992754182894714, 0.5144671279704198, 0.5325731392367743, 0.5489025119459257, 0.5644806106574833, 0.5824224406969734, 0.5992825863067992, 0.6143230854650028, 0.6326550591620617, 0.6491277917521074, 0.6645304452977143, 0.6823934273561463, 0.6992535729659721, 0.7143531227484345, 0.7326437951414846, 0.7490793224424124, 0.7645922265364788, 0.7823514434276149, 0.7994351621600799, 0.8143886214238591, 0.832699773774948, 0.849134277086705, 0.8645014319918118, 0.8823534913826734, 0.8993030662531964, 0.9143616560613737, 0.9326267284923233, 0.9490950237959623, 0.964600418577902, 0.9822101315367036, 0.9993105756002478, 1.0143589254003018, 1.032727763056755, 1.049087855790276, 1.0645976878586225, 1.0823732886929065, 1.0992702983203344, 1.1141036082990468, 1.1325830378918909, 1.1491513437358662, 1.1645717466017231, 1.1824139073723927, 1.199414340837393, 1.2143346907687373]
6	蝴蝶	True	animate	inanimate	left	0.901	[0.0, 0.0, 0.0, 0.0, 0.0, 0.0, 0.0, -1.0, -1.0, -1.0, -1.0, -1.0, -1.0, -1.0, -1.0, -1.0, -1.0, -1.0, 0.0, 8.0, 8.0, 8.0, 7.0, 4.0, 2.0, 2.0, 2.0, 2.0, 2.0, 2.0, 2.0, 1.0, -2.0, -20.0, -63.0, -117.0, -196.0, -287.0, -383.0, -481.0, -584.0, -681.0, -764.0, -843.0, -862.0, -864.0, -864.0, -858.0, -853.0, -851.0, -851.0, -851.0, -851.0, -851.0, -851.0]	[-490.0, -490.0, -490.0, -490.0, -490.0, -490.0, -490.0, -486.0, -484.0, -481.0, -481.0, -481.0, -481.0, -481.0, -481.0, -481.0, -481.0, -481.0, -481.0, -481.0, -481.0, -481.0, -483.0, -488.0, -491.0, -491.0, -491.0, -491.0, -491.0, -491.0, -492.0, -493.0, -493.0, -476.0, -435.0, -378.0, -298.0, -206.0, -91.0, 20.0, 136.0, 246.0, 345.0, 455.0, 493.0, 509.0, 519.0, 527.0, 531.0, 532.0, 532.0, 532.0, 532.0, 532.0, 532.0]	[0.006978963618166745, 0.011593103699851781, 0.017957940930500627, 0.030739498033653945, 0.04725933459121734, 0.06265038280980662, 0.08068334875861183, 0.09744962776312605, 0.11228259647032246, 0.13080605794675648, 0.14734330249484628, 0.16278862266335636, 0.18060620746109635, 0.19748273707227781, 0.21243551361840218, 0.23073608468985185, 0.24711153737735003, 0.2626613054308109, 0.2806266874540597, 0.29745850240578875, 0.31241844699252397, 0.33071355673018843, 0.3473009772133082, 0.3627285480615683, 0.38058879948221147, 0.39749912108527496, 0.41246350295841694, 0.4307726073311642, 0.44731224118731916, 0.4626991933910176, 0.4807277220534161, 0.4974919530795887, 0.5124662336311303, 0.5308859298820607, 0.5472350999480113, 0.562638777482789, 0.580695295415353, 0.5973619051510468, 0.6124351723119617, 0.6306541647645645, 0.6472234945977107, 0.662601572170388, 0.6804491942748427, 0.6974243691074662, 0.7123737323563546, 0.7307534926803783, 0.7472122306353413, 0.7625851882039569, 0.7805236048880033, 0.797428465099074, 0.8124242496560328, 0.8306306127924472, 0.8470084547880106, 0.8626746174413711, 0.8804768422269262]
7	厨师	True	animate	inanimate	left	0.77	[0.0, 0.0, 0.0, 0.0, 0.0, 0.0, 0.0, 0.0, 5.0, 14.0, 19.0, 19.0, 19.0, 19.0, 19.0, 19.0, 19.0, 19.0, 19.0, 20.0, 19.0, 19.0, 19.0, 19.0, 13.0, -2.0, -20.0, -44.0, -78.0, -155.0, -192.0, -318.0, -415.0, -517.0, -617.0, -675.0, -713.0, -733.0, -744.0, -753.0, -763.0, -778.0, -779.0, -779.0, -779.0, -779.0, -779.0]	[-490.0, -490.0, -490.0, -490.0, -490.0, -490.0, -490.0, -490.0, -489.0, -489.0, -488.0, -488.0, -488.0, -488.0, -488.0, -488.0, -488.0, -488.0, -488.0, -489.0, -490.0, -492.0, -493.0, -493.0, -489.0, -473.0, -447.0, -407.0, -350.0, -241.0, -190.0, -46.0, 57.0, 152.0, 234.0, 291.0, 326.0, 349.0, 365.0, 378.0, 389.0, 399.0, 400.0, 400.0, 400.0, 400.0, 400.0]	[0.015239905857015401, 0.02004587510600686, 0.02871027303626761, 0.04698899877257645, 0.06387269636616111, 0.07879407034488395, 0.09714379330398515, 0.11343800876056775, 0.1289829981396906, 0.1468736281967722, 0.1638744030497037, 0.1788114783121273, 0.19709464139305055, 0.2135939979343675, 0.2289881181786768, 0.2469644228112884, 0.26385460572782904, 0.27879850764293224, 0.29706016671843827, 0.3135987766436301, 0.329033856804017, 0.34704566007712856, 0.363894883019384, 0.3789002248668112, 0.39709122804924846, 0.41364144324325025, 0.4289734408375807, 0.44696305750403553, 0.4638583604246378, 0.4787729076924734, 0.4970550467260182, 0.5135448459768668, 0.5289986995048821, 0.5468555375700817, 0.5638549470459111, 0.5785418251762167, 0.5970342254149728, 0.6135550859617069, 0.6289741235086694, 0.6468668015440926, 0.6637419658363797, 0.6787906569661573, 0.6971188760362566, 0.7136182325775735, 0.7290075741475448, 0.7468248176155612, 0.7637672244454734]
8	樱桃	False	inanimate	animate	left	0.875	[0.0, 1.0, 1.0, 1.0, 3.0, 5.0, 7.0, 7.0, 7.0, 7.0, 7.0, 7.0, 7.0, 7.0, 7.0, 7.0, 7.0, 7.0, 11.0, 15.0, 15.0, 17.0, 17.0, 17.0, 17.0, 17.0, 17.0, 17.0, 17.0, 16.0, 18.0, 18.0, 12.0, -3.0, -33.0, -84.0, -148.0, -223.0, -305.0, -384.0, -463.0, -534.0, -584.0, -660.0, -680.0, -694.0, -710.0, -714.0, -719.0, -719.0, -720.0, -720.0, -720.0]	[-490.0, -489.0, -489.0, -488.0, -485.0, -483.0, -481.0, -480.0, -480.0, -480.0, -480.0, -480.0, -480.0, -480.0, -480.0, -480.0, -480.0, -479.0, -478.0, -476.0, -477.0, -484.0, -490.0, -490.0, -490.0, -490.0, -490.0, -490.0, -490.0, -490.0, -492.0, -492.0, -482.0, -463.0, -417.0, -356.0, -278.0, -197.0, -117.0, -28.0, 66.0, 161.0, 242.0, 327.0, 343.0, 354.0, 363.0, 365.0, 367.0, 368.0, 368.0, 368.0, 368.0]	[0.00015605747466906905, 0.004649024340324104, 0.015197922009974718, 0.03361318091629073, 0.049841860425658524, 0.06542234844528139, 0.08341776777524501, 0.10017585480818525, 0.11523410328663886, 0.1335671009728685, 0.15007260156562552, 0.1654872017679736, 0.18328123458195478, 0.2002120360848494, 0.2151784659945406, 0.23358689830638468, 0.24993538565468043, 0.2654175697825849, 0.2833952397922985, 0.30017960944678634, 0.315216695307754, 0.33351282903458923, 0.350047001556959, 0.3654008444864303, 0.3834355170838535, 0.40021442546276376, 0.41526072728447616, 0.433492690382991, 0.44984698039479554, 0.46540937782265246, 0.48336998117156327, 0.5001519615179859, 0.5152422952814959, 0.5335401356569491, 0.5500381269375794, 0.565477303112857, 0.5833457465050742, 0.6001198762096465, 0.6152139646583237, 0.6334592397324741, 0.6499681536806747, 0.6654738897341304, 0.6833245838643052, 0.700202478794381, 0.7149910741718486, 0.7335906529333442, 0.7499411883181892, 0.7654793511028402, 0.7832174052600749, 0.8001731241238303, 0.8151573033537716, 0.8334844983764924, 0.8499824896571226]
9	公路	False	inanimate	animate	left	0.831	[0.0, 0.0, 0.0, 0.0, 0.0, 0.0, 0.0, 0.0, 1.0, 1.0, 2.0, 4.0, 4.0, 4.0, 4.0, 4.0, 4.0, 4.0, 4.0, 4.0, 4.0, 4.0, 4.0, 4.0, 1.0, 0.0, 0.0, -32.0, -117.0, -286.0, -335.0, -469.0, -530.0, -572.0, -603.0, -624.0, -643.0, -667.0, -672.0, -675.0, -678.0, -679.0, -680.0, -691.0, -708.0, -723.0, -734.0, -742.0, -748.0, -751.0, -751.0]	[-490.0, -490.0, -490.0, -490.0, -490.0, -490.0, -490.0, -490.0, -490.0, -490.0, -489.0, -485.0, -474.0, -465.0, -465.0, -465.0, -465.0, -465.0, -465.0, -465.0, -465.0, -465.0, -465.0, -465.0, -461.0, -450.0, -427.0, -375.0, -295.0, -161.0, -124.0, -27.0, 26.0, 74.0, 116.0, 148.0, 178.0, 211.0, 217.0, 222.0, 228.0, 231.0, 243.0, 290.0, 337.0, 372.0, 396.0, 412.0, 427.0, 439.0, 440.0]	[0.013976632384583354, 0.018564148456789553, 0.02606255270075053, 0.04430714511545375, 0.061363898566924036, 0.07632998714689165, 0.09460939554264769, 0.11112547747325152, 0.12648239237023517, 0.14446449966635555, 0.1612874399870634, 0.1763661684235558, 0.19453873962629586, 0.2111278668162413, 0.2264943390036933, 0.2444211503607221, 0.26127003197325394, 0.27627673919778317, 0.2946486488217488, 0.31117633607937023, 0.32654656295198947, 0.3444576730253175, 0.36140315188094974, 0.37635968311224133, 0.3946527448715642, 0.4111244534724392, 0.426527448289562, 0.4445068249478936, 0.4612969973240979, 0.4763607071363367, 0.49449470767285675, 0.5108937123441137, 0.5264888776582666, 0.5442402438493446, 0.561250917322468, 0.5761354273417965, 0.5944476036820561, 0.6111398134380579, 0.6265288136200979, 0.6443812143988907, 0.6613389812991954, 0.676316675147973, 0.6944694489939138, 0.7110933921649121, 0.7264888776699081, 0.7442989531555213, 0.7612417013733648, 0.7762968778260984, 0.794515187619254, 0.8110848588403314, 0.8264646430616267]
10	坦克	False	animate	inanimate	right	1.233	[0.0, 0.0, 0.0, 0.0, 3.0, 3.0, 3.0, 3.0, 3.0, 3.0, 3.0, 3.0, 3.0, 3.0, 3.0, 3.0, 3.0, 3.0, 3.0, 3.0, 3.0, 3.0, 3.0, 3.0, 3.0, 3.0, 3.0, 3.0, 3.0, 4.0, 5.0, 13.0, 17.0, 17.0, 13.0, -14.0, -70.0, -145.0, -239.0, -329.0, -445.0, -519.0, -582.0, -641.0, -680.0, -704.0, -721.0, -729.0, -733.0, -735.0, -735.0, -735.0, -735.0, -738.0, -744.0, -748.0, -749.0, -749.0, -749.0, -736.0, -614.0, -415.0, -167.0, 111.0, 478.0, 649.0, 747.0, 795.0, 809.0, 812.0, 812.0, 812.0, 812.0, 812.0]	[-490.0, -490.0, -490.0, -489.0, -483.0, -481.0, -481.0, -481.0, -481.0, -481.0, -481.0, -481.0, -481.0, -481.0, -481.0, -481.0, -479.0, -474.0, -472.0, -472.0, -472.0, -472.0, -472.0, -472.0, -472.0, -472.0, -472.0, -472.0, -472.0, -472.0, -472.0, -467.0, -452.0, -433.0, -403.0, -357.0, -288.0, -229.0, -149.0, -64.0, 65.0, 148.0, 223.0, 293.0, 339.0, 363.0, 380.0, 390.0, 395.0, 398.0, 398.0, 398.0, 402.0, 415.0, 424.0, 428.0, 430.0, 430.0, 430.0, 430.0, 430.0, 430.0, 430.0, 430.0, 439.0, 444.0, 450.0, 452.0, 453.0, 455.0, 455.0, 455.0, 455.0, 455.0]	[0.0010203127167187631, 0.0062041376368142664, 0.01681276859017089, 0.035404838039539754, 0.05186494131339714, 0.06719216023338959, 0.0852244435227476, 0.10203202383127064, 0.11674381932243705, 0.1352208595490083, 0.15183968265773728, 0.16717133892234415, 0.1851165823172778, 0.20206035452429205, 0.2169851417420432, 0.2353676327620633, 0.2518157893791795, 0.26731742947595194, 0.2851377449114807, 0.301969901251141, 0.31697012309450656, 0.33532394212670624, 0.3518390000099316, 0.3672300482285209, 0.3850530943600461, 0.40200915455352515, 0.41713635227642953, 0.4353341821115464, 0.4518584560137242, 0.46718465094454587, 0.4849878997192718, 0.5020545518491417, 0.5169759257696569, 0.5352549928356893, 0.5518550426932052, 0.5672020589117892, 0.5850995156215504, 0.6019466905854642, 0.6169510084437206, 0.6353007314610295, 0.6516952987876721, 0.6671235522953793, 0.6850203263456933, 0.7019456665730104, 0.716931211121846, 0.7352273448486812, 0.7517540081171319, 0.7671907949261367, 0.7851298942696303, 0.8019873092416674, 0.8169595417566597, 0.835265232832171, 0.8517338694655336, 0.8671532482840121, 0.884979025053326, 0.902026221214328, 0.9169612484402023, 0.9352092542103492, 0.9517676614341326, 0.9671638295985758, 0.9850196437328123, 1.0019029999384657, 1.017006645735819, 1.0352297342033125, 1.0517174854758196, 1.0672006935928948, 1.0849694677744992, 1.1020323651609942, 1.117097440350335, 1.1353191634407267, 1.1517523014335893, 1.167135157622397, 1.1849698090809397, 1.2019190426217392]
11	窗户	False	inanimate	animate	left	0.84	[0.0, 0.0, 0.0, 0.0, 0.0, 2.0, 3.0, 13.0, 18.0, 19.0, 19.0, 19.0, 19.0, 19.0, 19.0, 19.0, 19.0, 19.0, 19.0, 19.0, 20.0, 21.0, 22.0, 24.0, 24.0, 7.0, -5.0, -48.0, -115.0, -234.0, -274.0, -401.0, -495.0, -593.0, -684.0, -759.0, -820.0, -856.0, -878.0, -885.0, -887.0, -885.0, -882.0, -868.0, -861.0, -852.0, -841.0, -823.0, -803.0, -786.0, -778.0]	[-490.0, -490.0, -490.0, -490.0, -490.0, -490.0, -490.0, -487.0, -485.0, -484.0, -484.0, -484.0, -484.0, -484.0, -484.0, -484.0, -484.0, -484.0, -484.0, -484.0, -484.0, -484.0, -484.0, -479.0, -466.0, -447.0, -435.0, -391.0, -335.0, -237.0, -208.0, -105.0, -25.0, 66.0, 145.0, 207.0, 255.0, 281.0, 297.0, 306.0, 311.0, 323.0, 327.0, 351.0, 365.0, 382.0, 398.0, 417.0, 436.0, 449.0, 453.0]	[0.013024517975281924, 0.03959763661259785, 0.04471353627741337, 0.059165918617509305, 0.07606156286783516, 0.09084435558179393, 0.10923196654766798, 0.12581802171189338, 0.1411950752371922, 0.15916079859016463, 0.17599909886484966, 0.19098839809885249, 0.20933265978237614, 0.22591666696825996, 0.24122852587606758, 0.2591768412385136, 0.27610081614693627, 0.29098600876750425, 0.3092978438362479, 0.3256674938602373, 0.34119029657449573, 0.35917308658827096, 0.3760148002183996, 0.3910638326779008, 0.40936611039796844, 0.42565452319104224, 0.44120087794726714, 0.4592126812203787, 0.47604381351266056, 0.49099897942505777, 0.509227187896613, 0.5257794510689564, 0.5411728885956109, 0.5588761268300004, 0.5759922722354531, 0.5910078540910035, 0.6092179718543775, 0.6257518031052314, 0.6412643658695742, 0.658945758768823, 0.6759506295784377, 0.6910099021042697, 0.7091927132569253, 0.7257279097684659, 0.7412268192274496, 0.7590399666805752, 0.775975888245739, 0.7910126327769831, 0.8092384518822655, 0.8257094778236933, 0.8411619659746066]
12	蝌蚪	True	inanimate	animate	right	1.427	[0.0, 0.0, 0.0, 0.0, 0.0, 0.0, 0.0, 0.0, 0.0, 0.0, 0.0, 0.0, 0.0, 0.0, 0.0, 0.0, -1.0, -1.0, -1.0, -1.0, -2.0, -6.0, -12.0, -12.0, -12.0, -12.0, -12.0, -12.0, -12.0, -12.0, -12.0, -3.0, 13.0, 13.0, 13.0, 7.0, -1.0, -13.0, -41.0, -93.0, -156.0, -253.0, -366.0, -462.0, -588.0, -621.0, -688.0, -713.0, -728.0, -734.0, -736.0, -738.0, -738.0, -738.0, -734.0, -710.0, -543.0, -457.0, -172.0, 30.0, 198.0, 344.0, 453.0, 526.0, 568.0, 588.0, 598.0, 607.0, 624.0, 629.0, 634.0, 634.0, 634.0, 634.0, 634.0, 634.0, 644.0, 666.0, 699.0, 730.0, 750.0, 755.0, 770.0, 776.0, 781.0, 782.0]	[-490.0, -490.0, -490.0, -490.0, -490.0, -490.0, -490.0, -490.0, -490.0, -490.0, -490.0, -490.0, -490.0, -490.0, -490.0, -485.0, -485.0, -484.0, -484.0, -484.0, -482.0, -481.0, -481.0, -481.0, -481.0, -481.0, -481.0, -481.0, -481.0, -481.0, -481.0, -483.0, -478.0, -475.0, -463.0, -449.0, -430.0, -406.0, -367.0, -310.0, -244.0, -164.0, -68.0, 16.0, 128.0, 158.0, 225.0, 255.0, 275.0, 287.0, 296.0, 306.0, 313.0, 316.0, 320.0, 321.0, 321.0, 321.0, 342.0, 366.0, 390.0, 411.0, 429.0, 439.0, 454.0, 459.0, 463.0, 467.0, 473.0, 476.0, 478.0, 478.0, 478.0, 478.0, 478.0, 478.0, 478.0, 472.0, 458.0, 444.0, 429.0, 422.0, 388.0, 372.0, 361.0, 355.0]	[0.013546894071623683, 0.019701470155268908, 0.02513105486286804, 0.04395318281603977, 0.06042625673580915, 0.07575176900718361, 0.09371237235609442, 0.11055852327262983, 0.12555635580793023, 0.14384839357808232, 0.1604177234112285, 0.17577293165959418, 0.1937086177058518, 0.21063566458178684, 0.22557581181172282, 0.24383200955344364, 0.2603709608083591, 0.2757729316363111, 0.29365980706643313, 0.3103984381305054, 0.32550242519937456, 0.34384907624917105, 0.36041669943369925, 0.37575313431443647, 0.3936942816944793, 0.41059094993397593, 0.42553860653424636, 0.4439224628149532, 0.4604876966914162, 0.47578009963035583, 0.49367448437260464, 0.5106465872377157, 0.5254061692976393, 0.5438128949026577, 0.5605672273086384, 0.5757633743342012, 0.5937017910182476, 0.6106196219334379, 0.6256577317253686, 0.6437661322997883, 0.6603614034829661, 0.6757637156406417, 0.6936113377450965, 0.7105247313156724, 0.7255403131712228, 0.7437463349779136, 0.7602938195341267, 0.7757374329958111, 0.7936181644327007, 0.8105097126681358, 0.8255884411628358, 0.843740873679053, 0.8601531903259456, 0.8757285583415069, 0.8935683298041113, 0.9104817233746871, 0.9255328038707376, 0.9438227936043404, 0.9603102034889162, 0.975750062323641, 0.9935638924944215, 1.0105421392945573, 1.0256894757039845, 1.043724489689339, 1.0602344275685027, 1.0757087610545568, 1.0936004151008092, 1.1104752380633727, 1.1255270012188703, 1.1437132256687619, 1.160289723542519, 1.1757005690596998, 1.1936195297748782, 1.2105332646751776, 1.2256014117738232, 1.2438729695277289, 1.2602388649247587, 1.2757258276687935, 1.293488116527442, 1.3105110779870301, 1.3255703505128622, 1.3438221109099686, 1.3602494462393224, 1.3757265103631653, 1.3935946124256589, 1.4106015312718228]
13	将军	True	animate	inanimate	left	0.941	[0.0, 0.0, 0.0, 0.0, 0.0, 5.0, 7.0, 8.0, 10.0, 10.0, 10.0, 10.0, 10.0, 10.0, 10.0, 10.0, 14.0, 24.0, 26.0, 35.0, 35.0, 35.0, 35.0, 35.0, 35.0, 35.0, 35.0, 35.0, 38.0, 40.0, 40.0, 30.0, 14.0, -4.0, -33.0, -87.0, -163.0, -247.0, -342.0, -433.0, -518.0, -639.0, -678.0, -753.0, -775.0, -784.0, -788.0, -791.0, -793.0, -793.0, -793.0, -793.0, -793.0, -793.0, -793.0, -793.0]	[-490.0, -490.0, -490.0, -490.0, -490.0, -485.0, -483.0, -482.0, -480.0, -480.0, -480.0, -480.0, -480.0, -480.0, -480.0, -480.0, -488.0, -488.0, -489.0, -494.0, -494.0, -494.0, -494.0, -494.0, -494.0, -494.0, -494.0, -494.0, -494.0, -495.0, -491.0, -482.0, -470.0, -456.0, -434.0, -387.0, -317.0, -239.0, -155.0, -57.0, 42.0, 200.0, 250.0, 361.0, 400.0, 421.0, 435.0, 444.0, 448.0, 449.0, 452.0, 452.0, 452.0, 452.0, 452.0, 452.0]	[0.0008895821520127356, 0.005471636890433729, 0.016700128675438464, 0.03517170756822452, 0.05153009359491989, 0.06686209118925035, 0.08486706780968234, 0.10163061617640778, 0.11668067268328741, 0.13500855036545545, 0.15155057358788326, 0.16696141910506412, 0.18489812914049253, 0.2018050373881124, 0.21653560613049194, 0.2351225555757992, 0.25157685624435544, 0.2668747205170803, 0.2850032597198151, 0.3016906908014789, 0.31669364334084094, 0.3350938836229034, 0.35132051509572193, 0.36692489648703486, 0.38496605440741405, 0.4017644187551923, 0.4167202673270367, 0.43519218754954636, 0.45149937365204096, 0.46703036839608103, 0.485158224881161, 0.5017285787616856, 0.5165349234594032, 0.5350457556778565, 0.5515628615976311, 0.566867211193312, 0.5848585345083848, 0.6015872668940574, 0.6166468806914054, 0.634933115739841, 0.6514423710177653, 0.6668672111700289, 0.6847452119109221, 0.7016384668531828, 0.7166554140276276, 0.7349365290720016, 0.7514662643079646, 0.766846731188707, 0.7848168918862939, 0.8015903388732113, 0.8166799900354818, 0.8348655318259262, 0.8514396403334104, 0.8669313818099909, 0.8847315586172044, 0.9017022961052135]
14	月亮	False	animate	inanimate	right	1.132	[0.0, 0.0, 0.0, 0.0, 0.0, 0.0, 0.0, 0.0, 0.0, 0.0, 0.0, 0.0, 0.0, 0.0, 0.0, -1.0, -1.0, 2.0, 8.0, 12.0, 15.0, 15.0, 15.0, 15.0, 15.0, 15.0, 15.0, 15.0, 15.0, 19.0, 22.0, 23.0, 20.0, 3.0, -44.0, -75.0, -156.0, -265.0, -320.0, -338.0, -413.0, -461.0, -478.0, -463.0, -373.0, -233.0, -54.0, 135.0, 302.0, 488.0, 568.0, 598.0, 609.0, 611.0, 611.0, 611.0, 611.0, 611.0, 611.0, 617.0, 625.0, 638.0, 668.0, 705.0, 874.0, 959.0, 959.0, 959.0, 959.0]	[-490.0, -490.0, -490.0, -490.0, -490.0, -490.0, -490.0, -490.0, -490.0, -490.0, -490.0, -490.0, -490.0, -489.0, -487.0, -486.0, -486.0, -485.0, -484.0, -482.0, -481.0, -481.0, -481.0, -481.0, -481.0, -481.0, -481.0, -481.0, -481.0, -475.0, -470.0, -455.0, -442.0, -424.0, -362.0, -324.0, -253.0, -153.0, -113.0, -91.0, 6.0, 74.0, 123.0, 149.0, 189.0, 230.0, 260.0, 285.0, 311.0, 337.0, 354.0, 364.0, 370.0, 372.0, 372.0, 372.0, 372.0, 372.0, 372.0, 376.0, 378.0, 385.0, 395.0, 402.0, 426.0, 442.0, 453.0, 458.0, 458.0]	[0.0139455710304901, 0.01999160321429372, 0.02625779516529292, 0.04506353911710903, 0.06126320530893281, 0.07655833894386888, 0.09450665430631489, 0.1113275465904735, 0.1263752137310803, 0.14468192879576236, 0.16117070405744016, 0.17656175227602944, 0.1945039235870354, 0.21136338653741404, 0.2263629257795401, 0.2447000194224529, 0.2611645600409247, 0.2766511815134436, 0.2945616089273244, 0.3113343732547946, 0.3263154804590158, 0.3446948994533159, 0.3610372428665869, 0.37657130957813933, 0.3944974382757209, 0.41132140258559957, 0.4263308404479176, 0.44467885681660846, 0.46120483736740425, 0.4765979335643351, 0.4945308889145963, 0.5113005812745541, 0.5263202591449954, 0.5446116141974926, 0.5611352054402232, 0.5766272881883197, 0.5945196249522269, 0.6112917066202499, 0.6263752137310803, 0.6446187821566127, 0.6610396321630105, 0.6765934962313622, 0.6944455556804314, 0.7112671306240372, 0.7263025098363869, 0.7445003396132961, 0.7609628322534263, 0.7765545842703432, 0.7943789957207628, 0.811271226615645, 0.8263956937589683, 0.8445856728940271, 0.8608648696681485, 0.8764873416512273, 0.8941468892735429, 0.9112835146370344, 0.9263601950951852, 0.9446054701693356, 0.9610597708378918, 0.9765610696049407, 0.9944011823972687, 1.0112620106665418, 1.0262891978491098, 1.0445754328975454, 1.0609594188863412, 1.0766016882262193, 1.0945435182657093, 1.1113507572445087, 1.126415832375642]
15	鳄鱼	True	animate	inanimate	left	0.931	[0.0, 0.0, 0.0, 0.0, 0.0, 0.0, -12.0, -27.0, -33.0, -34.0, -35.0, -35.0, -35.0, -35.0, -36.0, -36.0, -37.0, -37.0, -36.0, -31.0, -27.0, -21.0, -19.0, -19.0, -19.0, -19.0, -19.0, -19.0, -19.0, -19.0, -19.0, -14.0, -7.0, -7.0, -6.0, -17.0, -30.0, -56.0, -125.0, -162.0, -284.0, -379.0, -485.0, -588.0, -675.0, -740.0, -785.0, -808.0, -824.0, -832.0, -835.0, -835.0, -836.0, -836.0, -836.0, -837.0, -837.0]	[-490.0, -490.0, -490.0, -490.0, -490.0, -490.0, -490.0, -488.0, -488.0, -489.0, -490.0, -490.0, -490.0, -490.0, -490.0, -490.0, -488.0, -488.0, -488.0, -488.0, -486.0, -481.0, -479.0, -479.0, -479.0, -479.0, -479.0, -479.0, -479.0, -479.0, -479.0, -479.0, -480.0, -480.0, -470.0, -443.0, -414.0, -360.0, -235.0, -183.0, -17.0, 88.0, 195.0, 289.0, 372.0, 429.0, 468.0, 488.0, 501.0, 509.0, 511.0, 511.0, 513.0, 516.0, 520.0, 522.0, 522.0]	[0.012873443949501961, 0.017720714444294572, 0.023936389188747853, 0.042504565324634314, 0.05886568204732612, 0.07419460761593655, 0.09213507227832451, 0.10907577251782641, 0.12405175971798599, 0.1422355948598124, 0.158688188821543, 0.1741809542872943, 0.1921480429591611, 0.2088791646528989, 0.22395789314759895, 0.242279285506811, 0.25882506341440603, 0.2740068744169548, 0.2921077656792477, 0.3090467592119239, 0.3240654130349867, 0.34226392552955076, 0.3587936607655138, 0.3742420529015362, 0.39212961099110544, 0.4090395912062377, 0.4239445811836049, 0.44224822422256693, 0.45881550607737154, 0.47419426625128835, 0.4921388269867748, 0.5090218418627046, 0.5240718983695842, 0.5422755308682099, 0.5587769354460761, 0.5741870983038098, 0.5921132270013914, 0.6089518686058, 0.623948335822206, 0.6422000962193124, 0.6587257354985923, 0.6741754929535091, 0.6920005870633759, 0.7089832712663338, 0.7240295730880462, 0.7421529922867194, 0.758521618321538, 0.7741768583073281, 0.7919562137685716, 0.8090406152186915, 0.8237722079502419, 0.8420331843663007, 0.858650642214343, 0.8741427249624394, 0.8920842136722058, 0.9089952179347165, 0.9239910024334677]
16	老鼠	True	inanimate	animate	right	0.941	[0.0, -13.0, -13.0, -13.0, -13.0, -13.0, -13.0, -13.0, -13.0, -13.0, -13.0, -13.0, -13.0, -13.0, -13.0, -13.0, -13.0, -13.0, -13.0, -13.0, -13.0, -13.0, -13.0, -13.0, -13.0, -17.0, -47.0, -117.0, -196.0, -268.0, -342.0, -409.0, -546.0, -592.0, -734.0, -776.0, -785.0, -785.0, -779.0, -766.0, -716.0, -603.0, -429.0, -193.0, 56.0, 333.0, 686.0, 862.0, 959.0, 959.0, 959.0, 959.0, 959.0, 959.0, 959.0, 959.0, 959.0]	[-490.0, -457.0, -457.0, -457.0, -457.0, -457.0, -457.0, -457.0, -457.0, -457.0, -457.0, -457.0, -457.0, -457.0, -457.0, -457.0, -457.0, -457.0, -457.0, -457.0, -457.0, -457.0, -457.0, -457.0, -457.0, -448.0, -424.0, -361.0, -288.0, -225.0, -139.0, -47.0, 116.0, 168.0, 316.0, 365.0, 390.0, 402.0, 413.0, 420.0, 421.0, 421.0, 415.0, 390.0, 385.0, 385.0, 385.0, 385.0, 385.0, 385.0, 385.0, 385.0, 385.0, 385.0, 385.0, 385.0, 385.0]	[0.0011244193301536143, 0.0060942284180782735, 0.019096969335805625, 0.035506896674633026, 0.05182773608248681, 0.06722765893209726, 0.08516266231890768, 0.10206001321785152, 0.11697114713024348, 0.13526830490445718, 0.15178165613906458, 0.16721059230621904, 0.1851886035874486, 0.20202280790545046, 0.2170056218164973, 0.23533384082838893, 0.25188883469672874, 0.2672969495761208, 0.2852285396074876, 0.3021668504807167, 0.31701108312699944, 0.3354785660048947, 0.3518697200343013, 0.36725121090421453, 0.385202256962657, 0.4020757145481184, 0.4171820909832604, 0.43530346220359206, 0.45182534673949704, 0.46725667227292433, 0.4851254569948651, 0.502008130599279, 0.5170274671399966, 0.535230758250691, 0.5517673201393336, 0.5672034242888913, 0.5850899583892897, 0.6019053893396631, 0.6170278084464371, 0.6353522728313692, 0.6517816561390646, 0.6672047896427102, 0.6851473023416474, 0.7019224559771828, 0.7170438510947861, 0.7352167635690421, 0.7518007707549259, 0.7671856749802828, 0.7852261502412148, 0.8020463599241339, 0.8170025498257019, 0.8353795794537291, 0.8518997573410161, 0.8672464322298765, 0.8852841768530197, 0.9020559171913192, 0.9170633070752956]
17	钢琴	False	inanimate	animate	left	0.866	[0.0, 4.0, 4.0, 5.0, 6.0, 6.0, 6.0, 6.0, 6.0, 6.0, 6.0, 6.0, 7.0, 8.0, 12.0, 15.0, 19.0, 23.0, 24.0, 26.0, 26.0, 26.0, 26.0, 26.0, 26.0, 26.0, 31.0, 33.0, 33.0, 32.0, 30.0, 28.0, 18.0, 11.0, -30.0, -86.0, -166.0, -263.0, -372.0, -476.0, -569.0, -648.0, -693.0, -713.0, -720.0, -725.0, -728.0, -728.0, -728.0, -728.0, -728.0, -728.0]	[-490.0, -486.0, -486.0, -485.0, -483.0, -483.0, -483.0, -483.0, -483.0, -483.0, -483.0, -483.0, -483.0, -482.0, -481.0, -481.0, -481.0, -482.0, -483.0, -484.0, -484.0, -484.0, -484.0, -484.0, -484.0, -484.0, -487.0, -488.0, -489.0, -491.0, -491.0, -486.0, -469.0, -461.0, -407.0, -341.0, -256.0, -158.0, -44.0, 64.0, 169.0, 258.0, 312.0, 344.0, 359.0, 370.0, 378.0, 378.0, 378.0, 378.0, 378.0, 378.0]	[0.002041922532953322, 0.007186152855865657, 0.019005833426490426, 0.037495161639526486, 0.05391396360937506, 0.06924357189564034, 0.08717994060134515, 0.10408070479752496, 0.118965556146577, 0.137321081769187, 0.15382897172821686, 0.1691753052873537, 0.1871355673065409, 0.20400151557987556, 0.2189986653975211, 0.23723165254341438, 0.2537207691348158, 0.269194419903215, 0.28712088998872787, 0.3040247262106277, 0.3190044680959545, 0.33727158850524575, 0.35383750504115596, 0.3691616519354284, 0.3871519512613304, 0.4040336008765735, 0.41896282543893903, 0.4372988951508887, 0.4538357983692549, 0.4692452785675414, 0.4872243138961494, 0.5040493021951988, 0.5188563295523636, 0.5373057217802852, 0.5537456864258274, 0.5691998812253587, 0.5871185006108135, 0.6039653342450038, 0.6190563507261686, 0.637243599165231, 0.6537190624512732, 0.6691309319576249, 0.6870881220092997, 0.7039329076069407, 0.7189928627340123, 0.7372558871866204, 0.7536856118240394, 0.7691848626127467, 0.7869372527929954, 0.8039062836323865, 0.8190396254067309, 0.8371900098863989]
18	奶牛	True	animate	inanimate	left	1.242	[0.0, 0.0, 0.0, 0.0, 0.0, 0.0, 0.0, 0.0, 0.0, 0.0, 0.0, 0.0, 0.0, 0.0, 0.0, 0.0, 0.0, 0.0, 2.0, 5.0, 6.0, 6.0, 6.0, 7.0, 7.0, 5.0, -5.0, -20.0, -50.0, -92.0, -150.0, -234.0, -320.0, -418.0, -509.0, -583.0, -638.0, -680.0, -717.0, -726.0, -739.0, -742.0, -745.0, -745.0, -745.0, -745.0, -745.0, -745.0, -745.0, -745.0, -743.0, -721.0, -512.0, -294.0, -68.0, 116.0, 248.0, 289.0, 290.0, 290.0, 245.0, 129.0, -108.0, -209.0, -482.0, -607.0, -667.0, -690.0, -695.0, -695.0, -695.0, -697.0, -700.0, -710.0, -720.0]	[-490.0, -490.0, -490.0, -490.0, -490.0, -490.0, -490.0, -490.0, -490.0, -490.0, -490.0, -490.0, -490.0, -490.0, -490.0, -490.0, -490.0, -490.0, -487.0, -487.0, -486.0, -486.0, -486.0, -486.0, -484.0, -479.0, -463.0, -442.0, -397.0, -346.0, -276.0, -187.0, -109.0, -17.0, 64.0, 148.0, 212.0, 270.0, 327.0, 343.0, 371.0, 386.0, 396.0, 400.0, 404.0, 407.0, 410.0, 410.0, 410.0, 410.0, 411.0, 411.0, 390.0, 390.0, 390.0, 390.0, 390.0, 390.0, 390.0, 390.0, 391.0, 405.0, 444.0, 455.0, 492.0, 509.0, 509.0, 509.0, 510.0, 510.0, 510.0, 510.0, 510.0, 510.0, 510.0]	[0.0012930378434248269, 0.006076820427551866, 0.017481781367678195, 0.036070437519811094, 0.05237898894120008, 0.06772259180434048, 0.08557089656824246, 0.10251125547802076, 0.11751898669172078, 0.1358741709846072, 0.15235816763015464, 0.1677642344729975, 0.18571391515433788, 0.2025290047749877, 0.2175387839670293, 0.2359093283303082, 0.2522305090678856, 0.2677584317862056, 0.2857026511337608, 0.3025767914368771, 0.31756165326805785, 0.3358100003679283, 0.35231789032695815, 0.36768436251441017, 0.3857091364916414, 0.40248019417049363, 0.41750567470444366, 0.4358086350839585, 0.4523612395860255, 0.4676659305114299, 0.4854616700322367, 0.5025191061431542, 0.5175534613081254, 0.5357096484513022, 0.552342124923598, 0.5677454611286521, 0.585401595395524, 0.602523202134762, 0.6175305919605307, 0.6357983950874768, 0.6522793196490966, 0.6677232744987123, 0.6855719205923378, 0.7024699541507289, 0.7174865600536577, 0.735834576364141, 0.7522704449947923, 0.7677345384727232, 0.7855988859082572, 0.8025392447598279, 0.8175183039857075, 0.8357318351045251, 0.8522496236837469, 0.867693237203639, 0.8855906939134002, 0.902501015458256, 0.9176650771987624, 0.9358048803987913, 0.9522185623645782, 0.9676591038587503, 0.9855831845779903, 1.002526615455281, 1.0174981653690338, 1.035849253705237, 1.052196717064362, 1.067684021196328, 1.0855473446426913, 1.1025078421225771, 1.1174845120403916, 1.13578474172391, 1.1520663278643042, 1.1676826558541507, 1.1853893074439839, 1.2024750741547905, 1.2172158829052933]
19	牙齿	False	inanimate	animate	left	0.901	[0.0, 0.0, 0.0, 0.0, 3.0, 5.0, 7.0, 7.0, 7.0, 7.0, 7.0, 7.0, 7.0, 7.0, 7.0, 7.0, 7.0, 17.0, 27.0, 33.0, 33.0, 33.0, 33.0, 33.0, 33.0, 47.0, 85.0, 92.0, 105.0, 106.0, 106.0, 106.0, 103.0, 93.0, 53.0, 25.0, -47.0, -148.0, -315.0, -371.0, -508.0, -548.0, -570.0, -584.0, -595.0, -600.0, -607.0, -623.0, -657.0, -694.0, -727.0, -746.0, -759.0, -759.0, -760.0]	[-490.0, -490.0, -490.0, -490.0, -487.0, -485.0, -483.0, -482.0, -481.0, -481.0, -481.0, -481.0, -481.0, -481.0, -481.0, -481.0, -481.0, -483.0, -487.0, -488.0, -488.0, -488.0, -488.0, -488.0, -488.0, -491.0, -495.0, -494.0, -483.0, -479.0, -470.0, -460.0, -448.0, -428.0, -380.0, -355.0, -298.0, -220.0, -80.0, -29.0, 102.0, 157.0, 204.0, 239.0, 262.0, 274.0, 287.0, 304.0, 334.0, 366.0, 386.0, 398.0, 407.0, 407.0, 407.0]	[0.008391741139348596, 0.012652601522859186, 0.017622410610783845, 0.03573729644995183, 0.05017022282117978, 0.065493687056005, 0.08353621035348624, 0.10030692670261487, 0.11532831122167408, 0.1335974796093069, 0.15014120953856036, 0.1655066577368416, 0.18351402372354642, 0.20039737998740748, 0.21535800717538223, 0.2337015861994587, 0.2502002601395361, 0.2655377190676518, 0.28353382099885494, 0.30036051600473, 0.3150893780984916, 0.33355788502376527, 0.35020708676893264, 0.3655694629997015, 0.3835249463445507, 0.40040932659758255, 0.41530271124793217, 0.433676668908447, 0.45002583897439763, 0.4655837989994325, 0.48336520249722525, 0.500360174686648, 0.5153388925245963, 0.5335660770069808, 0.5499739563092589, 0.565459553792607, 0.583448487741407, 0.6002932733972557, 0.6152972499257885, 0.6336387809133157, 0.6499899989576079, 0.6655179217341356, 0.6833235598751344, 0.700262212078087, 0.7153132925741374, 0.7335162423551083, 0.7500227669370361, 0.765515873732511, 0.7834778424003161, 0.800258798757568, 0.8153160232468508, 0.8336114743142389, 0.8500398336327635, 0.8655407910700887, 0.8833378958515823]
20	蚊子	True	inanimate	animate	right	1.046	[0.0, 0.0, 0.0, 0.0, 0.0, 0.0, 0.0, 0.0, 0.0, 0.0, 0.0, 0.0, 0.0, 0.0, 0.0, 0.0, -3.0, -4.0, -4.0, -3.0, -1.0, -1.0, -1.0, -1.0, -1.0, -1.0, -1.0, -1.0, -1.0, -3.0, -3.0, -3.0, -3.0, -16.0, -79.0, -133.0, -158.0, -235.0, -245.0, -245.0, -218.0, -150.0, -29.0, 125.0, 295.0, 438.0, 589.0, 657.0, 684.0, 726.0, 745.0, 759.0, 765.0, 767.0, 769.0, 773.0, 777.0, 780.0, 781.0, 782.0, 785.0, 786.0, 790.0, 793.0]	[-490.0, -490.0, -490.0, -490.0, -490.0, -490.0, -486.0, -482.0, -481.0, -480.0, -480.0, -480.0, -480.0, -480.0, -480.0, -477.0, -477.0, -477.0, -477.0, -477.0, -477.0, -478.0, -478.0, -478.0, -478.0, -478.0, -478.0, -478.0, -478.0, -477.0, -477.0, -476.0, -471.0, -457.0, -404.0, -357.0, -335.0, -270.0, -255.0, -237.0, -196.0, -138.0, -62.0, 11.0, 66.0, 105.0, 162.0, 196.0, 211.0, 243.0, 267.0, 283.0, 293.0, 299.0, 305.0, 314.0, 322.0, 330.0, 337.0, 346.0, 363.0, 382.0, 398.0, 415.0]	[0.009309585730079561, 0.014252088207285851, 0.019154313311446458, 0.03569053387036547, 0.05195437069050968, 0.06738979218062013, 0.08532513683894649, 0.10218698915559798, 0.11712099239230156, 0.13543385145021603, 0.15185674943495542, 0.1673983255168423, 0.18533332884544507, 0.20223955443361774, 0.21694247523555532, 0.23545023542828858, 0.2519871386466548, 0.26740481081651524, 0.2852770088938996, 0.30216207180637866, 0.31689912592992187, 0.3352973182336427, 0.3519748506369069, 0.36740515218116343, 0.3853285501827486, 0.40217606647638604, 0.416886837920174, 0.43526011292124167, 0.4520287812920287, 0.46731060289312154, 0.48514457169221714, 0.5021296452032402, 0.5171035844250582, 0.5354096167720854, 0.5519615386729129, 0.5673519041738473, 0.5851288703852333, 0.6022279491298832, 0.6171650243340991, 0.6353782141814008, 0.6520106906536967, 0.6672877335804515, 0.6850906410836615, 0.7020129092852585, 0.7171011950704269, 0.7353601235081442, 0.751884397410322, 0.7673959361854941, 0.78523468360072, 0.8021832344820723, 0.8172203203430399, 0.8354246354429051, 0.8519144346937537, 0.867368629493285, 0.885297488886863, 0.9021968878223561, 0.9171291844104417, 0.9354478460736573, 0.9518775707692839, 0.9673167468863539, 0.9852244436042383, 1.0020798105397262, 1.0168407579767518, 1.0353109715506434]
21	筷子	False	inanimate	animate	left	0.901	[0.0, 0.0, 0.0, 0.0, 0.0, 0.0, 0.0, 0.0, 0.0, 0.0, 0.0, 0.0, 0.0, 0.0, 0.0, 0.0, 2.0, 3.0, 4.0, 4.0, 4.0, 4.0, 4.0, 4.0, 4.0, 4.0, 4.0, 5.0, 7.0, 16.0, 16.0, 17.0, 17.0, 3.0, -53.0, -83.0, -143.0, -244.0, -306.0, -335.0, -426.0, -483.0, -538.0, -586.0, -641.0, -659.0, -679.0, -694.0, -706.0, -726.0, -730.0, -733.0, -734.0, -735.0, -735.0]	[-490.0, -490.0, -490.0, -490.0, -490.0, -490.0, -490.0, -490.0, -490.0, -490.0, -490.0, -490.0, -490.0, -490.0, -490.0, -490.0, -490.0, -489.0, -488.0, -487.0, -487.0, -487.0, -487.0, -487.0, -487.0, -487.0, -487.0, -488.0, -491.0, -494.0, -494.0, -494.0, -482.0, -457.0, -380.0, -344.0, -276.0, -162.0, -82.0, -41.0, 89.0, 173.0, 250.0, 306.0, 356.0, 370.0, 388.0, 401.0, 420.0, 446.0, 452.0, 460.0, 466.0, 471.0, 472.0]	[0.015785697556566447, 0.022908976767212152, 0.030109397310297936, 0.048586778866592795, 0.06494550622301176, 0.08036625041859224, 0.09827019250951707, 0.11463711183751002, 0.13010427734116092, 0.14838675770442933, 0.16492366092279553, 0.1803645437466912, 0.1980527633568272, 0.21514774608658627, 0.23009676800575107, 0.2484499043202959, 0.26496598625089973, 0.2803403091384098, 0.29823264584410936, 0.31510746880667284, 0.3301083733094856, 0.34836491238093004, 0.3649277569493279, 0.38029081583954394, 0.3982060218695551, 0.4151948500657454, 0.43013841059291735, 0.44849734962917864, 0.4647956610424444, 0.4804194984026253, 0.4983244644245133, 0.5151433087303303, 0.5301001812913455, 0.5483324857777916, 0.5649496022379026, 0.580341333115939, 0.5983070564689115, 0.6150825514923781, 0.6301138346316293, 0.6483478457666934, 0.6648291116580367, 0.6803225597832352, 0.6980292113730684, 0.7150688981637359, 0.7300875519867986, 0.7483280484448187, 0.7646888237795793, 0.7802962771384045, 0.798165061918553, 0.8150446634972468, 0.8301384106162004, 0.8483611577539705, 0.8648055596859194, 0.8803078825003468, 0.8979189607780427]
22	帽子	False	animate	inanimate	right	1.168	[0.0, 0.0, 0.0, 0.0, 0.0, -1.0, -1.0, -1.0, -1.0, -1.0, 3.0, 4.0, 8.0, 12.0, 12.0, 12.0, 12.0, 12.0, 12.0, 12.0, 12.0, 12.0, 16.0, 21.0, 21.0, 11.0, -2.0, -10.0, -40.0, -105.0, -196.0, -329.0, -428.0, -526.0, -624.0, -701.0, -754.0, -791.0, -810.0, -822.0, -828.0, -828.0, -827.0, -817.0, -812.0, -808.0, -806.0, -805.0, -802.0, -789.0, -743.0, -622.0, -451.0, -244.0, -42.0, 217.0, 365.0, 433.0, 581.0, 631.0, 656.0, 677.0, 692.0, 702.0, 717.0, 737.0, 752.0, 766.0, 768.0, 768.0, 768.0]	[-490.0, -490.0, -490.0, -490.0, -490.0, -491.0, -491.0, -491.0, -491.0, -493.0, -494.0, -494.0, -496.0, -497.0, -497.0, -497.0, -497.0, -497.0, -497.0, -497.0, -497.0, -497.0, -499.0, -495.0, -489.0, -476.0, -462.0, -444.0, -406.0, -347.0, -272.0, -164.0, -79.0, 17.0, 127.0, 221.0, 297.0, 350.0, 377.0, 396.0, 409.0, 410.0, 417.0, 432.0, 440.0, 449.0, 456.0, 462.0, 464.0, 467.0, 471.0, 471.0, 448.0, 423.0, 398.0, 398.0, 416.0, 418.0, 441.0, 449.0, 457.0, 464.0, 473.0, 480.0, 491.0, 501.0, 508.0, 513.0, 513.0, 513.0, 513.0]	[0.008622140914667398, 0.013224334339611232, 0.018214964715298265, 0.034153852495364845, 0.05047230253694579, 0.06599169195396826, 0.0839546846691519, 0.10082677693571895, 0.11571196955628693, 0.13417262578150257, 0.15052213717717677, 0.16597633197670802, 0.1839451272971928, 0.20078581693815067, 0.2157942308112979, 0.23408114851918072, 0.25060508109163493, 0.2660070519777946, 0.2839161140145734, 0.3007793315919116, 0.31578399083809927, 0.3340596445486881, 0.3506426277454011, 0.36594492936274037, 0.3839594633318484, 0.40071106498362496, 0.4154767910949886, 0.4339196979999542, 0.45063033973565325, 0.4659333240124397, 0.4839103113627061, 0.50068648904562, 0.515665206941776, 0.5340422365698032, 0.5504791291896254, 0.5659855479607359, 0.5838352181017399, 0.6006646436871961, 0.6157481508562341, 0.6339691912871785, 0.6504593318677507, 0.6660463052685373, 0.6838478473946452, 0.7006960463477299, 0.7157501988695003, 0.7340258525800891, 0.7503524946514517, 0.7659759906237014, 0.7838379487511702, 0.8007301796460524, 0.8157348388340324, 0.8340248285676353, 0.8504688892280683, 0.8659667746396735, 0.8835853622877039, 0.900689902366139, 0.9158645453862846, 0.9339944499661215, 0.950461721222382, 0.9659435640205629, 0.9838475060532801, 1.0006714703631587, 1.0157682895078324, 1.0339702152996324, 1.0505023398436606, 1.0659544866648503, 1.0838403380475938, 1.1007056036614813, 1.1158051534439437, 1.1340524765546434, 1.1505330598447472]
23	新娘	True	animate	inanimate	left	0.767	[0.0, 0.0, 0.0, 0.0, 0.0, 0.0, 0.0, 0.0, 0.0, 0.0, 0.0, 0.0, 0.0, 0.0, 0.0, 0.0, -2.0, -3.0, -3.0, -10.0, -13.0, -14.0, -14.0, -14.0, -14.0, -15.0, -13.0, -13.0, -13.0, -18.0, -26.0, -90.0, -172.0, -278.0, -389.0, -502.0, -611.0, -709.0, -782.0, -830.0, -853.0, -861.0, -862.0, -862.0, -862.0, -862.0, -862.0]	[-490.0, -490.0, -490.0, -490.0, -490.0, -490.0, -490.0, -490.0, -490.0, -490.0, -490.0, -490.0, -490.0, -490.0, -490.0, -490.0, -490.0, -490.0, -490.0, -491.0, -491.0, -491.0, -491.0, -491.0, -491.0, -491.0, -491.0, -485.0, -477.0, -452.0, -435.0, -333.0, -237.0, -135.0, -32.0, 72.0, 181.0, 292.0, 373.0, 431.0, 467.0, 485.0, 487.0, 490.0, 490.0, 490.0, 490.0]	[0.014969570212997496, 0.01950520370155573, 0.028157313645351678, 0.04631998611148447, 0.06316955044167116, 0.07815031631616876, 0.09650515933753923, 0.11292088928166777, 0.12837952142581344, 0.14620905288029462, 0.1632067557075061, 0.1779550738283433, 0.19649116467917338, 0.21283965202746913, 0.2283955640741624, 0.2463496821001172, 0.2635153207811527, 0.27823769755195826, 0.2964792179991491, 0.3128372626961209, 0.32835528679424897, 0.34614249295555055, 0.36327843565959483, 0.37815987365320325, 0.39646522334078327, 0.4130666385171935, 0.42839522275608033, 0.44636128743877634, 0.463243278383743, 0.47814963362179697, 0.4964348446810618, 0.5128092733793892, 0.5283730361261405, 0.5462326048873365, 0.5632579557131976, 0.5782124389079399, 0.5963768180808984, 0.6129260092857294, 0.6283982947934419, 0.646231239545159, 0.6632460090331733, 0.6781482683145441, 0.6963297141483054, 0.7128765159868635, 0.7284116067457944, 0.7460612556897104, 0.7630869478452951]
24	衬衫	False	inanimate	animate	left	0.899	[0.0, 0.0, 0.0, 0.0, -6.0, -9.0, -10.0, -10.0, -10.0, -10.0, -10.0, -10.0, -10.0, -11.0, -11.0, -11.0, -12.0, -13.0, -13.0, -13.0, -13.0, -13.0, -13.0, -13.0, -13.0, -14.0, -10.0, -10.0, -8.0, -7.0, -11.0, -30.0, -46.0, -66.0, -101.0, -157.0, -249.0, -351.0, -523.0, -568.0, -654.0, -680.0, -684.0, -685.0, -686.0, -690.0, -699.0, -713.0, -724.0, -724.0, -724.0, -724.0, -724.0, -724.0]	[-490.0, -487.0, -485.0, -483.0, -477.0, -475.0, -475.0, -475.0, -475.0, -475.0, -475.0, -475.0, -475.0, -475.0, -475.0, -475.0, -475.0, -478.0, -479.0, -479.0, -479.0, -479.0, -479.0, -479.0, -479.0, -480.0, -481.0, -481.0, -473.0, -470.0, -465.0, -450.0, -433.0, -403.0, -351.0, -285.0, -199.0, -85.0, 69.0, 114.0, 192.0, 232.0, 255.0, 274.0, 286.0, 297.0, 306.0, 316.0, 321.0, 321.0, 329.0, 334.0, 349.0, 352.0]	[0.0014514164067804813, 0.006622953340411186, 0.01783335441723466, 0.03628718404797837, 0.05270223133265972, 0.0680321809486486, 0.08597810694482177, 0.10283415659796447, 0.11788728507235646, 0.1361977547639981, 0.1527090580202639, 0.16802091692807153, 0.18597162159858271, 0.202858732547611, 0.2178145811194554, 0.23617147211916745, 0.25268345803488046, 0.2680475409142673, 0.2860351095441729, 0.3028532712487504, 0.31781833578133956, 0.33614792017033324, 0.3527121299994178, 0.36811102885985747, 0.3860658295452595, 0.40294747916050255, 0.4178828477161005, 0.436103546875529, 0.4525633088196628, 0.46810181287582964, 0.4858924323343672, 0.5029676177655347, 0.5179422397050075, 0.536355450632982, 0.5525626261369325, 0.5680161382770166, 0.5859654776286334, 0.6029259751667269, 0.6176490345969796, 0.6359956855885684, 0.6526107540703379, 0.66801886894973, 0.6858750243554823, 0.702874775219243, 0.7178920637234114, 0.7361144695314579, 0.7525790101499297, 0.7680727995466441, 0.7858866297174245, 0.8028321085730568, 0.8178804583731107, 0.836093989550136, 0.8523926422931254, 0.8680400315788575]
25	蜻蜓	True	inanimate	animate	right	1.0	[0.0, 0.0, 0.0, 0.0, 0.0, 0.0, 0.0, 0.0, 2.0, 2.0, 2.0, 2.0, 2.0, 2.0, 2.0, -3.0, -9.0, -9.0, -6.0, -3.0, 3.0, 4.0, 11.0, 13.0, 13.0, 13.0, 13.0, 14.0, 15.0, 15.0, 15.0, 15.0, 15.0, 11.0, -13.0, -54.0, -125.0, -217.0, -337.0, -457.0, -577.0, -669.0, -714.0, -723.0, -724.0, -724.0, -707.0, -644.0, -500.0, -279.0, -28.0, 235.0, 552.0, 631.0, 748.0, 804.0, 818.0, 820.0, 820.0, 820.0, 820.0]	[-490.0, -490.0, -490.0, -490.0, -490.0, -490.0, -490.0, -489.0, -486.0, -486.0, -486.0, -486.0, -486.0, -485.0, -476.0, -473.0, -473.0, -474.0, -481.0, -488.0, -495.0, -498.0, -503.0, -503.0, -503.0, -503.0, -503.0, -502.0, -501.0, -501.0, -501.0, -501.0, -491.0, -485.0, -453.0, -407.0, -340.0, -261.0, -159.0, -70.0, 25.0, 106.0, 166.0, 194.0, 225.0, 252.0, 288.0, 315.0, 340.0, 347.0, 347.0, 368.0, 411.0, 421.0, 439.0, 448.0, 454.0, 456.0, 456.0, 456.0, 456.0]	[0.015160716720856726, 0.02197065221844241, 0.028844417014624923, 0.04731292393989861, 0.06365594995440915, 0.07907396351220086, 0.09705265745287761, 0.11380767251830548, 0.12882564368192106, 0.14723305200459436, 0.16368735261494294, 0.1790678194956854, 0.19700896687572822, 0.21400120836915448, 0.22886523831402883, 0.24714294006116688, 0.2636900832876563, 0.27903129684273154, 0.29708167078206316, 0.3138564831460826, 0.3288474890287034, 0.34715795872034505, 0.36354535806458443, 0.3790422194870189, 0.3969884868711233, 0.4139424990862608, 0.42889015562832355, 0.4471746840281412, 0.46380989119643345, 0.4790770355029963, 0.4970400281599723, 0.5139568350277841, 0.5288802569848485, 0.547144646756351, 0.5636784779489972, 0.5790272008744068, 0.5971359427203424, 0.6137441845494322, 0.6289986995398067, 0.647063750831876, 0.6635907553718425, 0.679011499567423, 0.6969348975690082, 0.713841805816628, 0.728815745038446, 0.7471231427625753, 0.7633917581988499, 0.7790896648075432, 0.7969639108632691, 0.8139117790851742, 0.8286409825086594, 0.8471763907000422, 0.8635852940496989, 0.8790725981816649, 0.8969318255549297, 0.9137793418485671, 0.928879915678408, 0.9472057453240268, 0.9636364940088242, 0.9790213981759734, 0.996740679081995]
26	钢笔	False	inanimate	animate	left	0.884	[0.0, 0.0, 0.0, 0.0, 0.0, 0.0, 0.0, 0.0, 0.0, 0.0, 0.0, 0.0, 0.0, 0.0, 0.0, 0.0, 0.0, 0.0, 0.0, 3.0, 3.0, 4.0, 4.0, 4.0, 4.0, 4.0, 4.0, 4.0, 4.0, 4.0, 4.0, 4.0, 9.0, 11.0, 11.0, 9.0, 4.0, -7.0, -36.0, -97.0, -181.0, -281.0, -398.0, -520.0, -678.0, -719.0, -801.0, -831.0, -848.0, -852.0, -852.0, -852.0, -852.0, -852.0]	[-490.0, -490.0, -490.0, -490.0, -490.0, -490.0, -490.0, -490.0, -490.0, -490.0, -490.0, -490.0, -490.0, -490.0, -490.0, -490.0, -490.0, -491.0, -494.0, -498.0, -498.0, -498.0, -498.0, -498.0, -498.0, -498.0, -498.0, -498.0, -498.0, -498.0, -498.0, -498.0, -498.0, -498.0, -498.0, -492.0, -479.0, -460.0, -428.0, -354.0, -249.0, -131.0, -2.0, 123.0, 287.0, 332.0, 432.0, 474.0, 499.0, 511.0, 520.0, 524.0, 525.0, 525.0]	[0.01647621428128332, 0.020952455757651478, 0.029938730760477483, 0.04829493910074234, 0.06510763941332698, 0.08009318396216258, 0.09841628302820027, 0.11493134091142565, 0.13029678916791454, 0.1483587683760561, 0.1651544020860456, 0.1802259625401348, 0.1984599736169912, 0.21505592745961621, 0.23030429845675826, 0.24828435777453706, 0.2651503060478717, 0.2800802133278921, 0.2985087842680514, 0.3148344023502432, 0.3302903037983924, 0.34825841645943, 0.3651455274084583, 0.3801232213154435, 0.39842822967329994, 0.41497707954840735, 0.4303739304305054, 0.4482577338349074, 0.4651530367555097, 0.48012526927050203, 0.49856134958099574, 0.5149839062360115, 0.5302500264951959, 0.5482836751034483, 0.5651875113835558, 0.5799061334691942, 0.5983132004621439, 0.6150176982046105, 0.6302752851624973, 0.6482266724924557, 0.6650864767725579, 0.6800921600079164, 0.6983620110549964, 0.7148094850126654, 0.7302701651933603, 0.7481795685598627, 0.7650973994168453, 0.7798446935485117, 0.7982292324886657, 0.8148576130042784, 0.8303602770902216, 0.8482236005365849, 0.8650806741206907, 0.8800907946424559]
27	家庭	True	inanimate	animate	left	0.922	[0.0, 0.0, 0.0, 0.0, 0.0, 0.0, 0.0, 0.0, 0.0, 0.0, 0.0, 0.0, 0.0, 0.0, 0.0, 0.0, 0.0, 0.0, 0.0, -1.0, -5.0, -8.0, -9.0, -9.0, -9.0, -9.0, -9.0, -9.0, -9.0, -9.0, 0.0, 9.0, 10.0, 7.0, 1.0, -11.0, -35.0, -128.0, -209.0, -288.0, -362.0, -441.0, -531.0, -624.0, -703.0, -760.0, -803.0, -830.0, -846.0, -853.0, -853.0, -853.0, -853.0, -852.0, -850.0, -849.0]	[-490.0, -490.0, -490.0, -490.0, -490.0, -490.0, -490.0, -490.0, -490.0, -490.0, -490.0, -490.0, -490.0, -490.0, -490.0, -490.0, -490.0, -490.0, -490.0, -490.0, -490.0, -490.0, -490.0, -490.0, -490.0, -490.0, -490.0, -490.0, -494.0, -497.0, -503.0, -503.0, -502.0, -492.0, -481.0, -463.0, -430.0, -321.0, -250.0, -180.0, -106.0, -17.0, 91.0, 186.0, 261.0, 310.0, 349.0, 373.0, 399.0, 434.0, 452.0, 458.0, 473.0, 481.0, 486.0, 490.0]	[0.008369554474484175, 0.013455758162308484, 0.024757636536378413, 0.043425823270808905, 0.059788305312395096, 0.07516365218907595, 0.09312459680950269, 0.10993627313291654, 0.12467196193756536, 0.14321522077079862, 0.15976953197969124, 0.17516058014007285, 0.19293037831084803, 0.2099570944556035, 0.22497301764087752, 0.243277684727218, 0.2597678253077902, 0.2751581908087246, 0.29315429279813543, 0.3098734678933397, 0.3249184043961577, 0.34319303411757573, 0.35976543597644195, 0.3751226922031492, 0.393021855619736, 0.40991511050378904, 0.42499486298765987, 0.4433613112778403, 0.4597261826856993, 0.47515580151230097, 0.49305906088557094, 0.5099123798427172, 0.5250204629264772, 0.5432220474467613, 0.5596271961112507, 0.5751534121809527, 0.5931815994554199, 0.6098959958762862, 0.6248122497927397, 0.643327860685531, 0.6596490414231084, 0.6751342975185253, 0.6930365329026245, 0.7098403585841879, 0.7248805164126679, 0.7431578768300824, 0.7596452867146581, 0.775112452218309, 0.792993183596991, 0.8098359212162904, 0.824695513874758, 0.8431838180986233, 0.8595855534658767, 0.8751127935247496, 0.893073738203384, 0.9099260331713594]
28	毛驴	True	animate	inanimate	left	0.864	[0.0, 0.0, 0.0, 0.0, 0.0, 0.0, -1.0, -1.0, 0.0, 1.0, 6.0, 7.0, 7.0, 7.0, 7.0, 7.0, 7.0, 7.0, 7.0, 7.0, 7.0, 7.0, 7.0, 2.0, -19.0, -60.0, -112.0, -177.0, -258.0, -346.0, -424.0, -505.0, -612.0, -643.0, -698.0, -700.0, -698.0, -686.0, -667.0, -618.0, -540.0, -481.0, -454.0, -453.0, -472.0, -491.0, -572.0, -627.0, -686.0, -746.0, -792.0, -811.0]	[-490.0, -490.0, -490.0, -490.0, -490.0, -490.0, -489.0, -488.0, -485.0, -484.0, -484.0, -484.0, -484.0, -484.0, -484.0, -484.0, -484.0, -484.0, -484.0, -484.0, -484.0, -484.0, -484.0, -477.0, -455.0, -422.0, -376.0, -314.0, -241.0, -167.0, -103.0, -30.0, 72.0, 108.0, 192.0, 214.0, 233.0, 252.0, 270.0, 292.0, 308.0, 316.0, 326.0, 333.0, 351.0, 353.0, 368.0, 384.0, 409.0, 437.0, 458.0, 465.0]	[0.013828698603902012, 0.020548863511066884, 0.025799931026995182, 0.04453024035319686, 0.06084595981519669, 0.0762919625849463, 0.09425666194874793, 0.11113216757075861, 0.126034768181853, 0.14435752585995942, 0.16085619980003685, 0.17623973864829168, 0.19417849666206166, 0.21103147428948432, 0.2258494243142195, 0.24436264584073797, 0.2609203704050742, 0.27631346660200506, 0.29424027795903385, 0.3111014475580305, 0.3260668534785509, 0.34437459253240377, 0.36086029576836154, 0.3762281333329156, 0.3943242458626628, 0.41118848748737946, 0.42610747209982947, 0.44437766453484073, 0.4608087544911541, 0.4762653386569582, 0.4939665288547985, 0.5110331809846684, 0.5260378401726484, 0.5442592219333164, 0.5605459280195646, 0.5762168693472631, 0.5941098887124099, 0.6109884663601406, 0.6260760694858618, 0.6444001924828626, 0.660719666571822, 0.6762458826415241, 0.6942453979281709, 0.7111294369096868, 0.7260600267909467, 0.7443660591961816, 0.7605759653379209, 0.7762987892492674, 0.7941006727633066, 0.8111772235133685, 0.8260917707812041, 0.8444022404728457]
29	冰块	False	inanimate	animate	left	0.899	[0.0, 0.0, 0.0, 0.0, 0.0, 0.0, 0.0, 0.0, 0.0, 0.0, 0.0, 0.0, 0.0, 0.0, 0.0, 0.0, 0.0, 0.0, 0.0, 0.0, 0.0, 0.0, 0.0, 0.0, 0.0, 0.0, 0.0, 0.0, 0.0, 0.0, 0.0, 0.0, -6.0, -19.0, -39.0, -70.0, -125.0, -195.0, -292.0, -396.0, -506.0, -616.0, -718.0, -806.0, -834.0, -842.0, -848.0, -853.0, -853.0, -853.0, -852.0, -847.0, -830.0, -822.0]	[-490.0, -490.0, -490.0, -490.0, -490.0, -490.0, -490.0, -490.0, -490.0, -490.0, -490.0, -490.0, -490.0, -490.0, -490.0, -489.0, -489.0, -489.0, -489.0, -489.0, -489.0, -489.0, -489.0, -489.0, -489.0, -489.0, -489.0, -489.0, -489.0, -489.0, -489.0, -487.0, -482.0, -473.0, -460.0, -436.0, -392.0, -332.0, -252.0, -171.0, -75.0, 18.0, 105.0, 184.0, 216.0, 232.0, 265.0, 292.0, 312.0, 328.0, 338.0, 345.0, 358.0, 363.0]	[0.002019735984504223, 0.007207998191006482, 0.01885291625512764, 0.0374091457342729, 0.05362348927883431, 0.06909167871344835, 0.08709699666360393, 0.10389775037765503, 0.1188628149102442, 0.13730299117742106, 0.1537105292081833, 0.16919988131849095, 0.18705433007562533, 0.20391106233000755, 0.21890684688696638, 0.23734360979869962, 0.2536880011903122, 0.2691828146344051, 0.28704306605504826, 0.3038711263798177, 0.31889251089887694, 0.3371592899784446, 0.353708139853552, 0.36910840403288603, 0.38704921008320525, 0.4038912650430575, 0.41873208433389664, 0.4371050180052407, 0.45375524379778653, 0.4692128519527614, 0.4870638874126598, 0.5038663477171212, 0.5189505374873988, 0.5373302978114225, 0.5536415799288079, 0.5691401479998603, 0.5870857327245176, 0.6038776116911322, 0.6188675935845822, 0.637070543365553, 0.6536316812271252, 0.6691060147131793, 0.6869935728027485, 0.7038714677328244, 0.7189010442234576, 0.7371975192800164, 0.7536238305619918, 0.7691520946682431, 0.7869420314673334, 0.8038427957217209, 0.8188856842461973, 0.8370790766784921, 0.8536675212089904, 0.8690886067342944]
30	护士	True	animate	inanimate	left	0.832	[0.0, 0.0, 0.0, 0.0, 0.0, 0.0, 0.0, 0.0, 0.0, 0.0, 0.0, 0.0, 0.0, 0.0, 1.0, 0.0, -1.0, -1.0, 0.0, 2.0, 2.0, 2.0, 2.0, 2.0, 2.0, 2.0, 2.0, 2.0, 2.0, 1.0, 1.0, 2.0, -8.0, -29.0, -48.0, -90.0, -142.0, -211.0, -291.0, -397.0, -565.0, -687.0, -790.0, -841.0, -857.0, -859.0, -859.0, -857.0, -856.0, -856.0]	[-490.0, -490.0, -490.0, -490.0, -490.0, -490.0, -490.0, -490.0, -490.0, -490.0, -490.0, -490.0, -490.0, -490.0, -492.0, -492.0, -494.0, -494.0, -495.0, -495.0, -495.0, -495.0, -495.0, -495.0, -495.0, -495.0, -495.0, -495.0, -495.0, -502.0, -504.0, -504.0, -498.0, -484.0, -465.0, -414.0, -357.0, -284.0, -187.0, -69.0, 119.0, 231.0, 333.0, 390.0, 420.0, 439.0, 454.0, 463.0, 465.0, 465.0]	[0.016209496650844812, 0.02105710847536102, 0.030621943005826324, 0.04909318056888878, 0.06555806251708418, 0.08088118542218581, 0.09882574615767226, 0.1157172943931073, 0.1306960122892633, 0.1490634845686145, 0.16556796117220074, 0.1808450041571632, 0.1989049353869632, 0.21571661171037704, 0.23068679624702781, 0.24900648195762187, 0.2654925265815109, 0.28083715349202976, 0.29887353273807094, 0.3157732730032876, 0.3306943055940792, 0.34909898322075605, 0.3655304145650007, 0.3808586574741639, 0.3988393994513899, 0.41572992369765416, 0.4307123962789774, 0.44905870594084263, 0.46556557185249403, 0.48088425741298124, 0.4988888927618973, 0.5157910223351792, 0.5307144442340359, 0.548941970046144, 0.5655246118549258, 0.580875382758677, 0.5986421089619398, 0.6157316303579137, 0.6306588069419377, 0.6489699593512341, 0.6655215398641303, 0.6808958627516404, 0.6987308555399068, 0.7156544891186059, 0.7307530149118975, 0.7488825781038031, 0.7653805693262257, 0.7809081507730298, 0.7987602101638913, 0.8156234277994372]
31	狐狸	True	inanimate	animate	right	0.833	[0.0, 0.0, 0.0, 0.0, 0.0, 1.0, -2.0, -9.0, -10.0, -10.0, -10.0, -10.0, -10.0, -10.0, -10.0, -10.0, -10.0, -10.0, -7.0, -5.0, -4.0, -4.0, -4.0, -4.0, -4.0, -4.0, -5.0, -5.0, -6.0, -6.0, -10.0, -29.0, -75.0, -129.0, -174.0, -184.0, -184.0, -163.0, -27.0, 49.0, 313.0, 479.0, 614.0, 716.0, 778.0, 809.0, 823.0, 832.0, 839.0, 844.0, 848.0]	[-490.0, -490.0, -490.0, -490.0, -490.0, -490.0, -491.0, -495.0, -495.0, -495.0, -495.0, -496.0, -496.0, -496.0, -494.0, -494.0, -494.0, -494.0, -492.0, -491.0, -490.0, -489.0, -488.0, -488.0, -488.0, -488.0, -489.0, -489.0, -489.0, -489.0, -479.0, -450.0, -390.0, -325.0, -276.0, -265.0, -249.0, -220.0, -118.0, -71.0, 69.0, 137.0, 200.0, 261.0, 311.0, 347.0, 377.0, 399.0, 416.0, 430.0, 442.0]	[0.007500861887820065, 0.011739535606466234, 0.01580139878205955, 0.03203861159272492, 0.04837549367221072, 0.06372865388402715, 0.08156432933174074, 0.098514586861711, 0.11362813133746386, 0.1318406384671107, 0.1483710563625209, 0.1637453791918233, 0.18167287326650694, 0.19854086951818317, 0.21352129406295717, 0.23180957714794204, 0.2482597817433998, 0.2637931658537127, 0.2816459079622291, 0.2986364428070374, 0.3135564514086582, 0.3318959344178438, 0.3483847096795216, 0.3637825845507905, 0.38176161982119083, 0.39862859214190394, 0.41328338492894545, 0.43178056384203956, 0.44839017099002376, 0.4637962378328666, 0.4816534172859974, 0.49861050146864727, 0.5136011660215445, 0.5318181104375981, 0.5483096163952723, 0.5637143179192208, 0.5816824305802584, 0.5984582669334486, 0.6135629367199726, 0.6317467718617991, 0.6482802617247216, 0.6637115872581489, 0.6816298653138801, 0.6984828428830951, 0.7135881953290664, 0.7318751130951568, 0.7481727418489754, 0.7637720031780191, 0.7816401052987203, 0.7984801122220233, 0.8135544033721089]
32	母猪	True	animate	inanimate	left	1.233	[0.0, 0.0, 0.0, 0.0, 0.0, 0.0, 0.0, 0.0, 0.0, 0.0, -1.0, -1.0, -2.0, -2.0, -2.0, -2.0, -2.0, -2.0, -2.0, -2.0, -2.0, -2.0, -2.0, -2.0, -2.0, -2.0, -2.0, -2.0, -2.0, -2.0, -6.0, -20.0, -43.0, -87.0, -136.0, -181.0, -217.0, -257.0, -308.0, -333.0, -406.0, -451.0, -484.0, -516.0, -546.0, -577.0, -605.0, -620.0, -634.0, -644.0, -666.0, -676.0, -691.0, -692.0, -692.0, -692.0, -692.0, -692.0, -692.0, -692.0, -692.0, -692.0, -676.0, -667.0, -619.0, -594.0, -583.0, -579.0, -582.0, -608.0, -671.0, -696.0, -737.0, -761.0, -772.0]	[-490.0, -490.0, -490.0, -490.0, -490.0, -490.0, -490.0, -490.0, -490.0, -490.0, -497.0, -500.0, -501.0, -501.0, -502.0, -502.0, -502.0, -502.0, -502.0, -502.0, -502.0, -502.0, -502.0, -502.0, -502.0, -502.0, -502.0, -502.0, -500.0, -499.0, -492.0, -477.0, -457.0, -420.0, -385.0, -350.0, -315.0, -267.0, -205.0, -176.0, -80.0, -41.0, -5.0, 23.0, 56.0, 91.0, 130.0, 158.0, 189.0, 219.0, 273.0, 294.0, 325.0, 330.0, 330.0, 332.0, 332.0, 332.0, 332.0, 332.0, 332.0, 328.0, 299.0, 289.0, 242.0, 229.0, 228.0, 231.0, 255.0, 294.0, 365.0, 393.0, 439.0, 462.0, 475.0]	[0.007853117538616061, 0.012904163915663958, 0.01694110978860408, 0.032738003006670624, 0.049010714457836, 0.06444920791545883, 0.08246783789945766, 0.09925425553228706, 0.11420873878523707, 0.13261853641597554, 0.14907044771825895, 0.16449699457734823, 0.18247534718830138, 0.19936006877105683, 0.21427017875248566, 0.2325748457806185, 0.24888476252090186, 0.26446081325411797, 0.28238933125976473, 0.2992532315547578, 0.31425413611577824, 0.3325867924722843, 0.34913461830001324, 0.3644464772660285, 0.3824019606108777, 0.3992556208977476, 0.4142657414195128, 0.4325461738044396, 0.4490421170485206, 0.46442975191166624, 0.48227020603371784, 0.4992310449015349, 0.5143056773813441, 0.5325366164906882, 0.5490144690847956, 0.5644099546479993, 0.5824145899387076, 0.5991972529445775, 0.6142807600554079, 0.6324639125377871, 0.6490458717453294, 0.6644468185841106, 0.6823258433141746, 0.6991658502956852, 0.7143657520064153, 0.7325168191455305, 0.7489264051546343, 0.7644048346555792, 0.7822981953504495, 0.7991945222602226, 0.814243896107655, 0.8324826858588494, 0.8489554184488952, 0.8644475012551993, 0.8823255019960925, 0.899248794245068, 0.9139844829915091, 0.9325099925044924, 0.9487724639475346, 0.9644898265833035, 0.9821940888068639, 0.9991521969786845, 1.014225122751668, 1.0324372885515913, 1.0489735091105103, 1.0644362372695468, 1.0823186753550544, 1.0990306824096479, 1.1142391174216755, 1.1324860992026515, 1.1489441544981673, 1.1644236079300754, 1.1821302595199086, 1.1991993009578437, 1.2142514054430649]
33	炸弹	False	inanimate	animate	left	1.078	[0.0, 0.0, 0.0, 0.0, 0.0, 0.0, 1.0, 3.0, 13.0, 25.0, 37.0, 43.0, 47.0, 48.0, 48.0, 48.0, 50.0, 52.0, 54.0, 55.0, 55.0, 55.0, 55.0, 55.0, 55.0, 52.0, 47.0, 43.0, 19.0, -17.0, -65.0, -112.0, -149.0, -188.0, -213.0, -245.0, -282.0, -340.0, -380.0, -395.0, -430.0, -448.0, -472.0, -497.0, -513.0, -516.0, -513.0, -489.0, -434.0, -247.0, -74.0, 2.0, 137.0, 141.0, 131.0, 27.0, -127.0, -300.0, -581.0, -669.0, -788.0, -853.0, -858.0, -858.0, -858.0]	[-490.0, -490.0, -490.0, -490.0, -490.0, -490.0, -491.0, -491.0, -495.0, -502.0, -508.0, -512.0, -512.0, -514.0, -514.0, -514.0, -513.0, -512.0, -508.0, -507.0, -507.0, -506.0, -502.0, -501.0, -494.0, -470.0, -447.0, -433.0, -380.0, -324.0, -262.0, -202.0, -147.0, -97.0, -50.0, 4.0, 56.0, 129.0, 170.0, 185.0, 225.0, 248.0, 278.0, 309.0, 327.0, 332.0, 335.0, 342.0, 349.0, 353.0, 353.0, 353.0, 353.0, 353.0, 351.0, 332.0, 329.0, 329.0, 366.0, 382.0, 414.0, 439.0, 442.0, 443.0, 443.0]	[0.0025935167213901877, 0.007767101633362472, 0.02013598708435893, 0.03853042470291257, 0.055047189292963594, 0.07032081892248243, 0.088345592841506, 0.10516136517981067, 0.12008615245576948, 0.13839320879196748, 0.1549540053238161, 0.17036212020320818, 0.18821486231172457, 0.20511118922149763, 0.22013189108110964, 0.23841846745926887, 0.2549226027331315, 0.27032354957191274, 0.2882619662559591, 0.305173653177917, 0.3200892244349234, 0.338423928769771, 0.35497789864894, 0.3703197949216701, 0.3882766435854137, 0.40511391987092793, 0.42028753890190274, 0.4384471394587308, 0.4549116800772026, 0.4704723707982339, 0.4884056674782187, 0.5050743252504617, 0.5202284883125685, 0.5383505421923473, 0.5549249920295551, 0.570313309552148, 0.588177656987682, 0.6050541865988635, 0.6201131177367643, 0.6383785314974375, 0.6548823253833689, 0.6703351548640057, 0.6882336356211454, 0.7051033385796472, 0.7201745577040128, 0.7383754595066421, 0.7549738026573323, 0.7703235495719127, 0.7881561529939063, 0.8050664745969698, 0.8200858110794798, 0.8383474701549858, 0.8548516054288484, 0.8703358375350945, 0.8882496782462113, 0.9050818345858715, 0.9200933204265311, 0.9383208461804315, 0.9548256641137414, 0.9703324242145754, 0.987932238553185, 1.0050651092315093, 1.02003836579388, 1.0382918328978121, 1.0548696960904635]
34	兔子	True	inanimate	animate	right	0.88	[0.0, 0.0, 0.0, 0.0, 0.0, 0.0, 0.0, 0.0, 0.0, -1.0, -1.0, -1.0, -1.0, -1.0, -1.0, -1.0, -1.0, -1.0, -1.0, -1.0, -1.0, -1.0, -1.0, -1.0, -4.0, -15.0, -25.0, -67.0, -141.0, -230.0, -324.0, -424.0, -521.0, -633.0, -784.0, -830.0, -840.0, -847.0, -851.0, -851.0, -842.0, -779.0, -614.0, -347.0, -54.0, 211.0, 526.0, 683.0, 745.0, 878.0, 912.0, 923.0, 924.0, 924.0]	[-490.0, -490.0, -490.0, -490.0, -490.0, -490.0, -490.0, -488.0, -488.0, -486.0, -483.0, -482.0, -482.0, -482.0, -482.0, -482.0, -482.0, -482.0, -482.0, -482.0, -482.0, -482.0, -482.0, -482.0, -478.0, -464.0, -440.0, -385.0, -315.0, -234.0, -157.0, -69.0, 26.0, 136.0, 283.0, 334.0, 350.0, 384.0, 405.0, 425.0, 442.0, 454.0, 461.0, 461.0, 461.0, 461.0, 461.0, 461.0, 461.0, 471.0, 478.0, 481.0, 481.0, 481.0]	[0.013770467252470553, 0.019692936853971332, 0.02598780079279095, 0.04447098501259461, 0.060765200469177216, 0.07623100059572607, 0.09418614261085168, 0.11101454426534474, 0.12574033433338627, 0.14426516118692234, 0.16083756304578856, 0.17619140597525984, 0.19401513476623222, 0.21101625089067966, 0.22586184891406447, 0.24418597191106528, 0.26086248038336635, 0.2762122272979468, 0.294295369181782, 0.3111282081226818, 0.3260966860689223, 0.3443894064403139, 0.36085155769251287, 0.37621666461927816, 0.39422744390321895, 0.4111046561738476, 0.42579870228655636, 0.444202697253786, 0.4609228963381611, 0.4761777526582591, 0.4941680519259535, 0.5108606030698866, 0.5258065529633313, 0.544204062607605, 0.5607027364894748, 0.5761562486295588, 0.5940758920041844, 0.6108752803411335, 0.6259680034709163, 0.6442262492491864, 0.6606986405095086, 0.6761924299644306, 0.6938939615502022, 0.7109223843435757, 0.7259553741896525, 0.7442501425393857, 0.7607051258673891, 0.7761815073317848, 0.7940618973807432, 0.8109858722891659, 0.8257444303599186, 0.8441904092906043, 0.8608157177222893, 0.8763221364933997]
35	鸭子	True	animate	inanimate	left	0.827	[0.0, 0.0, 0.0, 0.0, 0.0, 0.0, 0.0, 0.0, 0.0, 0.0, 2.0, 2.0, 2.0, 2.0, 1.0, 0.0, -2.0, -2.0, -6.0, -13.0, -17.0, -19.0, -20.0, -20.0, -20.0, -20.0, -20.0, -20.0, -20.0, -20.0, -9.0, -5.0, -20.0, -32.0, -87.0, -143.0, -227.0, -337.0, -445.0, -545.0, -629.0, -695.0, -743.0, -774.0, -789.0, -797.0, -799.0, -799.0, -799.0, -799.0]	[-490.0, -490.0, -490.0, -490.0, -490.0, -490.0, -490.0, -490.0, -490.0, -490.0, -496.0, -496.0, -496.0, -496.0, -494.0, -493.0, -493.0, -494.0, -496.0, -498.0, -498.0, -498.0, -498.0, -498.0, -498.0, -498.0, -498.0, -498.0, -498.0, -499.0, -502.0, -495.0, -469.0, -455.0, -378.0, -302.0, -190.0, -61.0, 63.0, 171.0, 268.0, 343.0, 409.0, 457.0, 484.0, 499.0, 506.0, 506.0, 506.0, 506.0]	[0.0074609259609133005, 0.012335161794908345, 0.01607344124931842, 0.031962153036147356, 0.048334875085856766, 0.06365595001261681, 0.08159368403721601, 0.09849547228077427, 0.11341957683907822, 0.1317720305523835, 0.14825193112483248, 0.16360201936913654, 0.18159709736937657, 0.19846816564677283, 0.21339261153480038, 0.23179114516824484, 0.24824681115569547, 0.2635900726891123, 0.2817769798566587, 0.2983394830371253, 0.31340148620074615, 0.3317293638829142, 0.3481314405798912, 0.3636300087091513, 0.38158446800662205, 0.3984657762921415, 0.4134414221625775, 0.4317174172610976, 0.44831234705634415, 0.46357983275083825, 0.4813922975445166, 0.4984405176364817, 0.5134202595218085, 0.5316505159717053, 0.5482055098400451, 0.5635658380924724, 0.5815278067602776, 0.598360987030901, 0.6134137741755694, 0.6316529053146951, 0.6481208592304029, 0.6635678860475309, 0.6814240415114909, 0.6983442617347464, 0.713378275569994, 0.7316064839833416, 0.7481468005571514, 0.7636132833431475, 0.7813905908842571, 0.7984227683045901]
36	船长	True	animate	inanimate	left	0.914	[0.0, 0.0, 0.0, 0.0, 0.0, 0.0, 5.0, 16.0, 29.0, 32.0, 32.0, 32.0, 33.0, 33.0, 33.0, 33.0, 33.0, 33.0, 33.0, 32.0, 31.0, 30.0, 30.0, 30.0, 30.0, 30.0, 30.0, 30.0, 30.0, 30.0, 28.0, 26.0, 14.0, -32.0, -108.0, -214.0, -258.0, -418.0, -526.0, -638.0, -729.0, -804.0, -857.0, -888.0, -898.0, -900.0, -900.0, -894.0, -892.0, -880.0, -870.0, -858.0, -853.0, -851.0, -851.0]	[-490.0, -490.0, -490.0, -490.0, -490.0, -490.0, -490.0, -490.0, -490.0, -490.0, -490.0, -490.0, -490.0, -490.0, -490.0, -490.0, -490.0, -489.0, -489.0, -488.0, -488.0, -489.0, -489.0, -489.0, -489.0, -489.0, -489.0, -489.0, -490.0, -490.0, -490.0, -470.0, -456.0, -419.0, -353.0, -242.0, -206.0, -67.0, 25.0, 114.0, 185.0, 253.0, 307.0, 349.0, 372.0, 385.0, 390.0, 397.0, 399.0, 407.0, 412.0, 417.0, 420.0, 420.0, 420.0]	[0.015122487384360284, 0.020010035193990916, 0.028308524168096483, 0.046511473949067295, 0.06351259007351473, 0.07851895596832037, 0.0968297669896856, 0.11346770479576662, 0.1287136864848435, 0.14666814578231424, 0.1635337527259253, 0.17854831059230492, 0.19677788438275456, 0.21326870762277395, 0.2287273397669196, 0.24667565512936562, 0.26352453674189746, 0.27854660392040387, 0.2968922309228219, 0.31335335824405774, 0.3286867211572826, 0.3466660978156142, 0.36356413137400523, 0.37848140933783725, 0.3967645724187605, 0.4133697422221303, 0.4287000331678428, 0.44664766581263393, 0.46355116076301783, 0.4784698039875366, 0.49693967623170465, 0.5134212835109793, 0.5287437237566337, 0.5465462899301201, 0.563579150068108, 0.5783284921199083, 0.5967546737520024, 0.6131598224164918, 0.6286993504618295, 0.646460615331307, 0.6634869901463389, 0.6783513614209369, 0.6967959750327282, 0.7131007717689499, 0.7286942304926924, 0.7465749618713744, 0.7634139448637143, 0.7784933559596539, 0.7967103004339151, 0.8132888462860137, 0.8286672651884146, 0.8465753032360226, 0.8634627554565668, 0.8785070092999376, 0.8968502469942905]
37	和尚	True	animate	inanimate	left	0.85	[0.0, 0.0, 0.0, 0.0, 0.0, 0.0, 0.0, 0.0, 1.0, 1.0, 1.0, 1.0, 1.0, 1.0, 1.0, 1.0, 1.0, 1.0, 1.0, 0.0, 0.0, 0.0, 0.0, 0.0, 0.0, 0.0, 0.0, 0.0, 1.0, 3.0, 4.0, 4.0, -1.0, -5.0, -48.0, -122.0, -216.0, -321.0, -450.0, -570.0, -673.0, -733.0, -771.0, -794.0, -812.0, -817.0, -828.0, -832.0, -834.0, -834.0, -829.0, -827.0]	[-490.0, -490.0, -490.0, -490.0, -490.0, -490.0, -490.0, -490.0, -489.0, -489.0, -490.0, -490.0, -490.0, -490.0, -490.0, -490.0, -490.0, -488.0, -488.0, -487.0, -487.0, -487.0, -487.0, -487.0, -487.0, -487.0, -487.0, -489.0, -493.0, -493.0, -493.0, -493.0, -487.0, -481.0, -426.0, -354.0, -270.0, -182.0, -70.0, 24.0, 114.0, 172.0, 222.0, 266.0, 308.0, 321.0, 352.0, 371.0, 389.0, 399.0, 405.0, 407.0]	[0.01420157088432461, 0.020078643166925758, 0.026684802898671478, 0.046184818260371685, 0.06173970631789416, 0.07716318115126342, 0.09513914445415139, 0.11199314607074484, 0.12676672282395884, 0.14517003513174132, 0.16160385578405112, 0.1771167598781176, 0.19510398717829958, 0.2119303407962434, 0.22698415198829025, 0.24522123509086668, 0.2615407091216184, 0.27711505320621654, 0.2950391338672489, 0.3119371674838476, 0.3269244186813012, 0.34528438170673326, 0.36172502901172265, 0.3771252931910567, 0.39505312853725627, 0.41193307150388137, 0.42688482406083494, 0.4452673150226474, 0.4617810075869784, 0.47716215712716803, 0.49500534194521606, 0.5119631087873131, 0.5268861894146539, 0.5451973417657427, 0.5616216050693765, 0.577150551835075, 0.5949544833274558, 0.611879140837118, 0.6269319280399941, 0.6452051924425177, 0.6614325065747835, 0.677164887834806, 0.6949411713285372, 0.7119607194326818, 0.7268670747289434, 0.7451481897733174, 0.7616577863809653, 0.7771160771953873, 0.7950169472605921, 0.8118654875434004, 0.8268537627300248, 0.8452324990648776]
38	钉子	False	animate	inanimate	right	0.899	[0.0, 0.0, 0.0, 0.0, 0.0, -1.0, -10.0, -12.0, -12.0, -12.0, -12.0, -12.0, -12.0, -13.0, -15.0, -16.0, -16.0, -16.0, -14.0, -13.0, -12.0, -12.0, -12.0, -12.0, -12.0, -12.0, -12.0, -12.0, -12.0, -14.0, -14.0, -18.0, -19.0, -19.0, -21.0, -35.0, -61.0, -177.0, -273.0, -331.0, -336.0, -296.0, -185.0, 2.0, 237.0, 461.0, 647.0, 790.0, 882.0, 937.0, 942.0, 944.0, 944.0, 944.0, 944.0]	[-490.0, -490.0, -490.0, -490.0, -490.0, -489.0, -489.0, -489.0, -489.0, -489.0, -489.0, -489.0, -489.0, -489.0, -489.0, -491.0, -493.0, -495.0, -495.0, -495.0, -495.0, -495.0, -495.0, -494.0, -494.0, -494.0, -494.0, -494.0, -494.0, -494.0, -494.0, -496.0, -496.0, -496.0, -488.0, -462.0, -405.0, -262.0, -149.0, -70.0, -25.0, 57.0, 157.0, 252.0, 324.0, 361.0, 390.0, 423.0, 450.0, 478.0, 489.0, 496.0, 511.0, 521.0, 528.0]	[0.015157986024860293, 0.022718171530868858, 0.028559745231177658, 0.04720233200350776, 0.06364127260167152, 0.07903061417164281, 0.09703832148807123, 0.11393328302074224, 0.12853073194855824, 0.1470511214574799, 0.1635139554273337, 0.17902481148485094, 0.19698370818514377, 0.21378377918154, 0.2287703477195464, 0.24717775598401204, 0.2636924725957215, 0.2788974942523055, 0.2969488921808079, 0.31381313380552456, 0.32874986773822457, 0.3470009454758838, 0.363549112691544, 0.3790534834843129, 0.3970157934818417, 0.41384487779578194, 0.4287539637298323, 0.4470309828175232, 0.4636108939885162, 0.47900194220710546, 0.49694513756548986, 0.5138592137955129, 0.5288471476524137, 0.5470726254279725, 0.5636009953450412, 0.5790357341757044, 0.596906908263918, 0.613732237892691, 0.6287607903941534, 0.6470354201155715, 0.6635644726920873, 0.678968150226865, 0.6969519641716033, 0.7138035764801316, 0.7287826357060112, 0.7469715908518992, 0.763321443577297, 0.7789855581941083, 0.7968734576134011, 0.8137547658407129, 0.8285860278992914, 0.8470681881299242, 0.8634323768201284, 0.8789596168790013, 0.8969625455210917]
39	篮球	False	animate	inanimate	right	1.0	[0.0, -3.0, -3.0, -3.0, -5.0, -5.0, -5.0, -5.0, -5.0, -5.0, -5.0, -5.0, -5.0, -7.0, -12.0, -21.0, -26.0, -30.0, -30.0, -30.0, -30.0, -30.0, -30.0, -30.0, -30.0, -30.0, -30.0, -30.0, -30.0, -30.0, -30.0, -30.0, -31.0, -28.0, -28.0, -47.0, -77.0, -89.0, -92.0, -87.0, -46.0, 76.0, 123.0, 335.0, 480.0, 596.0, 690.0, 746.0, 779.0, 789.0, 791.0, 791.0, 786.0, 780.0, 778.0, 777.0, 777.0, 777.0, 777.0, 777.0, 777.0]	[-490.0, -490.0, -490.0, -490.0, -489.0, -489.0, -489.0, -489.0, -489.0, -489.0, -489.0, -489.0, -489.0, -488.0, -496.0, -507.0, -516.0, -521.0, -523.0, -524.0, -524.0, -524.0, -524.0, -524.0, -524.0, -524.0, -524.0, -524.0, -524.0, -524.0, -524.0, -524.0, -524.0, -514.0, -515.0, -508.0, -491.0, -472.0, -440.0, -392.0, -315.0, -188.0, -147.0, -16.0, 70.0, 150.0, 230.0, 287.0, 329.0, 351.0, 372.0, 388.0, 415.0, 429.0, 435.0, 442.0, 445.0, 448.0, 449.0, 451.0, 451.0]	[0.014746338420081884, 0.021693148475605994, 0.027570903475861996, 0.04648280201945454, 0.06278282008133829, 0.07810252968920395, 0.09616485028527677, 0.11291030800202861, 0.12803955376148224, 0.14628619415452704, 0.16259303892729804, 0.1781240336713381, 0.19611296762013808, 0.21287890535313636, 0.22792213514912874, 0.24621007690439, 0.2627251347876154, 0.27810389501973987, 0.29604333569295704, 0.3129318119608797, 0.3278784445137717, 0.34614931960823014, 0.36259303893893957, 0.3781748922774568, 0.3961075062979944, 0.4130741478293203, 0.4279200871824287, 0.44618072226876393, 0.4628104680450633, 0.4781871802988462, 0.4961740662693046, 0.5129833532264456, 0.5280071271117777, 0.5462083702441305, 0.5627889640745707, 0.5781772815971635, 0.5960781516623683, 0.6128802706953138, 0.6278972178697586, 0.6462172449100763, 0.6626968041528016, 0.6780697617214173, 0.6960371917230077, 0.7128287293598987, 0.7279422738356516, 0.7461397622828372, 0.7625759722432122, 0.7781991269439459, 0.7957634425838478, 0.8128236093907617, 0.8278511379030533, 0.8462387488689274, 0.8626688148360699, 0.8780861456762068, 0.8959702904103324, 0.9128765159985051, 0.9276152767706662, 0.9461534155998379, 0.9624172524199821, 0.978118913655635, 0.9960385570302606]
40	楼梯	False	inanimate	animate	left	1.215	[0.0, 0.0, 0.0, 0.0, 0.0, 0.0, 0.0, 0.0, 0.0, 0.0, 0.0, 0.0, 0.0, 1.0, 1.0, 1.0, 1.0, 1.0, 1.0, 1.0, 1.0, 1.0, 1.0, 1.0, 1.0, 3.0, 6.0, 8.0, 9.0, 9.0, 10.0, 15.0, 27.0, 29.0, 35.0, 13.0, -35.0, -122.0, -238.0, -380.0, -531.0, -680.0, -818.0, -960.0, -960.0, -960.0, -960.0, -960.0, -960.0, -960.0, -960.0, -960.0, -960.0, -952.0, -910.0, -818.0, -730.0, -644.0, -576.0, -537.0, -518.0, -511.0, -509.0, -509.0, -509.0, -510.0, -545.0, -654.0, -737.0, -773.0, -824.0, -829.0, -829.0]	[-490.0, -490.0, -490.0, -490.0, -490.0, -490.0, -490.0, -490.0, -490.0, -490.0, -490.0, -490.0, -490.0, -487.0, -486.0, -486.0, -486.0, -486.0, -486.0, -486.0, -487.0, -489.0, -490.0, -490.0, -491.0, -491.0, -491.0, -491.0, -491.0, -489.0, -482.0, -461.0, -429.0, -404.0, -314.0, -233.0, -163.0, -99.0, -26.0, 57.0, 162.0, 266.0, 360.0, 459.0, 498.0, 510.0, 527.0, 530.0, 530.0, 530.0, 530.0, 530.0, 530.0, 530.0, 502.0, 429.0, 354.0, 280.0, 220.0, 190.0, 176.0, 170.0, 168.0, 167.0, 167.0, 167.0, 207.0, 327.0, 398.0, 425.0, 462.0, 468.0, 468.0]	[0.001956589287146926, 0.007074536930304021, 0.018751881609205157, 0.03723779652500525, 0.053596865211147815, 0.0690479880431667, 0.08697616477729753, 0.10376087576150894, 0.11875154031440616, 0.13716031389776617, 0.15360164392041042, 0.16906437202123925, 0.18698333273641765, 0.20395611826097593, 0.21883107087342069, 0.23730503913247958, 0.2536484065349214, 0.2690575453452766, 0.2869884527171962, 0.30376360641093925, 0.31879659625701606, 0.3371097966446541, 0.3536606944981031, 0.36898279341403395, 0.386976164765656, 0.40390218765242025, 0.4185474231489934, 0.43704494333360344, 0.45348456664942205, 0.46896606811787933, 0.48697957809781656, 0.5037670197780244, 0.5188259509159252, 0.5371152579900809, 0.5536644491949119, 0.5689981534378603, 0.5869294021395035, 0.603969088930171, 0.6189003615290858, 0.6370258287061006, 0.6535105079528876, 0.6690066867740825, 0.6868792261811905, 0.7037042144802399, 0.7188068362302147, 0.7370125167071819, 0.7533183374907821, 0.7689319348428398, 0.786931108799763, 0.8037960330839269, 0.8187808949151076, 0.8369486874435097, 0.8535193826537579, 0.869000542734284, 0.8866546290228143, 0.9037362997769378, 0.9188556468579918, 0.9371609966037795, 0.9537231584545225, 0.969145609298721, 0.9868239302304573, 1.0038141236873344, 1.018778505618684, 1.0370452846982516, 1.053492417326197, 1.0689667508122511, 1.0868246128666215, 1.1038137823925354, 1.1188051296048798, 1.1371470019221306, 1.1535347425960936, 1.16906539601041, 1.1866010397206992]
41	花瓶	False	inanimate	animate	left	0.93	[0.0, 0.0, 0.0, 0.0, 0.0, 0.0, 0.0, 0.0, 0.0, 0.0, 0.0, 0.0, 0.0, 0.0, 0.0, 0.0, -1.0, -1.0, -1.0, -1.0, -1.0, -1.0, -1.0, -1.0, -1.0, -1.0, 1.0, 1.0, 1.0, 4.0, 4.0, -13.0, -55.0, -100.0, -151.0, -189.0, -195.0, -183.0, -132.0, -30.0, 119.0, 280.0, 294.0, 296.0, 250.0, 140.0, -9.0, -175.0, -351.0, -526.0, -669.0, -783.0, -851.0, -885.0, -885.0, -885.0, -885.0]	[-490.0, -490.0, -490.0, -490.0, -490.0, -490.0, -489.0, -486.0, -486.0, -486.0, -486.0, -486.0, -486.0, -482.0, -479.0, -477.0, -477.0, -478.0, -478.0, -478.0, -478.0, -478.0, -478.0, -478.0, -478.0, -478.0, -479.0, -479.0, -476.0, -464.0, -459.0, -424.0, -367.0, -306.0, -242.0, -183.0, -149.0, -107.0, -36.0, 51.0, 130.0, 206.0, 216.0, 224.0, 234.0, 248.0, 271.0, 308.0, 359.0, 411.0, 451.0, 484.0, 504.0, 514.0, 514.0, 514.0, 514.0]	[0.013613795337732881, 0.018144308764021844, 0.025334830628708005, 0.04358932172181085, 0.06057029927615076, 0.07549167319666594, 0.09383934817742556, 0.11020660889334977, 0.12578129424946383, 0.14373950829030946, 0.16056756861507893, 0.1754954278585501, 0.19399806804722175, 0.2102117288741283, 0.225778563588392, 0.2436903563211672, 0.2606255952268839, 0.27552956115687266, 0.29389566817553714, 0.3103991207317449, 0.3257768569746986, 0.34370025497628376, 0.36070614983327687, 0.37551249453099445, 0.3939137588022277, 0.4103660114342347, 0.42570449435152113, 0.4436511030071415, 0.4606511952006258, 0.4755473104887642, 0.493750260269735, 0.5104035580880009, 0.5256416890770197, 0.5436794336419553, 0.5604453713749535, 0.5754865531926043, 0.5938687028246932, 0.6102772648446262, 0.6256782116834074, 0.643520372454077, 0.6604446886922233, 0.6755056678666733, 0.6937301216530614, 0.7101861289120279, 0.7256969850277528, 0.7433971512364224, 0.7604668753338046, 0.7754875771934167, 0.7938134068972431, 0.8103172007831745, 0.8256584143964574, 0.8435415351414122, 0.8604511740268208, 0.8755043025012128, 0.8937325109727681, 0.910218896868173, 0.9256932303542271]
42	画家	True	animate	inanimate	left	0.9	[0.0, 0.0, 0.0, 0.0, -1.0, -8.0, -14.0, -16.0, -19.0, -19.0, -19.0, -20.0, -20.0, -20.0, -22.0, -22.0, -23.0, -23.0, -23.0, -21.0, -20.0, -20.0, -20.0, -20.0, -20.0, -20.0, -20.0, -20.0, -20.0, -20.0, -17.0, -17.0, -22.0, -44.0, -74.0, -116.0, -173.0, -201.0, -203.0, -198.0, -142.0, -75.0, -8.0, 30.0, 33.0, 12.0, -48.0, -151.0, -286.0, -548.0, -708.0, -777.0, -891.0, -905.0, -905.0]	[-490.0, -490.0, -490.0, -490.0, -490.0, -490.0, -490.0, -490.0, -490.0, -490.0, -490.0, -490.0, -490.0, -490.0, -490.0, -490.0, -490.0, -490.0, -490.0, -490.0, -490.0, -490.0, -490.0, -490.0, -490.0, -490.0, -490.0, -490.0, -490.0, -490.0, -491.0, -490.0, -483.0, -455.0, -399.0, -327.0, -243.0, -178.0, -156.0, -140.0, -54.0, 34.0, 111.0, 171.0, 187.0, 196.0, 205.0, 218.0, 237.0, 315.0, 372.0, 400.0, 450.0, 460.0, 460.0]	[0.008068157359957695, 0.012922937225084752, 0.017469834652729332, 0.03316432796418667, 0.049554457946214825, 0.0648431062581949, 0.08267229638295248, 0.09974372712895274, 0.11441422131611034, 0.1329414374777116, 0.14948209538124502, 0.16487553290789947, 0.18288460554322228, 0.19967204722343013, 0.2146558850654401, 0.23299263743683696, 0.24948960467008874, 0.26487587421434, 0.2828078055754304, 0.29974577511893585, 0.31465383706381544, 0.3329905894352123, 0.34967665519798175, 0.3648895275546238, 0.38286514952778816, 0.3996652205241844, 0.414637794427108, 0.43298922409303486, 0.4494698073831387, 0.46486187959089875, 0.4828439868870191, 0.4997003778698854, 0.514610146463383, 0.5329049148131162, 0.5494442073977552, 0.5648629035567865, 0.5827968829544261, 0.599657028564252, 0.6146760237170383, 0.6329882001155056, 0.6494541060528718, 0.6649209301685914, 0.6827310056542046, 0.6996809218544513, 0.7146098051453009, 0.7328902375302278, 0.7493493168149143, 0.7648697302211076, 0.7827374910120852, 0.7995580419665202, 0.8146647597313859, 0.8329366588150151, 0.8492957275011577, 0.8648833835613914, 0.8827419283334166]
43	小鸡	True	inanimate	animate	right	1.2	[0.0, 0.0, 0.0, 0.0, -1.0, -3.0, -4.0, -5.0, -5.0, -5.0, -5.0, -5.0, -5.0, -5.0, -5.0, -5.0, -5.0, -6.0, -9.0, -12.0, -12.0, -13.0, -16.0, -17.0, -22.0, -24.0, -25.0, -30.0, -36.0, -38.0, -40.0, -45.0, -57.0, -60.0, -148.0, -249.0, -353.0, -467.0, -581.0, -690.0, -772.0, -814.0, -824.0, -824.0, -799.0, -771.0, -581.0, -378.0, -145.0, 79.0, 272.0, 429.0, 536.0, 596.0, 621.0, 636.0, 638.0, 638.0, 638.0, 638.0, 639.0, 639.0, 639.0, 639.0, 638.0, 637.0, 641.0, 678.0, 704.0, 712.0, 721.0, 722.0, 722.0]	[-490.0, -490.0, -491.0, -491.0, -492.0, -493.0, -494.0, -495.0, -496.0, -496.0, -496.0, -496.0, -496.0, -496.0, -495.0, -493.0, -484.0, -479.0, -470.0, -468.0, -468.0, -468.0, -468.0, -471.0, -475.0, -478.0, -482.0, -483.0, -485.0, -486.0, -486.0, -483.0, -472.0, -468.0, -366.0, -268.0, -164.0, -52.0, 77.0, 203.0, 315.0, 394.0, 423.0, 440.0, 446.0, 446.0, 433.0, 404.0, 381.0, 381.0, 391.0, 415.0, 441.0, 459.0, 472.0, 484.0, 489.0, 489.0, 489.0, 489.0, 489.0, 489.0, 489.0, 489.0, 489.0, 479.0, 464.0, 442.0, 439.0, 439.0, 441.0, 441.0, 441.0]	[0.007621352502610534, 0.012160399288404733, 0.01629394246265292, 0.032255699508823454, 0.048603845527395606, 0.06393754977034405, 0.08196027571102604, 0.0987350880750455, 0.11376398190623149, 0.13208298495737836, 0.14841508836252615, 0.16401161905378103, 0.18192477710545063, 0.19880472001386806, 0.21352334215771407, 0.23206557700177655, 0.24859326420119032, 0.2639788510859944, 0.2819927023956552, 0.2987910666852258, 0.31380425923271105, 0.3320863983244635, 0.3486116962158121, 0.3639860191033222, 0.38177629723213613, 0.3988289546687156, 0.41350422747200355, 0.43197717174189165, 0.44858643756015226, 0.4639754377421923, 0.4817728839116171, 0.49876171204959974, 0.513800845888909, 0.5321836782386526, 0.5485830242396332, 0.5640184457297437, 0.5818732358166017, 0.5988054026965983, 0.6135100301471539, 0.6319351877318695, 0.648475845635403, 0.663987384410575, 0.6818278385326266, 0.6986999307991937, 0.7138206431991421, 0.7320597743382677, 0.7484823309932835, 0.7639737310819328, 0.781854803848546, 0.7987886773771606, 0.813581368769519, 0.8319802437326871, 0.8484819896402769, 0.8639989897492342, 0.8818336411495693, 0.8987040267675184, 0.9137295073014684, 0.9320809369673952, 0.9484867682913318, 0.9640348296961747, 0.9815636467537843, 0.9988405599724501, 1.013774904597085, 1.032009257003665, 1.0484993976424448, 1.0639921630499884, 1.0818240838707425, 1.0987091467832215, 1.1135871714213863, 1.1319915077183396, 1.1484662883449346, 1.1639887497294694, 1.1818763078190386]
44	猴子	True	inanimate	animate	right	0.867	[0.0, 0.0, 0.0, 0.0, 0.0, 0.0, 0.0, 0.0, 0.0, 0.0, 0.0, 0.0, 0.0, 0.0, 0.0, 0.0, 0.0, 0.0, 0.0, 0.0, 0.0, 0.0, 0.0, 0.0, 0.0, 0.0, 0.0, 0.0, 0.0, -24.0, -71.0, -173.0, -264.0, -311.0, -459.0, -536.0, -584.0, -613.0, -616.0, -610.0, -482.0, -398.0, -196.0, 141.0, 362.0, 451.0, 680.0, 776.0, 824.0, 836.0, 838.0, 838.0, 838.0]	[-490.0, -490.0, -490.0, -490.0, -490.0, -490.0, -490.0, -490.0, -490.0, -490.0, -490.0, -490.0, -490.0, -490.0, -490.0, -490.0, -490.0, -490.0, -490.0, -490.0, -490.0, -490.0, -490.0, -490.0, -490.0, -490.0, -490.0, -490.0, -485.0, -423.0, -336.0, -192.0, -80.0, -19.0, 174.0, 280.0, 353.0, 396.0, 407.0, 413.0, 424.0, 424.0, 424.0, 424.0, 424.0, 424.0, 458.0, 480.0, 496.0, 506.0, 514.0, 522.0, 526.0]	[0.014275640074629337, 0.02031006693141535, 0.026971181214321405, 0.04567657329607755, 0.062075919297058135, 0.07744682882912457, 0.09541255218209699, 0.11224334314465523, 0.12723946903133765, 0.14553457871079445, 0.16189433011459187, 0.17749802878824994, 0.19552382675465196, 0.21226587111596018, 0.22730022628093138, 0.24569602927658707, 0.2620865005883388, 0.2775034900987521, 0.2954347388003953, 0.31217951385769993, 0.32700633857166395, 0.34554208803456277, 0.3619506500544958, 0.37748676480259746, 0.39529137895442545, 0.4122409538249485, 0.4272165996953845, 0.4455711013870314, 0.46207557793240994, 0.4775082687847316, 0.4954098215093836, 0.5121470871963538, 0.5272957889828831, 0.5454540241626091, 0.5618028528406285, 0.5774010901805013, 0.5952985469484702, 0.6122511937865056, 0.6269619652302936, 0.6453700562124141, 0.6619602073915303, 0.6774085995275527, 0.6952705575968139, 0.712127972568851, 0.7272049943567254, 0.745497373456601, 0.7619281220831908, 0.7774499008082785, 0.7952807976398617, 0.8124334656167775, 0.8270281838485971, 0.8456260559614748, 0.8620769432745874]
45	番茄	False	inanimate	animate	left	0.928	[0.0, 0.0, 0.0, 0.0, 0.0, 0.0, 0.0, 1.0, 1.0, 3.0, 3.0, 3.0, 3.0, 3.0, 3.0, 3.0, 3.0, 3.0, 3.0, 3.0, 3.0, 3.0, 3.0, 3.0, 3.0, 3.0, 3.0, 3.0, -1.0, -13.0, -31.0, -49.0, -67.0, -75.0, -76.0, -74.0, -45.0, 31.0, 117.0, 171.0, 363.0, 473.0, 532.0, 537.0, 484.0, 350.0, 177.0, -5.0, -210.0, -423.0, -648.0, -677.0, -704.0, -704.0, -704.0, -704.0]	[-490.0, -490.0, -490.0, -490.0, -490.0, -490.0, -490.0, -490.0, -490.0, -490.0, -490.0, -490.0, -490.0, -490.0, -490.0, -490.0, -490.0, -490.0, -490.0, -490.0, -490.0, -490.0, -490.0, -490.0, -490.0, -483.0, -479.0, -477.0, -465.0, -444.0, -420.0, -397.0, -374.0, -359.0, -353.0, -340.0, -309.0, -248.0, -196.0, -163.0, -56.0, 15.0, 71.0, 95.0, 122.0, 147.0, 174.0, 214.0, 268.0, 335.0, 389.0, 392.0, 399.0, 399.0, 399.0, 399.0]	[0.014345954696182162, 0.02048278145957738, 0.026838061399757862, 0.04559943208005279, 0.061849615536630154, 0.0774372715386562, 0.09543234953889623, 0.11233550310134888, 0.12702306389110163, 0.1455827067256905, 0.16205066069960594, 0.17744580487487838, 0.19540709088323638, 0.21229693247005343, 0.22727053036214784, 0.24568271730095148, 0.26191822346299887, 0.27752055681776255, 0.29546409350587055, 0.312211599200964, 0.32719338912284, 0.3455612027319148, 0.362043151340913, 0.3774574102135375, 0.3952736296923831, 0.41219419124536216, 0.4272203543805517, 0.4455700773978606, 0.46198819670826197, 0.47741610888624564, 0.49535316025139764, 0.5121883885585703, 0.5273466476355679, 0.5454622161923908, 0.5618632688419893, 0.577386412944179, 0.595364082895685, 0.6121515245758928, 0.6271708611166105, 0.6454468561569229, 0.6619636207469739, 0.677434882207308, 0.6952773843077011, 0.7122201325255446, 0.7273401623242535, 0.7454284242121503, 0.7619001328130253, 0.7774079169030301, 0.7953029843047261, 0.8121327512781136, 0.8272264983970672, 0.8454673361848108, 0.8620339353801683, 0.8774440982379019, 0.8953005949733779, 0.9123785110423341]
46	和尚	True	inanimate	animate	right	0.868	[0.0, 0.0, 0.0, 0.0, 0.0, 0.0, 0.0, 0.0, 0.0, 0.0, 0.0, 0.0, 0.0, 0.0, 0.0, 0.0, 0.0, 0.0, 0.0, 0.0, 0.0, 0.0, 9.0, 18.0, 25.0, 29.0, 29.0, 24.0, -48.0, -130.0, -177.0, -330.0, -421.0, -490.0, -526.0, -542.0, -548.0, -553.0, -561.0, -578.0, -587.0, -587.0, -587.0, -537.0, -391.0, -144.0, 129.0, 405.0, 666.0, 849.0, 958.0, 959.0, 959.0]	[-490.0, -490.0, -490.0, -490.0, -490.0, -490.0, -490.0, -490.0, -490.0, -490.0, -490.0, -490.0, -490.0, -490.0, -490.0, -490.0, -490.0, -490.0, -490.0, -490.0, -489.0, -485.0, -475.0, -459.0, -446.0, -429.0, -410.0, -380.0, -264.0, -155.0, -100.0, 47.0, 122.0, 178.0, 218.0, 240.0, 250.0, 260.0, 270.0, 286.0, 292.0, 292.0, 292.0, 301.0, 318.0, 336.0, 350.0, 374.0, 397.0, 421.0, 437.0, 448.0, 449.0]	[0.00011830602306872606, 0.005437640124000609, 0.015101461205631495, 0.03338189364876598, 0.05020449258154258, 0.06521597848040983, 0.08355614414904267, 0.10005003941478208, 0.11542709294008091, 0.1334190989146009, 0.1502331646042876, 0.16520846914499998, 0.18347593088401482, 0.20001249277265742, 0.21538988762767985, 0.23335492832120508, 0.2501918632769957, 0.26521734381094575, 0.2835332748363726, 0.29984558088472113, 0.3153997862827964, 0.33339930162765086, 0.3502287272713147, 0.36493984004482627, 0.3834001549403183, 0.3999558314681053, 0.4153605329920538, 0.4333296697004698, 0.4501232553157024, 0.4651750184712, 0.4834086882765405, 0.4998899542260915, 0.5153799889958464, 0.5330409019370563, 0.5502328232396394, 0.5649224320659414, 0.5833243789966218, 0.5997619543340988, 0.6153444903320633, 0.6332153230905533, 0.6501099433517084, 0.66518764779903, 0.6833806989598088, 0.6999746048240922, 0.7153632636764087, 0.7332347790943459, 0.7502109779161401, 0.7649094613734633, 0.7833755789906718, 0.8000138581264764, 0.815351658326108, 0.8334853175329044, 0.8501768446294591]
