trialIndex	stimulus	left_option	right_option	response	response_time	xTrajectory	yTrajectory	tTrajectory
0	inanimate/n66.jpg	inanimate	animate	left	1.606	[0.0, 0.0, 0.0, 0.0, 0.0, 0.0, 0.0, 0.0, 0.0, 0.0, 0.0, -1.0, -21.0, -71.0, -155.0, -170.0, -170.0, -170.0, -170.0, -170.0, -170.0, -170.0, -170.0, -170.0, -170.0, -170.0, -170.0, -155.0, -134.0, -122.0, -120.0, -120.0, -121.0, -130.0, -143.0, -156.0, -171.0, -188.0, -205.0, -222.0, -239.0, -256.0, -273.0, -295.0, -321.0, -346.0, -367.0, -393.0, -407.0, -421.0, -438.0, -454.0, -475.0, -503.0, -545.0, -587.0, -632.0, -681.0, -755.0, -779.0, -849.0, -888.0, -929.0, -957.0, -960.0, -960.0, -960.0, -960.0, -960.0, -960.0, -960.0, -960.0, -960.0, -960.0, -960.0, -960.0, -960.0, -960.0, -960.0, -960.0, -960.0, -960.0, -960.0, -960.0, -960.0, -960.0, -960.0, -960.0, -960.0, -957.0, -951.0, -940.0, -925.0, -908.0, -887.0, -885.0, -885.0]	[-490.0, -490.0, -490.0, -490.0, -490.0, -490.0, -490.0, -490.0, -490.0, -490.0, -490.0, -490.0, -490.0, -478.0, -453.0, -450.0, -450.0, -450.0, -450.0, -450.0, -450.0, -450.0, -450.0, -450.0, -450.0, -450.0, -450.0, -453.0, -459.0, -463.0, -464.0, -464.0, -464.0, -461.0, -457.0, -452.0, -448.0, -442.0, -433.0, -427.0, -416.0, -404.0, -366.0, -331.0, -305.0, -287.0, -271.0, -253.0, -243.0, -231.0, -216.0, -198.0, -176.0, -143.0, -102.0, -58.0, -13.0, 33.0, 108.0, 139.0, 223.0, 278.0, 340.0, 390.0, 421.0, 440.0, 462.0, 483.0, 497.0, 502.0, 504.0, 508.0, 509.0, 509.0, 509.0, 509.0, 509.0, 509.0, 509.0, 509.0, 509.0, 509.0, 509.0, 509.0, 509.0, 509.0, 509.0, 509.0, 510.0, 506.0, 503.0, 499.0, 492.0, 487.0, 479.0, 478.0, 478.0]	[0.014156446617562324, 0.02129167251405306, 0.026684734591981396, 0.0432581604400184, 0.06001283414661884, 0.0769487556826789, 0.09345391494571231, 0.11034990052576177, 0.12664889459847473, 0.1435916428163182, 0.1599916715058498, 0.17699142231140286, 0.19331738172331825, 0.21039222582476214, 0.2265065587416757, 0.24355648551136255, 0.25997562884003855, 0.276918377057882, 0.2933934989850968, 0.31027173524489626, 0.32653045206097886, 0.3436107574671041, 0.3599879168323241, 0.3768985797360074, 0.3933242083876394, 0.41030450322432443, 0.4265427400241606, 0.4434813922562171, 0.4599490048713051, 0.4768132464669179, 0.49338530699606054, 0.5103604818577878, 0.5266041799914092, 0.5436128054570872, 0.5597619543550536, 0.5768088091572281, 0.5933702883485239, 0.6102454526117072, 0.6264352201251313, 0.643626458797371, 0.6600548181158956, 0.6769176943926141, 0.693426608282607, 0.7102778792614117, 0.7266840519150719, 0.7436349921044894, 0.7600281941413414, 0.7768542064295616, 0.7932846137555316, 0.8102464766125195, 0.8264543347759172, 0.8435216695361305, 0.8600230741431005, 0.8769388570217416, 0.8933412750484422, 0.9102990418905392, 0.9264307827979792, 0.9434796855784953, 0.9597568343742751, 0.9769555823586415, 0.9933832589886151, 1.0103181565355044, 1.0265854066528846, 1.043590277491603, 1.0600275114702526, 1.076896873069927, 1.093374384334311, 1.1101922046509571, 1.1266495772870257, 1.1435807201778516, 1.160018978145672, 1.176910526381107, 1.1932050831383094, 1.2103280551964417, 1.226649235934019, 1.2436670774186496, 1.260028535471065, 1.2769654809962958, 1.293226928479271, 1.3102836819016375, 1.3267202332208399, 1.3436506934522185, 1.3600193194579333, 1.3769221317197662, 1.3933474190416746, 1.4102949459047522, 1.4265441053721588, 1.4435704801871907, 1.4597950636525638, 1.4769333956937771, 1.4933675576758105, 1.5102338472788688, 1.5266096413251944, 1.5434807095734868, 1.5600145407952368, 1.5769443183671683, 1.593321819062112]
1	inanimate/n31.jpg	inanimate	animate	left	0.793	[0.0, 0.0, 0.0, 0.0, 0.0, 0.0, 0.0, 0.0, 0.0, 0.0, 0.0, 0.0, 0.0, 0.0, 0.0, 0.0, 0.0, 0.0, -8.0, -33.0, -68.0, -163.0, -243.0, -329.0, -418.0, -502.0, -575.0, -641.0, -701.0, -765.0, -821.0, -875.0, -913.0, -944.0, -952.0, -960.0, -960.0, -960.0, -960.0, -960.0, -960.0, -958.0, -953.0, -949.0, -946.0, -943.0, -943.0, -943.0]	[-490.0, -490.0, -490.0, -490.0, -490.0, -490.0, -490.0, -490.0, -490.0, -490.0, -490.0, -490.0, -490.0, -490.0, -490.0, -490.0, -490.0, -490.0, -489.0, -481.0, -471.0, -444.0, -416.0, -380.0, -341.0, -299.0, -220.0, -127.0, -48.0, 39.0, 123.0, 190.0, 245.0, 297.0, 319.0, 343.0, 366.0, 387.0, 404.0, 419.0, 433.0, 443.0, 453.0, 460.0, 463.0, 465.0, 465.0, 465.0]	[0.013981684081954882, 0.021014510100940242, 0.0260269858117681, 0.04317862985772081, 0.05952336254995316, 0.07653949738596566, 0.09279036350199021, 0.10988773559802212, 0.1263287242327351, 0.14320184048847295, 0.15947250393219292, 0.17652243073098361, 0.19296580870286562, 0.20983448764309287, 0.22606999377603643, 0.24325201645842753, 0.2595520345494151, 0.27662960928864777, 0.2929989180120174, 0.30990480224136263, 0.3263184842362534, 0.34309807524550706, 0.35945065863779746, 0.3765883079904597, 0.3928548754483927, 0.4098993409133982, 0.42610037242411636, 0.44309500325471163, 0.45967320777708665, 0.4765234547376167, 0.4929753660107963, 0.509930060885381, 0.5263133642438333, 0.5431762405205518, 0.5596861784288194, 0.5766326813027263, 0.59284702478908, 0.6099051435594447, 0.6263509108684957, 0.6431605391844641, 0.6595892398327123, 0.6765514440194238, 0.6929603473690804, 0.709887735574739, 0.7262734282703605, 0.7431772645213641, 0.7596588717715349, 0.7765374493901618]
2	animate/a42.jpg	animate	inanimate	left	1.032	[0.0, 0.0, 0.0, 0.0, 0.0, 0.0, 0.0, 0.0, 0.0, 0.0, 0.0, 0.0, 0.0, 0.0, 0.0, 0.0, 0.0, -8.0, -22.0, -46.0, -98.0, -143.0, -194.0, -261.0, -341.0, -408.0, -459.0, -504.0, -546.0, -580.0, -614.0, -643.0, -677.0, -709.0, -720.0, -730.0, -738.0, -746.0, -750.0, -752.0, -753.0, -753.0, -743.0, -707.0, -603.0, -524.0, -478.0, -459.0, -456.0, -456.0, -456.0, -468.0, -491.0, -519.0, -561.0, -611.0, -698.0, -747.0, -780.0, -792.0, -793.0, -793.0]	[-490.0, -490.0, -490.0, -490.0, -490.0, -490.0, -490.0, -490.0, -490.0, -490.0, -490.0, -490.0, -490.0, -490.0, -490.0, -489.0, -481.0, -472.0, -459.0, -444.0, -417.0, -394.0, -370.0, -341.0, -298.0, -258.0, -194.0, -129.0, -78.0, -31.0, 20.0, 74.0, 137.0, 195.0, 219.0, 238.0, 259.0, 276.0, 291.0, 301.0, 311.0, 326.0, 343.0, 366.0, 398.0, 410.0, 420.0, 426.0, 428.0, 428.0, 429.0, 432.0, 434.0, 439.0, 444.0, 455.0, 481.0, 495.0, 504.0, 508.0, 508.0, 508.0]	[0.01377142293495126, 0.020490222523221746, 0.025733439397299662, 0.04291409673169255, 0.05917349617811851, 0.07613808970199898, 0.09249852373613976, 0.10953104254440404, 0.12594233520212583, 0.14293833138071932, 0.1593571333505679, 0.17622922561713494, 0.19258965968037955, 0.2095320665393956, 0.2259873911680188, 0.24282227814546786, 0.25929432807606645, 0.2760865484306123, 0.2926268649753183, 0.30949690923443995, 0.32593755653942935, 0.3429082940565422, 0.3592939867521636, 0.3761746123491321, 0.39250125442049466, 0.40951397590106353, 0.42601811114582233, 0.44280896615237, 0.45934723468963057, 0.47617290567723103, 0.4926388116145972, 0.5095559598703403, 0.5257187620736659, 0.5427772221737541, 0.5593588400224689, 0.5762746229302138, 0.5925207104010042, 0.6096395864442457, 0.6260300577851012, 0.6429137553786859, 0.6593107120716013, 0.6761510603537317, 0.6926480276160873, 0.7094829145935364, 0.7259884151571896, 0.7429239953926299, 0.759158136206679, 0.7761858763406053, 0.7926405182806775, 0.809554253180977, 0.8259662285272498, 0.8428727954160422, 0.859304226731183, 0.8762183029612061, 0.8926149183243979, 0.9094805252680089, 0.9259832951647695, 0.9427994088327978, 0.9592823814309668, 0.9762346869683824, 0.992609115637606, 1.0095648345013615]
3	animate/a77.jpg	animate	inanimate	left	0.851	[0.0, 0.0, 0.0, 0.0, 0.0, 0.0, 0.0, 0.0, 0.0, 0.0, 0.0, 0.0, 0.0, 0.0, 0.0, -7.0, -22.0, -49.0, -95.0, -160.0, -221.0, -291.0, -386.0, -450.0, -525.0, -596.0, -660.0, -716.0, -763.0, -798.0, -818.0, -831.0, -836.0, -841.0, -843.0, -846.0, -850.0, -851.0, -851.0, -851.0, -851.0, -851.0, -851.0, -851.0, -851.0, -851.0, -851.0, -851.0, -851.0, -851.0, -851.0]	[-490.0, -490.0, -490.0, -490.0, -490.0, -490.0, -490.0, -490.0, -490.0, -490.0, -490.0, -490.0, -490.0, -486.0, -483.0, -479.0, -471.0, -460.0, -440.0, -412.0, -386.0, -346.0, -195.0, -100.0, 6.0, 99.0, 169.0, 234.0, 290.0, 332.0, 365.0, 389.0, 405.0, 422.0, 445.0, 463.0, 475.0, 483.0, 486.0, 489.0, 489.0, 489.0, 489.0, 489.0, 489.0, 489.0, 489.0, 489.0, 489.0, 489.0, 489.0]	[0.0016786759078968316, 0.006372005242155865, 0.01831524836597964, 0.0352112339460291, 0.05143411079188809, 0.06854752550134435, 0.08507248206296936, 0.10202478760038503, 0.1181309285457246, 0.13524434325518087, 0.15169523056829348, 0.16865709342528135, 0.18501479679252952, 0.20189337438205257, 0.21827087507699616, 0.23517471132799983, 0.25173892118618824, 0.2686260321061127, 0.28489533023093827, 0.30197529430733994, 0.31838488031644374, 0.335257655242458, 0.3517259505169932, 0.36864036810584366, 0.38510798072093166, 0.4019985049671959, 0.4183729336655233, 0.43533274851506576, 0.45172629185253754, 0.4684932535456028, 0.4850315221119672, 0.5019210223690607, 0.5183094457024708, 0.5352310312737245, 0.5516860145726241, 0.568574490811443, 0.5850700927549042, 0.6019118063850328, 0.618399557628436, 0.6354143271164503, 0.6517122971999925, 0.6686314934340771, 0.6848297942779027, 0.7019032730313484, 0.718438128271373, 0.735321484535234, 0.7517177585395984, 0.7686557280831039, 0.7848847488930915, 0.80192511837231, 0.8185046882135794]
4	animate/a71.jpg	animate	inanimate	left	0.782	[0.0, 0.0, 0.0, 0.0, 0.0, 0.0, 0.0, 0.0, 0.0, 0.0, 0.0, 0.0, 0.0, 0.0, 0.0, -1.0, -19.0, -39.0, -72.0, -121.0, -190.0, -260.0, -322.0, -365.0, -399.0, -428.0, -454.0, -487.0, -508.0, -523.0, -542.0, -563.0, -587.0, -611.0, -640.0, -675.0, -707.0, -732.0, -742.0, -743.0, -746.0, -748.0, -750.0, -751.0, -751.0, -752.0, -753.0, -753.0]	[-490.0, -490.0, -490.0, -490.0, -490.0, -490.0, -490.0, -490.0, -490.0, -490.0, -490.0, -490.0, -490.0, -490.0, -490.0, -489.0, -481.0, -450.0, -360.0, -284.0, -191.0, -110.0, -47.0, 1.0, 42.0, 65.0, 83.0, 101.0, 108.0, 118.0, 133.0, 146.0, 164.0, 186.0, 221.0, 263.0, 303.0, 334.0, 350.0, 364.0, 382.0, 399.0, 413.0, 419.0, 425.0, 428.0, 429.0, 429.0]	[0.007496697595342994, 0.012877130357082933, 0.01922660760465078, 0.03014926493051462, 0.04663223755778745, 0.06378422290435992, 0.08018493425333872, 0.09707170384353958, 0.11352361511671916, 0.13053394728922285, 0.14687663200311363, 0.16369308697176166, 0.18018595824833028, 0.19714270110125653, 0.21354614311712794, 0.230469094007276, 0.24683021070086397, 0.26390573746175505, 0.280094822315732, 0.29659690958214924, 0.31339800456771627, 0.33037317942944355, 0.34698210391798057, 0.36388013750547543, 0.3801709395775106, 0.39712802378926426, 0.41353317245375365, 0.43048752599861473, 0.4468295280530583, 0.4638207455573138, 0.48003816104028374, 0.4969894425594248, 0.5135106444649864, 0.5303861500869971, 0.5468646853405517, 0.5638057268806733, 0.5800074410508387, 0.5971389464393724, 0.6135505804268178, 0.6304424700210802, 0.6469056453206576, 0.6637985589040909, 0.6801456809334923, 0.6971106158162002, 0.7135212257853709, 0.7304895739944186, 0.7468179227143992, 0.7637903669092339]
5	inanimate/n23.jpg	inanimate	animate	left	0.929	[0.0, 0.0, 0.0, 0.0, 0.0, 0.0, -1.0, -2.0, -11.0, -12.0, -12.0, -12.0, -12.0, -12.0, -12.0, -12.0, -12.0, -12.0, -12.0, -12.0, -12.0, -12.0, -9.0, -2.0, 11.0, 16.0, 18.0, 18.0, 14.0, -2.0, -28.0, -81.0, -151.0, -217.0, -288.0, -361.0, -428.0, -509.0, -543.0, -566.0, -590.0, -605.0, -621.0, -633.0, -646.0, -657.0, -668.0, -679.0, -690.0, -706.0, -713.0, -719.0, -724.0, -725.0, -726.0, -726.0]	[-490.0, -490.0, -490.0, -490.0, -490.0, -490.0, -490.0, -483.0, -465.0, -463.0, -463.0, -463.0, -463.0, -463.0, -463.0, -463.0, -463.0, -463.0, -463.0, -463.0, -463.0, -463.0, -464.0, -466.0, -474.0, -476.0, -476.0, -476.0, -473.0, -466.0, -453.0, -421.0, -379.0, -316.0, -183.0, -67.0, 11.0, 108.0, 155.0, 189.0, 224.0, 247.0, 270.0, 291.0, 310.0, 330.0, 344.0, 359.0, 376.0, 398.0, 408.0, 415.0, 421.0, 422.0, 424.0, 424.0]	[0.016511985915713012, 0.024907754763262346, 0.03140093322144821, 0.04789619380608201, 0.06747881174669601, 0.0815533384156879, 0.09808307365165092, 0.11507531514507718, 0.13122139201732352, 0.14833651343360543, 0.16477374741225503, 0.18163730634842068, 0.19806464164867066, 0.21507429113262333, 0.2312688373203855, 0.2483194467786234, 0.26452286759740673, 0.2815919090353418, 0.297972140397178, 0.3150722431309987, 0.33115380807430483, 0.34825186282978393, 0.3646501848415937, 0.3816185330215376, 0.3980892176332418, 0.41499202986597084, 0.43146885847090743, 0.4483385614294093, 0.4648474753485061, 0.48159839436993934, 0.49785813517519273, 0.5150036351988092, 0.5314128798781894, 0.5484624653181527, 0.5647532674192917, 0.5816475463216193, 0.5980629349942319, 0.6149875925621018, 0.6314794398203958, 0.6483791800565086, 0.6646863661298994, 0.6816420849936549, 0.6980748816567939, 0.7150432298367377, 0.7314381385222077, 0.7482839481381234, 0.7647314220957924, 0.781654714315664, 0.798071468307171, 0.8149561899190303, 0.8314347251725849, 0.8483853240613826, 0.864775112742791, 0.8816721223120112, 0.8978840764902998, 0.9150213845132384]
6	animate/a79.jpg	inanimate	animate	right	1.098	[0.0, 0.0, 0.0, 0.0, 0.0, 0.0, 0.0, 0.0, 0.0, 0.0, 0.0, 0.0, 0.0, 0.0, 0.0, 0.0, 0.0, -10.0, -23.0, -38.0, -70.0, -102.0, -133.0, -162.0, -195.0, -245.0, -258.0, -284.0, -296.0, -309.0, -321.0, -336.0, -348.0, -367.0, -397.0, -431.0, -468.0, -505.0, -554.0, -591.0, -623.0, -639.0, -651.0, -660.0, -670.0, -676.0, -679.0, -681.0, -682.0, -682.0, -682.0, -663.0, -598.0, -465.0, -282.0, -61.0, 161.0, 384.0, 584.0, 753.0, 882.0, 959.0, 959.0, 959.0, 959.0, 959.0]	[-490.0, -490.0, -490.0, -490.0, -490.0, -490.0, -490.0, -490.0, -490.0, -490.0, -490.0, -490.0, -490.0, -490.0, -490.0, -490.0, -490.0, -473.0, -454.0, -401.0, -280.0, -202.0, -151.0, -103.0, -52.0, 17.0, 34.0, 57.0, 66.0, 76.0, 83.0, 92.0, 103.0, 119.0, 140.0, 165.0, 196.0, 233.0, 286.0, 326.0, 352.0, 369.0, 383.0, 395.0, 406.0, 413.0, 418.0, 419.0, 421.0, 421.0, 421.0, 429.0, 437.0, 441.0, 441.0, 441.0, 441.0, 441.0, 438.0, 425.0, 413.0, 403.0, 402.0, 402.0, 402.0, 402.0]	[0.014956189901567996, 0.020273817353881896, 0.028429629048332572, 0.04509043617872521, 0.06214582428219728, 0.07842365573742427, 0.09545788119430654, 0.11172410732251592, 0.12879519673879258, 0.14510135882301256, 0.16224617621628568, 0.17846939436276443, 0.1955196624621749, 0.2117660912917927, 0.22884195938240737, 0.24512593480176292, 0.2622154562268406, 0.2785420982982032, 0.29546470785862766, 0.3117053339956328, 0.3287975860876031, 0.3452860200195573, 0.36228918415145017, 0.3785837409377564, 0.395475630502915, 0.4118903365160804, 0.42878495674813166, 0.44527066001319326, 0.46213490163790993, 0.4785711115982849, 0.4954087292426266, 0.5119101338204928, 0.5287361461378168, 0.5452614440291654, 0.5620973549957853, 0.5785816929419525, 0.5956015824049246, 0.6119118404749315, 0.6287829087523278, 0.6452378920512274, 0.6621707415906712, 0.6786936501739547, 0.6953599186090287, 0.7118903365044389, 0.7287330741237383, 0.7453928572358564, 0.7620850669918582, 0.7785864715988282, 0.795408729230985, 0.811887605843367, 0.8287709621072281, 0.8453034279809799, 0.8622103362285998, 0.8787025248166174, 0.8955503824399784, 0.9116763206839096, 0.9288474206987303, 0.945028654881753, 0.9621379736345261, 0.9785304929828271, 0.9954817745019682, 1.0119053551461548, 1.0287808607681654, 1.0452686120115686, 1.0622175042226445, 1.078544146294007]
7	inanimate/n57.jpg	inanimate	animate	left	1.596	[0.0, -2.0, -2.0, -2.0, -2.0, -2.0, -3.0, -4.0, -6.0, -8.0, -11.0, -17.0, -21.0, -27.0, -34.0, -45.0, -68.0, -73.0, -73.0, -73.0, -73.0, -73.0, -73.0, -73.0, -73.0, -73.0, -73.0, -73.0, -73.0, -73.0, -54.0, -46.0, -46.0, -48.0, -56.0, -80.0, -156.0, -227.0, -299.0, -374.0, -435.0, -487.0, -551.0, -628.0, -697.0, -740.0, -772.0, -781.0, -796.0, -803.0, -808.0, -809.0, -810.0, -811.0, -812.0, -812.0, -812.0, -812.0, -813.0, -813.0, -813.0, -813.0, -813.0, -813.0, -813.0, -813.0, -813.0, -813.0, -813.0, -813.0, -813.0, -813.0, -813.0, -813.0, -813.0, -813.0, -813.0, -813.0, -813.0, -813.0, -813.0, -813.0, -813.0, -813.0, -813.0, -813.0, -813.0, -813.0, -813.0, -813.0, -813.0, -813.0, -813.0, -813.0, -813.0, -813.0]	[-490.0, -490.0, -490.0, -490.0, -490.0, -490.0, -490.0, -490.0, -490.0, -490.0, -490.0, -490.0, -490.0, -490.0, -490.0, -490.0, -484.0, -483.0, -483.0, -483.0, -483.0, -483.0, -483.0, -483.0, -483.0, -483.0, -483.0, -483.0, -483.0, -483.0, -483.0, -488.0, -488.0, -488.0, -482.0, -470.0, -438.0, -389.0, -286.0, -207.0, -144.0, -76.0, 14.0, 140.0, 241.0, 301.0, 352.0, 365.0, 395.0, 409.0, 416.0, 422.0, 425.0, 427.0, 428.0, 429.0, 430.0, 430.0, 431.0, 431.0, 431.0, 431.0, 431.0, 431.0, 431.0, 431.0, 431.0, 431.0, 431.0, 431.0, 431.0, 431.0, 431.0, 431.0, 431.0, 431.0, 431.0, 431.0, 431.0, 431.0, 431.0, 431.0, 431.0, 431.0, 431.0, 431.0, 431.0, 431.0, 431.0, 431.0, 431.0, 431.0, 431.0, 431.0, 431.0, 431.0]	[0.011908427171874791, 0.01756090234266594, 0.02488010676461272, 0.03918332656030543, 0.05604483748902567, 0.07243326085153967, 0.08942243034834974, 0.10577057639602572, 0.12257576739648357, 0.13909696930204518, 0.15596701356116682, 0.17247865814715624, 0.1893176411103923, 0.2058088057092391, 0.22265666333260015, 0.23908433996257372, 0.2560171895311214, 0.2724216555361636, 0.2890947506239172, 0.30578184040496126, 0.3227112766180653, 0.33884984417818487, 0.35593834158498794, 0.37240390619263053, 0.38946509698871523, 0.40553369125700556, 0.4227143486205023, 0.43908297465532087, 0.4560284535109531, 0.4724073195247911, 0.48932856376632117, 0.5057514617510606, 0.5226621246547438, 0.5389085534552578, 0.5560305015242193, 0.5724793408007827, 0.5893493850890081, 0.6058129016892053, 0.622730391274672, 0.6391147186222952, 0.6559390242618974, 0.6724052715289872, 0.6893046704644803, 0.7057774030545261, 0.7226785086386371, 0.7391618225665297, 0.7559035256272182, 0.7724281408591196, 0.789295113121625, 0.8057640910847113, 0.8227064979437273, 0.8392259931715671, 0.8560192375152837, 0.8724237035203259, 0.889313545107143, 0.9057995897019282, 0.9227853458723985, 0.9390713693283033, 0.9561216374277137, 0.9721622424258385, 0.9894265263574198, 1.005810853705043, 1.0227266366127878, 1.038892169483006, 1.0560130935336929, 1.0724670528143179, 1.0893469957518391, 1.1058111950405873, 1.1227239059226122, 1.1389024094678462, 1.155970085557783, 1.1724789994768798, 1.1892309425165877, 1.205838843015954, 1.2226378899940755, 1.2390293853532057, 1.256002170877764, 1.2724233621847816, 1.2893469957634807, 1.3057518030691426, 1.322697964613326, 1.338956340070581, 1.3560229921713471, 1.372478658129694, 1.3892503984970972, 1.405785936396569, 1.4226559806556907, 1.4392440838273615, 1.4559335629164707, 1.472506647463888, 1.4893388037453406, 1.5058053923712578, 1.5226826046418864, 1.5391058439563494, 1.5560158242005855, 1.5724076608603355]
8	inanimate/n43.jpg	inanimate	animate	left	0.801	[0.0, 0.0, 0.0, 0.0, 0.0, 0.0, 0.0, 0.0, 0.0, 0.0, 0.0, 0.0, 0.0, 0.0, 0.0, 0.0, 1.0, 1.0, 1.0, 1.0, -1.0, -14.0, -47.0, -85.0, -130.0, -184.0, -249.0, -317.0, -382.0, -456.0, -522.0, -577.0, -637.0, -659.0, -675.0, -688.0, -697.0, -700.0, -702.0, -702.0, -704.0, -705.0, -705.0, -705.0, -705.0, -705.0, -705.0, -705.0, -705.0]	[-490.0, -490.0, -490.0, -490.0, -490.0, -490.0, -490.0, -490.0, -490.0, -490.0, -490.0, -490.0, -490.0, -489.0, -488.0, -486.0, -484.0, -480.0, -474.0, -453.0, -427.0, -346.0, -273.0, -216.0, -162.0, -103.0, -32.0, 37.0, 96.0, 180.0, 241.0, 285.0, 332.0, 353.0, 373.0, 392.0, 405.0, 412.0, 416.0, 420.0, 422.0, 425.0, 425.0, 427.0, 427.0, 427.0, 427.0, 427.0, 427.0]	[0.007864313258323818, 0.014401182357687503, 0.019424580736085773, 0.030617915181210265, 0.04754496208624914, 0.06395386540680192, 0.08089285893947817, 0.09728333030943759, 0.11417180654825643, 0.13062952051404864, 0.14753847674001008, 0.16398799870512448, 0.18091333893244155, 0.19724817300448194, 0.21413357724668458, 0.2306534138333518, 0.24755963939242065, 0.26388798814150505, 0.2807884110370651, 0.2972618263156619, 0.31414723058696836, 0.33065034181345254, 0.3475790953671094, 0.36377398288459517, 0.38076827238546684, 0.39725670631742105, 0.4141953585203737, 0.4306046031997539, 0.4475538367405534, 0.46370093763107434, 0.48089285896276124, 0.497286402300233, 0.5140755506290589, 0.5307670777256135, 0.5475302847626153, 0.5638982281088829, 0.5808273230213672, 0.5973191702796612, 0.6141902385279536, 0.6303475794265978, 0.6475197034305893, 0.6639600094058551, 0.6808693069615401, 0.6970382531872019, 0.714130846579792, 0.7306626298232004, 0.7475678313930985, 0.7639327027718537, 0.7808870562876109]
9	animate/a4.jpg	inanimate	animate	right	0.968	[0.0, 0.0, 1.0, 1.0, 2.0, 3.0, 4.0, 7.0, 8.0, 11.0, 11.0, 13.0, 13.0, 13.0, 13.0, 13.0, 13.0, 13.0, 13.0, 13.0, 13.0, 13.0, 17.0, 49.0, 52.0, 56.0, 60.0, 60.0, 59.0, 54.0, 30.0, -12.0, -128.0, -227.0, -340.0, -462.0, -583.0, -688.0, -793.0, -874.0, -931.0, -953.0, -960.0, -953.0, -898.0, -782.0, -642.0, -469.0, -248.0, -40.0, 154.0, 335.0, 483.0, 589.0, 642.0, 667.0, 673.0, 673.0]	[-490.0, -489.0, -487.0, -487.0, -485.0, -482.0, -480.0, -478.0, -477.0, -477.0, -474.0, -460.0, -460.0, -460.0, -460.0, -460.0, -460.0, -460.0, -460.0, -460.0, -460.0, -460.0, -461.0, -485.0, -485.0, -485.0, -478.0, -470.0, -456.0, -430.0, -390.0, -342.0, -272.0, -233.0, -200.0, -168.0, -135.0, -88.0, -46.0, -8.0, 17.0, 33.0, 39.0, 51.0, 83.0, 134.0, 193.0, 248.0, 310.0, 349.0, 371.0, 391.0, 410.0, 426.0, 438.0, 445.0, 448.0, 448.0]	[0.0009304738487116992, 0.006321146589471027, 0.016952646838035434, 0.03356669133063406, 0.05071253271307796, 0.06704122276278213, 0.08389795504626818, 0.10031914638238959, 0.11721069461782463, 0.13372506987070665, 0.1505606395076029, 0.1670122094801627, 0.18398397098644637, 0.20033177570439875, 0.2172216172912158, 0.2336294966225978, 0.25063368477276526, 0.26702552146161906, 0.28402288295910694, 0.3003444050264079, 0.31729193188948557, 0.33357351800077595, 0.35063368477858603, 0.36709412941127084, 0.38393857367918827, 0.4000918185629416, 0.41720113731571473, 0.4334455181087833, 0.4506200314499438, 0.46675996435806155, 0.4838672350742854, 0.5003143677022308, 0.5172168386343401, 0.5337250698648859, 0.5506087674584705, 0.5668295962968841, 0.5838232031092048, 0.6003321170283016, 0.6171762199955992, 0.6337438431801274, 0.6505807781650219, 0.6669859268295113, 0.6839146803831682, 0.7003423570131417, 0.7172697452479042, 0.7336202806327492, 0.7504906662215944, 0.7670637507690117, 0.7839433523477055, 0.8002959357399959, 0.8171509613457602, 0.8337247285526246, 0.8506060368090402, 0.8670166468073148, 0.8839153630542569, 0.9003942396375351, 0.9173738518147729, 0.9336766005726531]
10	animate/a53.jpg	animate	inanimate	left	0.827	[0.0, 0.0, 0.0, 0.0, 0.0, 0.0, 0.0, 0.0, 0.0, 0.0, 0.0, 0.0, 0.0, 3.0, 4.0, 0.0, -15.0, -35.0, -80.0, -148.0, -217.0, -274.0, -320.0, -362.0, -397.0, -422.0, -440.0, -465.0, -484.0, -500.0, -519.0, -544.0, -577.0, -615.0, -647.0, -675.0, -699.0, -716.0, -735.0, -741.0, -748.0, -757.0, -772.0, -779.0, -784.0, -787.0, -788.0, -788.0, -788.0, -788.0]	[-490.0, -490.0, -490.0, -490.0, -490.0, -490.0, -490.0, -490.0, -490.0, -490.0, -490.0, -490.0, -490.0, -487.0, -483.0, -465.0, -443.0, -354.0, -242.0, -168.0, -112.0, -62.0, -21.0, 13.0, 40.0, 57.0, 67.0, 73.0, 77.0, 85.0, 97.0, 111.0, 128.0, 151.0, 170.0, 192.0, 211.0, 224.0, 239.0, 246.0, 258.0, 286.0, 331.0, 362.0, 384.0, 403.0, 419.0, 430.0, 433.0, 434.0]	[0.001479678729083389, 0.008938488346757367, 0.014110707939835265, 0.031103290762985125, 0.04757636471185833, 0.06437950770487078, 0.08085872564697638, 0.09784379915799946, 0.11416736923274584, 0.1311514187254943, 0.14746372480294667, 0.16445801430381835, 0.18063071518554352, 0.1978147858462762, 0.21431789710186422, 0.23112240541377105, 0.24759001802885905, 0.2644406063191127, 0.2809488375787623, 0.29779567118384875, 0.31422539585037157, 0.3310295628325548, 0.3475726100441534, 0.3644365103391465, 0.38093654956901446, 0.3977782631991431, 0.4142079878656659, 0.43112684274092317, 0.44732309560640715, 0.4643975983490236, 0.4809123149316292, 0.4978284391690977, 0.5142871771240607, 0.5311466400744393, 0.5472937409649603, 0.5644607449648902, 0.5808536056429148, 0.597746519226348, 0.6142055985401385, 0.6310039628588129, 0.6475511060853023, 0.66444538498763, 0.6810222241620068, 0.697738327231491, 0.714237342501292, 0.7309868962038308, 0.7475395007350016, 0.7643194331030827, 0.7808730616234243, 0.7977458365785424]
11	inanimate/n64.jpg	inanimate	animate	left	2.102	[0.0, 0.0, 0.0, 0.0, 0.0, 0.0, 0.0, 0.0, 0.0, 0.0, 0.0, 0.0, 0.0, 0.0, 0.0, 0.0, 0.0, 0.0, 0.0, 0.0, 0.0, 0.0, 0.0, 0.0, 0.0, -5.0, -24.0, -59.0, -106.0, -203.0, -285.0, -362.0, -442.0, -513.0, -574.0, -627.0, -680.0, -723.0, -740.0, -755.0, -765.0, -772.0, -782.0, -790.0, -793.0, -796.0, -797.0, -799.0, -799.0, -800.0, -800.0, -800.0, -800.0, -800.0, -800.0, -800.0, -800.0, -800.0, -800.0, -800.0, -800.0, -800.0, -800.0, -800.0, -800.0, -800.0, -800.0, -800.0, -787.0, -703.0, -562.0, -379.0, -158.0, 72.0, 317.0, 557.0, 770.0, 959.0, 959.0, 959.0, 959.0, 959.0, 959.0, 959.0, 959.0, 959.0, 959.0, 959.0, 959.0, 959.0, 959.0, 959.0, 952.0, 943.0, 933.0, 927.0, 925.0, 925.0, 924.0, 924.0, 924.0, 924.0, 924.0, 924.0, 924.0, 922.0, 891.0, 821.0, 722.0, 584.0, 419.0, 249.0, 77.0, -169.0, -315.0, -431.0, -526.0, -594.0, -638.0, -657.0, -663.0, -663.0, -663.0, -663.0, -663.0, -663.0]	[-490.0, -490.0, -490.0, -490.0, -490.0, -490.0, -490.0, -490.0, -490.0, -490.0, -490.0, -490.0, -490.0, -490.0, -490.0, -490.0, -490.0, -490.0, -490.0, -490.0, -490.0, -490.0, -490.0, -490.0, -490.0, -487.0, -475.0, -450.0, -416.0, -337.0, -256.0, -133.0, -19.0, 59.0, 125.0, 187.0, 248.0, 304.0, 327.0, 349.0, 366.0, 382.0, 401.0, 416.0, 421.0, 427.0, 432.0, 434.0, 436.0, 437.0, 437.0, 437.0, 437.0, 437.0, 437.0, 437.0, 437.0, 437.0, 437.0, 437.0, 437.0, 437.0, 437.0, 437.0, 437.0, 437.0, 437.0, 437.0, 437.0, 437.0, 437.0, 437.0, 437.0, 437.0, 437.0, 437.0, 437.0, 437.0, 437.0, 437.0, 437.0, 437.0, 437.0, 437.0, 437.0, 437.0, 437.0, 437.0, 437.0, 437.0, 437.0, 437.0, 437.0, 437.0, 437.0, 437.0, 437.0, 437.0, 437.0, 437.0, 437.0, 437.0, 437.0, 437.0, 437.0, 437.0, 437.0, 430.0, 421.0, 421.0, 421.0, 421.0, 421.0, 421.0, 421.0, 421.0, 421.0, 421.0, 421.0, 421.0, 421.0, 421.0, 421.0, 421.0, 421.0, 421.0]	[0.003667282173410058, 0.008866808406310156, 0.022664513962808996, 0.039060446637449786, 0.056100816087564453, 0.07250767142977566, 0.08948864892590791, 0.10567466178326868, 0.12277988452115096, 0.13918332653702237, 0.15618956269463524, 0.1725308820605278, 0.1895019609364681, 0.20594090156373568, 0.22276554853306152, 0.23913212658953853, 0.2561223200755194, 0.27253395406296477, 0.28950400892063044, 0.30593032023170963, 0.3228498577955179, 0.33921950781950727, 0.35614177605020814, 0.37254282872891054, 0.3895422382338438, 0.4058589816268068, 0.42280241250409745, 0.43929972109617665, 0.4560943307587877, 0.4725250794144813, 0.48948796626063995, 0.5059098402562086, 0.5226634899736382, 0.538970676047029, 0.5560404001444113, 0.5724486208055168, 0.5894490542996209, 0.6056340431678109, 0.6227860285143834, 0.6392075611802284, 0.656055760133313, 0.6725663807010278, 0.6894354009709787, 0.7057378083991352, 0.7227829565235879, 0.7390256306680385, 0.7561410933849402, 0.772519276739331, 0.7894377903139684, 0.8059118882520124, 0.8228290364786517, 0.8392079025215935, 0.8562301813217346, 0.8723335915710777, 0.8894913796102628, 0.905886288266629, 0.9227481405541766, 0.9391317852423526, 0.9561161760939285, 0.9724854847881943, 0.9894804569485132, 1.0057791096915025, 1.0228368871612474, 1.0391986865142826, 1.0561837600253057, 1.0725015274365433, 1.0893954650091473, 1.1058675149688497, 1.1228051431826316, 1.139263539807871, 1.1561820533534046, 1.1722622529778164, 1.1893985370115843, 1.2058166563510895, 1.2227925138431601, 1.2393137157487217, 1.2562206239963416, 1.2724964074441232, 1.2894101423444226, 1.3058671736216638, 1.3227870525151957, 1.340496093413094, 1.3561759093718138, 1.3724953834316693, 1.3894490543170832, 1.4059525069023948, 1.422765548544703, 1.4392133638320956, 1.4562646559497807, 1.4726291859988123, 1.4894357423181646, 1.505886970931897, 1.5228095804923214, 1.5392587611277122, 1.5561861493624747, 1.5725192767567933, 1.589482846262399, 1.6059197389113251, 1.6227908071887214, 1.6391911771788727, 1.65618410136085, 1.6725431700760964, 1.6894278916588519, 1.7058968695928343, 1.7227358525560703, 1.7393021104217041, 1.7560642934695352, 1.7722724929626565, 1.7893688410404138, 1.8059228109195828, 1.822879553772509, 1.8392048305249773, 1.8561445067171007, 1.8725459007255267, 1.8893275397422258, 1.9059552375401836, 1.9228816017857753, 1.93923555049696, 1.9561212960688863, 1.9725206420698669, 1.9894166276790202, 2.005909498926485, 2.0228054845065344, 2.0392471558006946, 2.056090576108545, 2.0725489727337845]
12	animate/a36.jpg	animate	inanimate	left	0.896	[0.0, 0.0, 0.0, 0.0, 0.0, 0.0, 0.0, 0.0, 0.0, 0.0, 0.0, 0.0, 0.0, 0.0, 0.0, 0.0, 0.0, 0.0, -1.0, -10.0, -20.0, -30.0, -48.0, -86.0, -135.0, -189.0, -248.0, -331.0, -431.0, -501.0, -545.0, -565.0, -580.0, -590.0, -597.0, -599.0, -601.0, -601.0, -602.0, -603.0, -605.0, -607.0, -612.0, -619.0, -628.0, -638.0, -654.0, -665.0, -677.0, -684.0, -688.0, -692.0, -692.0, -692.0]	[-490.0, -490.0, -490.0, -490.0, -490.0, -490.0, -490.0, -490.0, -490.0, -490.0, -490.0, -490.0, -490.0, -490.0, -490.0, -490.0, -490.0, -490.0, -490.0, -490.0, -491.0, -491.0, -487.0, -458.0, -422.0, -340.0, -218.0, -97.0, 16.0, 79.0, 120.0, 143.0, 164.0, 181.0, 196.0, 203.0, 208.0, 211.0, 214.0, 221.0, 229.0, 234.0, 245.0, 264.0, 281.0, 300.0, 331.0, 347.0, 367.0, 380.0, 388.0, 393.0, 393.0, 393.0]	[0.00029764240025542676, 0.008206328988308087, 0.015704733261372894, 0.032496953586814925, 0.0487485023913905, 0.06581993316649459, 0.082311439095065, 0.09915656605153345, 0.1154770641005598, 0.13243858562782407, 0.14898060885025188, 0.16581481316825375, 0.18230119909276254, 0.1991801180120092, 0.21561803465010598, 0.23255122554837726, 0.248666241124738, 0.2658697677834425, 0.2822592151351273, 0.29920059800497256, 0.31558970402693376, 0.3325252842332702, 0.348932480905205, 0.36588103175745346, 0.3824302229913883, 0.3991722673526965, 0.4156115493387915, 0.43247237760806456, 0.44891302491305396, 0.465857821109239, 0.4820059460180346, 0.4992442886286881, 0.5155088080791757, 0.5324222016497515, 0.5489713928545825, 0.5658318798232358, 0.5820342766528483, 0.5991879686771426, 0.6156313466490246, 0.6325379135669209, 0.6489594462036621, 0.6657677092007361, 0.6822708204563241, 0.699172950029606, 0.715627591998782, 0.732501390913967, 0.7488976649183314, 0.7658356344618369, 0.7819902446935885, 0.7991859206813388, 0.81562827466405, 0.8325345002231188, 0.848909952910617, 0.8658021838346031]
13	inanimate/n11.jpg	animate	inanimate	right	1.564	[0.0, 0.0, 0.0, 0.0, 0.0, 0.0, 0.0, 0.0, 0.0, 0.0, 0.0, 0.0, 0.0, 0.0, -4.0, -20.0, -38.0, -70.0, -115.0, -171.0, -230.0, -283.0, -334.0, -393.0, -452.0, -513.0, -573.0, -638.0, -652.0, -671.0, -682.0, -693.0, -703.0, -716.0, -727.0, -736.0, -744.0, -748.0, -750.0, -754.0, -754.0, -754.0, -754.0, -754.0, -754.0, -754.0, -754.0, -754.0, -754.0, -754.0, -754.0, -754.0, -754.0, -754.0, -754.0, -754.0, -754.0, -754.0, -754.0, -754.0, -754.0, -754.0, -754.0, -754.0, -754.0, -754.0, -754.0, -754.0, -754.0, -754.0, -754.0, -754.0, -754.0, -754.0, -747.0, -688.0, -510.0, -332.0, -119.0, 102.0, 329.0, 547.0, 717.0, 863.0, 959.0, 959.0, 959.0, 959.0, 959.0, 959.0, 959.0, 959.0, 959.0, 959.0]	[-490.0, -490.0, -490.0, -490.0, -490.0, -490.0, -490.0, -490.0, -490.0, -490.0, -490.0, -490.0, -490.0, -487.0, -481.0, -467.0, -454.0, -430.0, -406.0, -373.0, -337.0, -298.0, -219.0, -115.0, -31.0, 68.0, 153.0, 248.0, 270.0, 304.0, 325.0, 342.0, 359.0, 373.0, 384.0, 392.0, 400.0, 405.0, 409.0, 412.0, 412.0, 412.0, 412.0, 412.0, 412.0, 412.0, 412.0, 412.0, 412.0, 412.0, 412.0, 412.0, 412.0, 412.0, 412.0, 412.0, 412.0, 412.0, 412.0, 412.0, 412.0, 412.0, 412.0, 412.0, 412.0, 412.0, 412.0, 412.0, 412.0, 412.0, 412.0, 412.0, 412.0, 412.0, 414.0, 414.0, 414.0, 414.0, 414.0, 414.0, 414.0, 414.0, 414.0, 414.0, 414.0, 414.0, 423.0, 429.0, 434.0, 436.0, 436.0, 436.0, 436.0, 436.0]	[0.01404141733655706, 0.01962903921958059, 0.02655161466100253, 0.04329263503313996, 0.06032481251168065, 0.07662209993577562, 0.09357440547319129, 0.10994234881945886, 0.12701821693917736, 0.14325577107956633, 0.1603992230957374, 0.1768026651116088, 0.19364881605724804, 0.21012325535411946, 0.2270690755394753, 0.24349880020599812, 0.26036338313133456, 0.2769354436604772, 0.2935651894658804, 0.3101884499483276, 0.32703596624196507, 0.34348651219625026, 0.3603347111493349, 0.3765616839809809, 0.3937836426193826, 0.4100618154043332, 0.4270226542430464, 0.4431943311356008, 0.4603272018430289, 0.4768262170837261, 0.4936119520862121, 0.510187767300522, 0.527059859567089, 0.5434383842512034, 0.5603405138244852, 0.5768088090990204, 0.5936180960852653, 0.6101375913422089, 0.6269530223216861, 0.6434148322732653, 0.6604627110646106, 0.6768296304217074, 0.6936880693829153, 0.7101102846791036, 0.7269755502929911, 0.7434127842716407, 0.7603367591509596, 0.7768187077599578, 0.7936979680380318, 0.8101055060396902, 0.8270503022358753, 0.8434967522043735, 0.8603524604695849, 0.8767917424556799, 0.8936740747012664, 0.9100106154510286, 0.9270598595612682, 0.9434530615690164, 0.9603906897827983, 0.9765214066719636, 0.9937153760110959, 1.0101956179423723, 1.0270724888832774, 1.0434206349309534, 1.0603691858123057, 1.0767722864693496, 1.0936809013655875, 1.1100201727531385, 1.1269912516290788, 1.143181019142503, 1.1603176445059944, 1.1767613638076, 1.1938372318982147, 1.2101136980054434, 1.2269851076125633, 1.24344418689725, 1.2603005778510123, 1.2765777266467921, 1.2935747467854526, 1.3101386153430212, 1.3269769156177063, 1.3432844430499244, 1.3602794152102433, 1.376744979817886, 1.3937208373390604, 1.4100812713732012, 1.4271468994847964, 1.4434411149122752, 1.4603422204963863, 1.4767521478061099, 1.4937102560070343, 1.5100843433756381, 1.5270117316104006, 1.5432349497568794]
14	inanimate/n72.jpg	animate	inanimate	right	2.301	[0.0, 0.0, 0.0, 0.0, 0.0, 0.0, 0.0, 0.0, 0.0, 0.0, 0.0, 0.0, 0.0, 0.0, 0.0, 0.0, 0.0, 0.0, 0.0, 0.0, 0.0, 0.0, 0.0, 0.0, 0.0, 0.0, 0.0, 0.0, 0.0, 0.0, 0.0, 0.0, 0.0, 0.0, 0.0, 0.0, -4.0, -7.0, -15.0, -26.0, -36.0, -49.0, -62.0, -81.0, -97.0, -111.0, -123.0, -139.0, -147.0, -156.0, -164.0, -167.0, -168.0, -170.0, -171.0, -172.0, -175.0, -176.0, -178.0, -180.0, -181.0, -182.0, -183.0, -183.0, -186.0, -186.0, -186.0, -186.0, -186.0, -186.0, -187.0, -187.0, -191.0, -197.0, -208.0, -218.0, -230.0, -247.0, -280.0, -308.0, -319.0, -326.0, -333.0, -337.0, -340.0, -340.0, -342.0, -344.0, -344.0, -345.0, -345.0, -345.0, -346.0, -352.0, -357.0, -361.0, -365.0, -375.0, -390.0, -412.0, -436.0, -463.0, -494.0, -542.0, -591.0, -634.0, -677.0, -699.0, -726.0, -736.0, -739.0, -740.0, -741.0, -742.0, -742.0, -742.0, -742.0, -742.0, -704.0, -569.0, -348.0, -89.0, 186.0, 442.0, 690.0, 908.0, 959.0, 959.0, 959.0, 959.0, 959.0, 959.0, 959.0, 959.0, 959.0, 959.0, 959.0, 959.0]	[-490.0, -490.0, -490.0, -490.0, -490.0, -490.0, -490.0, -490.0, -490.0, -490.0, -490.0, -490.0, -490.0, -490.0, -490.0, -490.0, -490.0, -490.0, -490.0, -490.0, -490.0, -490.0, -490.0, -490.0, -490.0, -490.0, -490.0, -490.0, -490.0, -490.0, -490.0, -490.0, -489.0, -484.0, -479.0, -469.0, -460.0, -449.0, -433.0, -413.0, -396.0, -380.0, -367.0, -349.0, -335.0, -324.0, -314.0, -301.0, -296.0, -288.0, -281.0, -276.0, -275.0, -272.0, -270.0, -268.0, -261.0, -257.0, -251.0, -242.0, -235.0, -230.0, -225.0, -219.0, -215.0, -212.0, -211.0, -208.0, -205.0, -202.0, -197.0, -183.0, -157.0, -134.0, -110.0, -85.0, -57.0, -16.0, 62.0, 122.0, 151.0, 175.0, 198.0, 216.0, 237.0, 249.0, 259.0, 266.0, 270.0, 271.0, 271.0, 271.0, 271.0, 272.0, 275.0, 275.0, 276.0, 278.0, 280.0, 286.0, 294.0, 301.0, 313.0, 335.0, 356.0, 375.0, 393.0, 403.0, 418.0, 426.0, 431.0, 435.0, 439.0, 442.0, 444.0, 444.0, 444.0, 444.0, 450.0, 450.0, 450.0, 450.0, 450.0, 450.0, 450.0, 450.0, 450.0, 450.0, 450.0, 450.0, 450.0, 450.0, 450.0, 450.0, 450.0, 450.0, 450.0, 450.0]	[0.004142759134992957, 0.00943581061437726, 0.022979223052971065, 0.04016636571031995, 0.05633974925149232, 0.07348012930015102, 0.0899136085936334, 0.10695363671402447, 0.12303076434182003, 0.1401226750749629, 0.15669951427844353, 0.17348456662148237, 0.18999348054057918, 0.20685635681729764, 0.22324716948787682, 0.2402254163462203, 0.2566134983499069, 0.27355761188664474, 0.2899576405470725, 0.3067915035353508, 0.3232935907726642, 0.34019572034594603, 0.35657731705578044, 0.3735849185322877, 0.3899415979103651, 0.40685123682487756, 0.42331407076562755, 0.4402991442766506, 0.4566076956980396, 0.47358969718334265, 0.48994535257224925, 0.5068529434793163, 0.5232522894802969, 0.5402762749581598, 0.5563759305514395, 0.5734012813481968, 0.5899289685767144, 0.6067737542034592, 0.6231751482118852, 0.6401899176998995, 0.6566244210116565, 0.673531670589, 0.6899750485317782, 0.7068502128240652, 0.7231918735487852, 0.7402711549657397, 0.7566230556694791, 0.7734483853273559, 0.7896668247994967, 0.8068676207913086, 0.8232577508024406, 0.8401349630730692, 0.8565878983645234, 0.8734569186344743, 0.8899364779063035, 0.9067928688600659, 0.9232659428089391, 0.9403097255853936, 0.9566261276777368, 0.9734166413545609, 0.9899631018924993, 1.0068130075233057, 1.023273110797163, 1.0402162003447302, 1.0566066716855858, 1.0734548706386704, 1.089973683207063, 1.1068809327844065, 1.1233065614360385, 1.140293000265956, 1.1566124743549153, 1.1735047052789014, 1.1897883393685333, 1.2069495407340582, 1.2232789134723134, 1.2401916243543383, 1.2567257969058119, 1.2735156279231887, 1.2899371605890337, 1.3067314289219212, 1.323418860003585, 1.3402455549803562, 1.356636708980659, 1.3735333772492595, 1.3900044031906873, 1.4068140315066557, 1.4231195109314285, 1.4401807016984094, 1.4565868743811734, 1.4734715959639288, 1.4896859394502826, 1.5068495301529765, 1.5232236175215803, 1.540257501648739, 1.556613839667989, 1.5734466786379926, 1.5898757206450682, 1.6068317808385473, 1.6232935907901265, 1.640185480355285, 1.6565940423752181, 1.6735040225903504, 1.6896545368072111, 1.7068741061375476, 1.7232536548108328, 1.7401841150422115, 1.7563213172543328, 1.773447702638805, 1.789895859285025, 1.8069253060675692, 1.8231550095661078, 1.8400670377886854, 1.8565902877016924, 1.8735122146026697, 1.889936819236027, 1.9069952793652192, 1.9232307854981627, 1.9401841150247492, 1.9565554717264604, 1.9734606732963584, 1.9898333953460678, 2.006928378075827, 2.0233294307545293, 2.040088883106364, 2.056566735729575, 2.0734548706386704, 2.0899514965713024, 2.106945786072174, 2.1232669668097515, 2.1401953790336847, 2.1564257651625667, 2.173570241226116, 2.1899569578818046, 2.2068799088010564, 2.223030423017917, 2.240227464324562, 2.256630223680986, 2.273475691967178]
15	inanimate/n18.jpg	animate	inanimate	right	1.394	[0.0, 0.0, 0.0, 0.0, 0.0, 0.0, 1.0, 1.0, 2.0, 2.0, 2.0, 3.0, 3.0, 4.0, 4.0, 4.0, 5.0, 6.0, 6.0, 3.0, 1.0, -18.0, -42.0, -74.0, -113.0, -171.0, -232.0, -319.0, -390.0, -444.0, -483.0, -511.0, -541.0, -559.0, -569.0, -580.0, -589.0, -591.0, -597.0, -604.0, -609.0, -618.0, -630.0, -646.0, -663.0, -673.0, -676.0, -676.0, -676.0, -660.0, -540.0, -472.0, -162.0, 78.0, 327.0, 555.0, 750.0, 896.0, 959.0, 959.0, 959.0, 959.0, 959.0, 959.0, 959.0, 959.0, 959.0, 959.0, 959.0, 959.0, 959.0, 959.0, 959.0, 959.0, 959.0, 959.0, 959.0, 959.0, 952.0, 946.0, 940.0, 933.0, 931.0, 931.0]	[-490.0, -490.0, -490.0, -490.0, -490.0, -489.0, -487.0, -485.0, -484.0, -483.0, -481.0, -479.0, -479.0, -476.0, -476.0, -474.0, -466.0, -453.0, -436.0, -414.0, -351.0, -252.0, -194.0, -135.0, -76.0, -9.0, 57.0, 141.0, 215.0, 262.0, 289.0, 303.0, 321.0, 333.0, 342.0, 352.0, 359.0, 362.0, 367.0, 371.0, 373.0, 378.0, 385.0, 393.0, 404.0, 411.0, 411.0, 412.0, 412.0, 419.0, 433.0, 433.0, 433.0, 433.0, 420.0, 398.0, 366.0, 347.0, 333.0, 326.0, 324.0, 324.0, 324.0, 324.0, 323.0, 323.0, 323.0, 323.0, 323.0, 323.0, 323.0, 323.0, 323.0, 323.0, 323.0, 323.0, 323.0, 323.0, 335.0, 345.0, 351.0, 359.0, 361.0, 361.0]	[0.007041359320282936, 0.012282186857191846, 0.02486679478897713, 0.041436124651227146, 0.0599107755406294, 0.07534346636384726, 0.09168068977305666, 0.1086080779787153, 0.12475347222061828, 0.14186893493751995, 0.15835873418836854, 0.1752158078015782, 0.1916704497707542, 0.20851216340088286, 0.22504497063346207, 0.24189316958654672, 0.2581358437309973, 0.27524345577694476, 0.2917537350440398, 0.30860500599374063, 0.3248210561578162, 0.3419604121882003, 0.35816383303608745, 0.3752291197888553, 0.3916503111249767, 0.40851387006114237, 0.4250384852930438, 0.441823196306359, 0.45841505416319706, 0.4752379944548011, 0.4917298417130951, 0.5086166113032959, 0.5263474975072313, 0.5418955589120742, 0.5585143820790108, 0.5752868050767574, 0.5916561137710232, 0.6086360673070885, 0.6248487041157205, 0.641897948255064, 0.6583225528884213, 0.675264277117094, 0.691724721720675, 0.7085893046751153, 0.7248688427789602, 0.7419849881553091, 0.7584607927710749, 0.77526666643098, 0.7916765937698074, 0.808608760649804, 0.824985920015024, 0.8419354948855471, 0.8583833101729397, 0.8752301438071299, 0.8917390577262267, 0.908589987346204, 0.9250596479396336, 0.9418720069224946, 0.958368291525403, 0.9754120743018575, 0.9916830791044049, 1.0086022753093857, 1.0250057173252571, 1.0419576815329492, 1.0581375503970776, 1.075245162443025, 1.0916670364385936, 1.1086548406165093, 1.1249835306662135, 1.1419587055279408, 1.1583153849060182, 1.1754028583236504, 1.1916305138147436, 1.2086135393183213, 1.224772928195307, 1.24190033756895, 1.2584157368110027, 1.2753690663375892, 1.2914618952781893, 1.3085855499957688, 1.3250169813109096, 1.342038918781327, 1.3583129955804907, 1.3752168318023905]
16	animate/a21.jpg	inanimate	animate	right	1.197	[0.0, 0.0, 0.0, 0.0, 0.0, 0.0, 0.0, 0.0, 0.0, 0.0, 0.0, 0.0, 0.0, 0.0, 0.0, 0.0, 0.0, 0.0, 0.0, -4.0, -17.0, -45.0, -83.0, -129.0, -180.0, -247.0, -353.0, -404.0, -444.0, -473.0, -509.0, -534.0, -549.0, -563.0, -582.0, -596.0, -613.0, -637.0, -655.0, -671.0, -685.0, -699.0, -709.0, -718.0, -725.0, -733.0, -736.0, -738.0, -740.0, -741.0, -741.0, -741.0, -741.0, -741.0, -741.0, -741.0, -741.0, -696.0, -567.0, -394.0, -62.0, 54.0, 385.0, 561.0, 698.0, 799.0, 856.0, 894.0, 913.0, 915.0, 915.0, 915.0]	[-490.0, -490.0, -490.0, -490.0, -490.0, -490.0, -490.0, -490.0, -490.0, -490.0, -490.0, -490.0, -490.0, -490.0, -490.0, -490.0, -490.0, -490.0, -481.0, -465.0, -447.0, -397.0, -311.0, -240.0, -167.0, -72.0, 60.0, 115.0, 149.0, 174.0, 199.0, 217.0, 231.0, 244.0, 261.0, 274.0, 288.0, 306.0, 318.0, 328.0, 339.0, 347.0, 353.0, 360.0, 365.0, 372.0, 376.0, 378.0, 381.0, 382.0, 382.0, 382.0, 382.0, 382.0, 382.0, 382.0, 383.0, 383.0, 383.0, 383.0, 383.0, 383.0, 383.0, 383.0, 383.0, 385.0, 385.0, 390.0, 394.0, 395.0, 395.0, 395.0]	[0.0057675043935887516, 0.012064075039234012, 0.026240660256007686, 0.04330253371153958, 0.059798135625896975, 0.07679105980787426, 0.09296922199428082, 0.10963037045439705, 0.12915052444441244, 0.14335236832266673, 0.1596015277900733, 0.1767630704853218, 0.1930535312567372, 0.21005362342111766, 0.22628639888716862, 0.2433591949811671, 0.2598131542908959, 0.27674088382627815, 0.29318562714615837, 0.31008673273026943, 0.3263106335361954, 0.34347627221723087, 0.35982919693924487, 0.3767193798557855, 0.39322146712220274, 0.4100672767381184, 0.42627308689407073, 0.44343121626297943, 0.45991760218748823, 0.4767743344709743, 0.49315524849225767, 0.5100870740425307, 0.5263816307997331, 0.543480709544383, 0.559681058395654, 0.5767190385377035, 0.5932617444195785, 0.6100928767118603, 0.6265987186343409, 0.6434332642529625, 0.6599090688687284, 0.6766913905448746, 0.6931996218045242, 0.7100853673764504, 0.7265441053314134, 0.7434441869263537, 0.7596049411222339, 0.776678761234507, 0.7929405500181019, 0.8100368980958592, 0.826585406641243, 0.8434776375652291, 0.8597967702953611, 0.8767521478293929, 0.8929531793401111, 0.9101010687008966, 0.9265802866430022, 0.943407322949497, 0.9598315862822346, 0.9767736518115271, 0.9932467257604003, 1.0101253033499233, 1.0265420573414303, 1.0434527202451136, 1.0598851755494252, 1.0767746758065186, 1.093193477805471, 1.110097996715922, 1.1262717215868179, 1.14334485901054, 1.1598558209079783, 1.1767989104555454]
17	inanimate/n80.jpg	inanimate	animate	left	0.878	[0.0, 0.0, 0.0, 0.0, 0.0, 0.0, 0.0, 0.0, 0.0, 0.0, 0.0, 0.0, 0.0, 0.0, 0.0, 0.0, 0.0, 0.0, 0.0, 0.0, 0.0, 0.0, 0.0, 0.0, -16.0, -43.0, -89.0, -167.0, -249.0, -339.0, -468.0, -503.0, -587.0, -625.0, -650.0, -661.0, -667.0, -671.0, -671.0, -696.0, -722.0, -738.0, -746.0, -751.0, -758.0, -760.0, -760.0, -760.0, -760.0, -759.0, -757.0, -757.0, -757.0]	[-490.0, -490.0, -490.0, -490.0, -490.0, -490.0, -490.0, -490.0, -490.0, -490.0, -490.0, -490.0, -490.0, -490.0, -490.0, -490.0, -490.0, -490.0, -490.0, -490.0, -490.0, -490.0, -490.0, -490.0, -489.0, -489.0, -489.0, -489.0, -478.0, -461.0, -443.0, -434.0, -410.0, -399.0, -387.0, -374.0, -346.0, -271.0, -165.0, 21.0, 207.0, 299.0, 347.0, 361.0, 395.0, 411.0, 425.0, 443.0, 457.0, 468.0, 473.0, 473.0, 473.0]	[0.006179493386298418, 0.021308739145752043, 0.0270847768697422, 0.04410432500299066, 0.060504012362798676, 0.07762596040265635, 0.09407650635694154, 0.11092811866546981, 0.12720014742808416, 0.14435179147403687, 0.16074874813784845, 0.1776870590110775, 0.19395396779873408, 0.21095201195566915, 0.22738071260391735, 0.24434394080890343, 0.26075045482139103, 0.2776894483540673, 0.2940481757395901, 0.31097692929324694, 0.3274261098995339, 0.3442934235208668, 0.3607071055157576, 0.37761367240455, 0.3938109492592048, 0.4108615587174427, 0.42725271271774545, 0.44435588747728616, 0.46069276952766813, 0.477599677775288, 0.4940686557092704, 0.510936993319774, 0.5271735234709922, 0.5443668101215735, 0.5607787854387425, 0.5776846696971916, 0.5940638770407531, 0.6109581559721846, 0.627383443294093, 0.6444388313975651, 0.660713590827072, 0.6777024190232623, 0.6940328157506883, 0.7109963852562942, 0.7271670381305739, 0.744353156798752, 0.7607559161260724, 0.7776406377379317, 0.7940345224051271, 0.8109199266764335, 0.8274479552346747, 0.8444296153902542, 0.86060675358749]
18	inanimate/n29.jpg	inanimate	animate	left	0.729	[0.0, 0.0, 0.0, 0.0, 0.0, 0.0, 0.0, 0.0, 0.0, 0.0, 0.0, 0.0, 0.0, 0.0, 0.0, 0.0, 0.0, 0.0, -25.0, -81.0, -154.0, -234.0, -317.0, -396.0, -468.0, -534.0, -589.0, -628.0, -654.0, -678.0, -692.0, -706.0, -721.0, -735.0, -752.0, -767.0, -780.0, -791.0, -802.0, -806.0, -808.0, -810.0, -810.0, -810.0]	[-490.0, -490.0, -490.0, -490.0, -490.0, -490.0, -490.0, -490.0, -490.0, -490.0, -490.0, -490.0, -490.0, -490.0, -490.0, -490.0, -490.0, -490.0, -467.0, -421.0, -358.0, -278.0, -176.0, -82.0, 1.0, 79.0, 144.0, 189.0, 219.0, 248.0, 267.0, 287.0, 305.0, 322.0, 339.0, 352.0, 364.0, 376.0, 388.0, 397.0, 404.0, 407.0, 407.0, 407.0]	[0.003204093227395788, 0.008571555314119905, 0.021429571002954617, 0.03831770594115369, 0.054799995879875496, 0.07163385883904994, 0.08805470881634392, 0.10505514231044799, 0.12142649901215918, 0.13834979123203084, 0.15472968126414344, 0.1716789148049429, 0.18785946632851847, 0.20490632110158913, 0.22116298991022632, 0.2383013219514396, 0.2547644972219132, 0.27178575203288347, 0.28806051149149425, 0.3048827691236511, 0.3214862323075067, 0.33833886857610196, 0.35469418263528496, 0.3717502533982042, 0.3880594874790404, 0.40500257702660747, 0.42139714438235387, 0.43832623926573433, 0.4547586945700459, 0.4717707333911676, 0.4881554020685144, 0.504851707839407, 0.521511490951525, 0.5383296525978949, 0.5547303639177699, 0.5716744774836116, 0.5881837327033281, 0.6049998463713564, 0.6214244510047138, 0.6383419405901805, 0.6547446999175008, 0.6716952987771947, 0.6880458341620397, 0.7050264703575522]
19	animate/a48.jpg	animate	inanimate	left	1.997	[0.0, 0.0, 0.0, 0.0, 0.0, 0.0, 0.0, 0.0, 0.0, 0.0, 0.0, 0.0, -1.0, -1.0, -1.0, -2.0, -2.0, -7.0, -14.0, -24.0, -45.0, -70.0, -101.0, -166.0, -236.0, -295.0, -347.0, -414.0, -429.0, -470.0, -488.0, -504.0, -519.0, -533.0, -553.0, -574.0, -600.0, -628.0, -652.0, -675.0, -681.0, -688.0, -688.0, -688.0, -688.0, -688.0, -688.0, -688.0, -688.0, -688.0, -688.0, -688.0, -688.0, -688.0, -688.0, -688.0, -688.0, -688.0, -688.0, -688.0, -688.0, -688.0, -688.0, -688.0, -688.0, -688.0, -688.0, -688.0, -688.0, -688.0, -688.0, -688.0, -688.0, -688.0, -688.0, -688.0, -688.0, -688.0, -688.0, -688.0, -688.0, -688.0, -688.0, -688.0, -688.0, -688.0, -688.0, -688.0, -688.0, -688.0, -688.0, -688.0, -688.0, -688.0, -688.0, -688.0, -688.0, -688.0, -688.0, -688.0, -688.0, -688.0, -688.0, -688.0, -688.0, -688.0, -688.0, -688.0, -688.0, -688.0, -688.0, -688.0, -688.0, -688.0, -688.0, -688.0, -688.0, -688.0, -688.0, -688.0]	[-490.0, -490.0, -490.0, -490.0, -490.0, -490.0, -490.0, -490.0, -490.0, -488.0, -486.0, -484.0, -482.0, -482.0, -482.0, -479.0, -478.0, -465.0, -449.0, -425.0, -392.0, -342.0, -226.0, -81.0, 27.0, 97.0, 158.0, 218.0, 232.0, 262.0, 274.0, 287.0, 300.0, 312.0, 330.0, 354.0, 384.0, 416.0, 441.0, 468.0, 474.0, 480.0, 480.0, 480.0, 480.0, 480.0, 480.0, 480.0, 480.0, 480.0, 480.0, 480.0, 480.0, 480.0, 480.0, 480.0, 480.0, 480.0, 480.0, 480.0, 480.0, 480.0, 480.0, 480.0, 480.0, 480.0, 480.0, 480.0, 480.0, 480.0, 480.0, 480.0, 480.0, 480.0, 480.0, 480.0, 480.0, 480.0, 480.0, 480.0, 480.0, 480.0, 480.0, 480.0, 480.0, 480.0, 480.0, 480.0, 480.0, 480.0, 480.0, 480.0, 480.0, 480.0, 480.0, 480.0, 480.0, 480.0, 480.0, 480.0, 480.0, 480.0, 480.0, 480.0, 480.0, 480.0, 480.0, 480.0, 480.0, 480.0, 480.0, 480.0, 480.0, 480.0, 480.0, 480.0, 480.0, 480.0, 480.0, 480.0]	[0.014728862093761563, 0.02040284124086611, 0.027893053513253108, 0.04456717261928134, 0.06171540330979042, 0.077927357488079, 0.0950824148603715, 0.11148517418769188, 0.12841699973796494, 0.14484399370849133, 0.1617512432858348, 0.17815297862398438, 0.19505749753443524, 0.2112865183444228, 0.2284169997437857, 0.2448040577583015, 0.26170755265047774, 0.27816048797103576, 0.295152729464462, 0.3115240861661732, 0.32829173051868565, 0.34482078306609765, 0.3617331526475027, 0.3781693626078777, 0.3951213268155698, 0.41148039553081617, 0.428415634407429, 0.4448142977489624, 0.46174680595868267, 0.477904146828223, 0.4950260948971845, 0.5113141663314309, 0.5284569357172586, 0.5448078124318272, 0.5617683099408168, 0.5781441039580386, 0.5950325802259613, 0.6112400970596354, 0.6284060770703945, 0.6448477483936585, 0.6617007259919774, 0.6781512719753664, 0.6951015295053367, 0.71148244352662, 0.7284385037200991, 0.7446521645470057, 0.7618420378712472, 0.7781550266372506, 0.795039748220006, 0.8112718410266098, 0.8283651171077508, 0.8449061163410079, 0.8617430512967985, 0.8781942799396347, 0.8951100628182758, 0.9114821021794342, 0.9284808290249202, 0.9448378497327212, 0.9617253019823693, 0.9779010748316068, 0.9950209748931229, 1.0115957660891581, 1.0284569357172586, 1.0447054124961141, 1.0617857179313432, 1.0782202212431002, 1.0950479402090423, 1.1114821021910757, 1.128467858361546, 1.144706095161382, 1.1617119899892714, 1.1782075919036288, 1.195109380147187, 1.2114838088455144, 1.228367506439099, 1.2448637910420075, 1.2617618246295024, 1.2782331919006538, 1.2950626175443176, 1.3116162460646592, 1.3284507917123847, 1.3445767299563158, 1.361762165935943, 1.3782123705896083, 1.3951564841263462, 1.4114940488361754, 1.4284583010303322, 1.4445634179573972, 1.4617420273134485, 1.4781895012711175, 1.4950390655430965, 1.5114534302265383, 1.5283801357727498, 1.5448689110344276, 1.5617894725874066, 1.5781144080101512, 1.5950817321718205, 1.611382432951359, 1.6283832077751867, 1.6445668312953785, 1.6617051633365918, 1.678131474647671, 1.6950581801938824, 1.7114701555401552, 1.72842177838902, 1.7447975724353455, 1.7617997125780676, 1.7781195279967505, 1.795046233542962, 1.8114534302148968, 1.828388327761786, 1.8448617430403829, 1.8617816219339147, 1.8782376292219851, 1.895049305545399, 1.9114687902037986, 1.9283907171047758, 1.9448074710962828, 1.9618464751983993, 1.9781181626603939]
20	inanimate/n12.jpg	inanimate	animate	right	1.136	[0.0, 0.0, 0.0, 0.0, 0.0, 0.0, 0.0, 0.0, 0.0, 0.0, 0.0, 0.0, 0.0, 0.0, -6.0, -37.0, -75.0, -113.0, -170.0, -246.0, -333.0, -402.0, -470.0, -529.0, -581.0, -600.0, -615.0, -624.0, -636.0, -649.0, -674.0, -712.0, -746.0, -772.0, -791.0, -818.0, -823.0, -827.0, -831.0, -833.0, -836.0, -838.0, -838.0, -839.0, -839.0, -839.0, -839.0, -839.0, -839.0, -828.0, -765.0, -633.0, -444.0, -217.0, 12.0, 225.0, 409.0, 565.0, 693.0, 810.0, 845.0, 866.0, 878.0, 880.0, 880.0, 880.0, 880.0, 880.0, 880.0]	[-490.0, -490.0, -490.0, -490.0, -490.0, -490.0, -490.0, -490.0, -490.0, -490.0, -490.0, -490.0, -490.0, -490.0, -489.0, -491.0, -491.0, -480.0, -442.0, -405.0, -369.0, -340.0, -310.0, -285.0, -270.0, -259.0, -243.0, -222.0, -182.0, -133.0, -49.0, 91.0, 205.0, 269.0, 315.0, 365.0, 376.0, 395.0, 406.0, 416.0, 429.0, 440.0, 448.0, 453.0, 456.0, 457.0, 457.0, 457.0, 457.0, 458.0, 458.0, 458.0, 458.0, 458.0, 458.0, 463.0, 463.0, 463.0, 460.0, 460.0, 460.0, 460.0, 461.0, 462.0, 462.0, 462.0, 462.0, 462.0, 462.0]	[0.008236707624746487, 0.01377961490652524, 0.025476415583398193, 0.0314507678267546, 0.04844642264652066, 0.06475190207129344, 0.08171205827966332, 0.0981124282698147, 0.11504425382008776, 0.13130433595506474, 0.14846383064286783, 0.16476282474468462, 0.18171649560099468, 0.19798306305892766, 0.21501489917864092, 0.2314142451796215, 0.248403756035259, 0.2647611180727836, 0.281685434281826, 0.2979997883667238, 0.3150425471540075, 0.33138420787872747, 0.34839590537012555, 0.36476180073805153, 0.3816902129619848, 0.398149633576395, 0.41502172584296204, 0.43148831446887925, 0.4484395959880203, 0.4647658967296593, 0.48165369030903094, 0.49811413494171575, 0.5149282006022986, 0.5313644105626736, 0.5483627960784361, 0.5647740887361579, 0.5816902129445225, 0.5981605562265031, 0.6150398165045772, 0.6314637384784874, 0.6484686093172058, 0.664775454060873, 0.6816666609665845, 0.6981544122390915, 0.7150381098326761, 0.7314087838749401, 0.748507179931039, 0.7647942273761146, 0.781612730352208, 0.7981011642841622, 0.8150555178290233, 0.8314743197988719, 0.8482907747966237, 0.8645344729302451, 0.8817141062754672, 0.897853356495034, 0.9149527765694074, 0.931465103814844, 0.9483283214212861, 0.9649280299199745, 0.981636623677332, 0.9981236922612879, 1.0149776938778814, 1.0314408691774588, 1.0484634893073235, 1.0647501954226755, 1.0816516423365101, 1.0981045776279643, 1.1150579071545508]
21	inanimate/n61.jpg	inanimate	animate	right	1.399	[0.0, 0.0, 0.0, 0.0, 0.0, 0.0, 0.0, 0.0, 0.0, 0.0, 0.0, 0.0, 0.0, 0.0, 0.0, 0.0, 0.0, 0.0, 0.0, 0.0, 0.0, -17.0, -42.0, -86.0, -177.0, -204.0, -286.0, -329.0, -386.0, -437.0, -486.0, -566.0, -638.0, -674.0, -696.0, -718.0, -748.0, -760.0, -791.0, -818.0, -834.0, -844.0, -847.0, -848.0, -851.0, -853.0, -853.0, -853.0, -853.0, -845.0, -842.0, -839.0, -837.0, -823.0, -792.0, -706.0, -571.0, -382.0, -157.0, 64.0, 266.0, 519.0, 646.0, 738.0, 781.0, 802.0, 810.0, 810.0, 810.0, 810.0, 810.0, 810.0, 810.0, 810.0, 810.0, 810.0, 810.0, 810.0, 811.0, 810.0, 805.0, 800.0, 796.0, 796.0, 796.0]	[-490.0, -490.0, -490.0, -490.0, -490.0, -490.0, -490.0, -490.0, -490.0, -490.0, -490.0, -490.0, -490.0, -490.0, -490.0, -490.0, -490.0, -490.0, -490.0, -490.0, -490.0, -490.0, -490.0, -485.0, -474.0, -466.0, -430.0, -412.0, -387.0, -368.0, -353.0, -336.0, -321.0, -290.0, -244.0, -183.0, -41.0, 31.0, 228.0, 317.0, 374.0, 410.0, 424.0, 431.0, 439.0, 453.0, 462.0, 473.0, 488.0, 509.0, 516.0, 519.0, 521.0, 523.0, 523.0, 515.0, 496.0, 469.0, 430.0, 396.0, 369.0, 334.0, 318.0, 318.0, 318.0, 319.0, 323.0, 323.0, 323.0, 323.0, 323.0, 323.0, 323.0, 323.0, 323.0, 323.0, 323.0, 323.0, 327.0, 339.0, 351.0, 367.0, 375.0, 375.0, 375.0]	[0.009310200024629012, 0.013621919002616778, 0.01922251156065613, 0.03405274957185611, 0.05020838379277848, 0.06742658774601296, 0.08386962438817136, 0.10086118322215043, 0.11720557461376302, 0.13404455757699907, 0.15045619156444445, 0.16745389439165592, 0.1836866698868107, 0.20069768468965776, 0.21713287066086195, 0.23410906951176003, 0.2504985168634448, 0.2675136276811827, 0.2838150111201685, 0.3005894821253605, 0.3169686894689221, 0.3339769736339804, 0.350522410182748, 0.3675126036978327, 0.38382047243067063, 0.4007325006823521, 0.4171748546359595, 0.43401929893298075, 0.45054391416488215, 0.4674207851057872, 0.483840952423634, 0.5007352313259616, 0.5171482306614053, 0.5339366963307839, 0.5504903248802293, 0.5674504810594954, 0.5838406110706273, 0.6007345486723352, 0.6172216172562912, 0.6340810802066699, 0.6505316261609551, 0.6673371584911365, 0.6838443657616153, 0.7007140686910134, 0.717064945405582, 0.734075960208429, 0.7504865702067036, 0.7673815317975823, 0.7838184244465083, 0.8006130341091193, 0.8171857772977091, 0.8340640135575086, 0.8505063675402198, 0.8673719744838309, 0.8838003337732516, 0.9007096313580405, 0.9171618839900475, 0.9340725468937308, 0.9504691622278187, 0.9673808491206728, 0.9839215070242062, 1.0007362553442363, 1.0171857773093507, 1.034078690892784, 1.0505152421828825, 1.0673945024609566, 1.0838863497192506, 1.100777556624962, 1.1171745133178774, 1.1340606002195273, 1.15022715710802, 1.1673822144512087, 1.1837798538035713, 1.200694271363318, 1.217127068026457, 1.2341957681055646, 1.2504292262601666, 1.2674170304380823, 1.2838402697525453, 1.3007079247036017, 1.3170997613633517, 1.33409029620816, 1.3504797435598448, 1.367430001089815, 1.3838034057698678]
22	animate/a43.jpg	animate	inanimate	left	0.749	[0.0, 0.0, 0.0, 0.0, 0.0, 0.0, 0.0, 0.0, 0.0, 0.0, 0.0, 8.0, 17.0, 27.0, 38.0, 44.0, 28.0, -26.0, -88.0, -186.0, -253.0, -316.0, -381.0, -437.0, -480.0, -515.0, -538.0, -561.0, -579.0, -591.0, -607.0, -620.0, -635.0, -650.0, -667.0, -687.0, -706.0, -717.0, -726.0, -734.0, -734.0, -734.0, -734.0, -734.0, -734.0]	[-490.0, -490.0, -490.0, -490.0, -490.0, -490.0, -490.0, -490.0, -490.0, -490.0, -490.0, -489.0, -481.0, -464.0, -441.0, -414.0, -356.0, -211.0, -66.0, 56.0, 116.0, 161.0, 202.0, 232.0, 254.0, 268.0, 283.0, 296.0, 305.0, 312.0, 323.0, 333.0, 346.0, 359.0, 374.0, 387.0, 398.0, 408.0, 413.0, 418.0, 418.0, 418.0, 418.0, 418.0, 418.0]	[0.01434793442604132, 0.019455983390798792, 0.02693220099899918, 0.04380019727977924, 0.060752844146918505, 0.0771450221654959, 0.09408913570223376, 0.11058234830852598, 0.12736740065156482, 0.1437988319376018, 0.16074431082233787, 0.17691223302972503, 0.19409289036411792, 0.2102925565559417, 0.22734316598507576, 0.24385037322645076, 0.2607330468308646, 0.27721226477297023, 0.2940573917294387, 0.3105157883546781, 0.3273315606638789, 0.34398895446793176, 0.3607815161230974, 0.3771593581477646, 0.39401472511235625, 0.4105301243253052, 0.4274609258864075, 0.4437984906253405, 0.46065078556421213, 0.4771552621386945, 0.4940106291032862, 0.5105116923514288, 0.5274923285178374, 0.543852079892531, 0.5606600015598815, 0.5771221528411843, 0.5939433864841703, 0.6105215910065453, 0.6287477514706552, 0.6435762828041334, 0.6606719482224435, 0.6768774170486722, 0.6940372530661989, 0.7103963217814453, 0.7275042751862202]
23	inanimate/n54.jpg	animate	inanimate	right	1.266	[0.0, 0.0, 0.0, 0.0, 0.0, 0.0, 0.0, 0.0, 0.0, 0.0, 0.0, 0.0, 0.0, 0.0, 0.0, -5.0, -43.0, -91.0, -185.0, -246.0, -308.0, -381.0, -449.0, -510.0, -554.0, -582.0, -599.0, -618.0, -645.0, -660.0, -678.0, -694.0, -709.0, -723.0, -731.0, -744.0, -759.0, -766.0, -773.0, -778.0, -781.0, -783.0, -783.0, -783.0, -783.0, -783.0, -783.0, -783.0, -783.0, -783.0, -783.0, -775.0, -703.0, -576.0, -307.0, -104.0, 95.0, 284.0, 446.0, 586.0, 690.0, 760.0, 802.0, 832.0, 840.0, 840.0, 840.0, 840.0, 840.0, 840.0, 840.0, 840.0, 840.0, 840.0, 840.0, 840.0]	[-490.0, -490.0, -490.0, -490.0, -490.0, -490.0, -490.0, -490.0, -490.0, -490.0, -490.0, -490.0, -490.0, -490.0, -490.0, -475.0, -453.0, -424.0, -370.0, -335.0, -294.0, -233.0, -151.0, -49.0, 18.0, 51.0, 71.0, 90.0, 125.0, 150.0, 175.0, 198.0, 218.0, 234.0, 248.0, 267.0, 286.0, 299.0, 317.0, 334.0, 348.0, 359.0, 369.0, 372.0, 373.0, 374.0, 374.0, 374.0, 374.0, 374.0, 374.0, 380.0, 382.0, 382.0, 382.0, 382.0, 382.0, 382.0, 382.0, 382.0, 384.0, 392.0, 399.0, 405.0, 409.0, 409.0, 409.0, 409.0, 409.0, 409.0, 409.0, 409.0, 409.0, 409.0, 409.0, 409.0]	[0.0017469424929004163, 0.007209636503830552, 0.018429936259053648, 0.03518836462171748, 0.052910034835804254, 0.06868371737073176, 0.08492093018139713, 0.102090323518496, 0.11855520549579524, 0.13536142048542388, 0.15183381174574606, 0.1686997600190807, 0.1850933033565525, 0.2022227607667446, 0.21846816554898396, 0.23541330310399644, 0.2515491399972234, 0.2686690400587395, 0.2851315326697659, 0.3019537903019227, 0.31864565872820094, 0.33548054570565, 0.351815721107414, 0.36865538673009723, 0.38513699400937185, 0.4020022595941555, 0.4184753335430287, 0.43535595913999714, 0.45182630242197774, 0.4686550454061944, 0.4851346046780236, 0.5020548249012791, 0.5183323149976786, 0.5354375377355609, 0.5517133211833425, 0.5687738292908762, 0.5851465513114817, 0.6020476568955928, 0.618448026914848, 0.6354846417088993, 0.6517911451228429, 0.6687100000272039, 0.6851226580038201, 0.702043219585903, 0.7184432482463308, 0.7354061350924894, 0.7516307185869664, 0.7686833760526497, 0.7851107113528997, 0.8020582382159773, 0.8184388109075371, 0.835418423084775, 0.8517518918088172, 0.8686461707402486, 0.8851544019707944, 0.9020230809110217, 0.9185132215206977, 0.9354331004142296, 0.9517948997963686, 0.9686888373689726, 0.9850868180510588, 1.0020886168640573, 1.018453829572536, 1.0353504978120327, 1.0517877317906823, 1.068768367957091, 1.0851666899689008, 1.102088616869878, 1.1184483682445716, 1.1354498257278465, 1.151509204035392, 1.168685082695447, 1.185146209987579, 1.2020753048709594, 1.2184524642361794, 1.2354477777262218]
24	inanimate/n16.jpg	animate	inanimate	left	0.732	[0.0, 0.0, 0.0, 0.0, 0.0, 0.0, 0.0, 0.0, 0.0, 0.0, 0.0, 0.0, 0.0, 0.0, 0.0, 0.0, -12.0, -25.0, -46.0, -73.0, -107.0, -165.0, -249.0, -334.0, -396.0, -446.0, -509.0, -541.0, -567.0, -596.0, -615.0, -635.0, -651.0, -668.0, -682.0, -694.0, -706.0, -711.0, -718.0, -722.0, -727.0, -730.0, -730.0, -730.0, -730.0]	[-490.0, -490.0, -490.0, -490.0, -490.0, -490.0, -490.0, -490.0, -490.0, -490.0, -490.0, -490.0, -490.0, -490.0, -489.0, -476.0, -456.0, -425.0, -362.0, -316.0, -270.0, -188.0, -76.0, 9.0, 61.0, 100.0, 143.0, 169.0, 203.0, 242.0, 264.0, 289.0, 311.0, 335.0, 355.0, 371.0, 385.0, 394.0, 403.0, 408.0, 414.0, 416.0, 416.0, 416.0, 416.0]	[0.008586915326304734, 0.023544811905594543, 0.028455911698983982, 0.04269700890290551, 0.0592079708003439, 0.07621693762484938, 0.09261150495149195, 0.10949486121535301, 0.1259327778534498, 0.1428714300855063, 0.15900999764562584, 0.17630466021364555, 0.1923343425441999, 0.20948871722794138, 0.225912980560679, 0.24282705679070204, 0.25939536263467744, 0.2762643829046283, 0.29238281183643267, 0.3093767599784769, 0.3256719994242303, 0.3428297874343116, 0.3592212827934418, 0.37619167898083106, 0.39259034232236445, 0.4094979332294315, 0.4259484791837167, 0.44280623545637354, 0.45930593338562176, 0.4761534496792592, 0.4925766889937222, 0.5094412719481625, 0.5259129805490375, 0.5427755154960323, 0.5593195866968017, 0.57620669764583, 0.592570203676587, 0.609435810620198, 0.6259392632055096, 0.6427656168234535, 0.6591810054960661, 0.6762142069637775, 0.6925882943323813, 0.7095228505204432, 0.725716031389311]
25	inanimate/n33.jpg	animate	inanimate	right	1.017	[0.0, 0.0, 0.0, 0.0, 0.0, 0.0, 0.0, 0.0, 0.0, -6.0, -17.0, -30.0, -30.0, -30.0, -30.0, -30.0, -30.0, -30.0, -30.0, -30.0, -30.0, -6.0, -6.0, 22.0, 48.0, 55.0, 49.0, 43.0, -8.0, -45.0, -99.0, -172.0, -250.0, -333.0, -415.0, -486.0, -553.0, -611.0, -673.0, -718.0, -756.0, -773.0, -780.0, -783.0, -784.0, -785.0, -785.0, -783.0, -755.0, -675.0, -464.0, -366.0, -46.0, 184.0, 397.0, 575.0, 707.0, 791.0, 811.0, 811.0, 811.0]	[-490.0, -490.0, -490.0, -490.0, -490.0, -490.0, -490.0, -490.0, -490.0, -490.0, -482.0, -473.0, -470.0, -470.0, -470.0, -470.0, -470.0, -470.0, -470.0, -470.0, -470.0, -465.0, -465.0, -464.0, -463.0, -461.0, -441.0, -420.0, -334.0, -295.0, -244.0, -183.0, -115.0, -48.0, 12.0, 63.0, 109.0, 153.0, 201.0, 237.0, 265.0, 279.0, 286.0, 291.0, 294.0, 298.0, 303.0, 308.0, 316.0, 328.0, 353.0, 365.0, 383.0, 385.0, 385.0, 385.0, 384.0, 375.0, 372.0, 372.0, 372.0]	[0.016368284675991163, 0.02310005493927747, 0.030893712275428697, 0.04775658855214715, 0.06443036632845178, 0.08136048520100303, 0.09758370337658562, 0.11464796614018269, 0.13110397342825308, 0.14812044956488535, 0.16450921425712295, 0.1815140850667376, 0.19763080732082017, 0.21476333669852465, 0.23112035740632564, 0.24804126031813212, 0.2644368516630493, 0.28133727455860935, 0.29750690344371833, 0.3147244247375056, 0.3309100962651428, 0.34800371367600746, 0.3644433369918261, 0.3813232799002435, 0.3977519805484917, 0.41473159272572957, 0.4311715573712718, 0.4480375056446064, 0.4644737156049814, 0.48131167457904667, 0.4977714365522843, 0.5147155500890221, 0.5311015840852633, 0.5479890363640152, 0.5644214916683268, 0.5812584266241174, 0.5978267324971966, 0.6148005420109257, 0.6308414883096702, 0.6479747003759257, 0.6644812249578536, 0.6813249865663238, 0.6978427751455456, 0.7146916567580774, 0.7311258187401108, 0.7479661670513451, 0.7645075075852219, 0.7813591198646463, 0.7978048871736974, 0.8146810754551552, 0.8311882826965302, 0.8479760657064617, 0.8644559663080145, 0.8813843785319477, 0.8978393618017435, 0.9146773207758088, 0.9311080694315024, 0.9480286309844814, 0.9644406063016504, 0.9812632052926347, 0.9977519805543125]
26	animate/a68.jpg	inanimate	animate	right	0.952	[0.0, 0.0, 0.0, 0.0, 0.0, 0.0, 0.0, 0.0, 0.0, 0.0, 0.0, 0.0, -1.0, -4.0, -11.0, -18.0, -31.0, -51.0, -74.0, -103.0, -133.0, -172.0, -217.0, -275.0, -325.0, -385.0, -423.0, -455.0, -484.0, -520.0, -546.0, -576.0, -616.0, -678.0, -720.0, -742.0, -759.0, -772.0, -775.0, -777.0, -780.0, -781.0, -781.0, -781.0, -781.0, -781.0, -748.0, -650.0, -493.0, -307.0, 39.0, 270.0, 486.0, 664.0, 802.0, 897.0, 932.0, 933.0]	[-490.0, -490.0, -490.0, -490.0, -490.0, -490.0, -490.0, -490.0, -490.0, -490.0, -490.0, -490.0, -490.0, -488.0, -482.0, -476.0, -465.0, -449.0, -433.0, -406.0, -381.0, -341.0, -281.0, -197.0, -121.0, -17.0, 50.0, 105.0, 156.0, 203.0, 244.0, 285.0, 343.0, 420.0, 461.0, 478.0, 490.0, 498.0, 500.0, 500.0, 502.0, 502.0, 502.0, 502.0, 502.0, 502.0, 501.0, 483.0, 459.0, 435.0, 387.0, 366.0, 364.0, 364.0, 364.0, 364.0, 364.0, 364.0]	[0.006588751683011651, 0.011102881166152656, 0.01673555903835222, 0.028335421142401174, 0.04495219627278857, 0.061890507175121456, 0.07833422647672705, 0.0953042813052889, 0.11179988324875012, 0.12861429023905657, 0.14478630843223073, 0.1619437551125884, 0.1783246691338718, 0.19525649468414485, 0.21156675278325565, 0.22869518614606932, 0.2449999829113949, 0.2618915311759338, 0.27834207713021897, 0.2952049534069374, 0.3117299099685624, 0.3286009782459587, 0.3450474282144569, 0.36193385647493415, 0.3783499277778901, 0.3952209960552864, 0.41154797945637256, 0.42865798086859286, 0.444889732345473, 0.4619055258226581, 0.4783854264242109, 0.49522475071717054, 0.5117944219091441, 0.5286596875230316, 0.545036505558528, 0.5618857285007834, 0.5783390051219612, 0.5952326013939455, 0.6114623048633803, 0.6285774262505583, 0.6450433322170284, 0.661953653790988, 0.67816629059962, 0.6953251026279759, 0.7117664325924125, 0.7285774262563791, 0.7449965695850551, 0.7619031364738476, 0.7783693837700412, 0.7952554707007948, 0.811440459539881, 0.8286132662324235, 0.8450098815665115, 0.8618754885101225, 0.8783724557724781, 0.895234990719473, 0.9118306032032706, 0.9286265782138798]
27	inanimate/n17.jpg	animate	inanimate	right	1.001	[0.0, 0.0, 0.0, 0.0, 0.0, 0.0, 0.0, 0.0, 0.0, -5.0, -45.0, -87.0, -137.0, -204.0, -304.0, -365.0, -418.0, -452.0, -480.0, -518.0, -531.0, -549.0, -566.0, -579.0, -595.0, -615.0, -646.0, -663.0, -676.0, -681.0, -685.0, -686.0, -686.0, -686.0, -686.0, -686.0, -686.0, -686.0, -686.0, -686.0, -686.0, -686.0, -686.0, -686.0, -686.0, -686.0, -640.0, -521.0, -248.0, -135.0, 204.0, 426.0, 620.0, 771.0, 866.0, 918.0, 942.0, 954.0, 954.0, 954.0]	[-490.0, -490.0, -490.0, -490.0, -490.0, -490.0, -490.0, -490.0, -490.0, -481.0, -448.0, -381.0, -280.0, -163.0, 4.0, 91.0, 155.0, 193.0, 232.0, 279.0, 292.0, 302.0, 310.0, 318.0, 333.0, 349.0, 371.0, 383.0, 392.0, 397.0, 400.0, 401.0, 401.0, 401.0, 401.0, 401.0, 401.0, 401.0, 401.0, 401.0, 401.0, 401.0, 401.0, 401.0, 401.0, 401.0, 401.0, 401.0, 406.0, 408.0, 422.0, 440.0, 462.0, 477.0, 492.0, 501.0, 503.0, 506.0, 506.0, 506.0]	[0.0031911225814837962, 0.008226126286899671, 0.02134048310108483, 0.03777498641284183, 0.05482764387852512, 0.07151985363452695, 0.08803900753264315, 0.10493396909441799, 0.12148964565130882, 0.13818424474447966, 0.15472456128918566, 0.1716099655313883, 0.1880386661796365, 0.20497151574818417, 0.22139441373292357, 0.23837880455539562, 0.2546723373234272, 0.2715778802521527, 0.28777071976219304, 0.3048745771520771, 0.3213865630677901, 0.3382637753384188, 0.35449791615246795, 0.37162498419638723, 0.3878219197213184, 0.40493567576049827, 0.42135789108579047, 0.43826104467734694, 0.45492253443808295, 0.4716109895380214, 0.48781850637169555, 0.5049530837568454, 0.5214343497063965, 0.5382596793351695, 0.5546781400043983, 0.5715768562513404, 0.5880386662029196, 0.6049776597355958, 0.6214486856770236, 0.6382060900505167, 0.654584614734631, 0.6716004082118161, 0.6880980581336189, 0.7049319211218972, 0.721402264374774, 0.7382456846826244, 0.754435110866325, 0.7715379442670383, 0.7881127354630735, 0.8049247531162109, 0.8211261259566527, 0.8382651406573132, 0.854849147843197, 0.8717639067326672, 0.8879915622237604, 0.9048762838356197, 0.9213821257289965, 0.9383211192907766, 0.9546754093316849, 0.9715922162286006]
28	animate/a73.jpg	animate	inanimate	left	1.414	[0.0, 0.0, 0.0, 0.0, 0.0, 0.0, 0.0, 0.0, 0.0, 0.0, -1.0, -7.0, -19.0, -36.0, -74.0, -114.0, -169.0, -210.0, -267.0, -322.0, -369.0, -419.0, -454.0, -475.0, -500.0, -515.0, -528.0, -537.0, -547.0, -557.0, -568.0, -580.0, -596.0, -604.0, -609.0, -616.0, -621.0, -631.0, -631.0, -631.0, -631.0, -628.0, -620.0, -613.0, -607.0, -595.0, -561.0, -480.0, -387.0, -259.0, -217.0, -194.0, -177.0, -158.0, -134.0, -93.0, -33.0, 45.0, 124.0, 187.0, 235.0, 274.0, 292.0, 311.0, 323.0, 325.0, 325.0, 325.0, 311.0, 259.0, 169.0, 42.0, -122.0, -290.0, -538.0, -683.0, -787.0, -856.0, -887.0, -900.0, -901.0, -901.0, -901.0, -901.0, -901.0]	[-490.0, -490.0, -490.0, -490.0, -490.0, -490.0, -490.0, -490.0, -488.0, -484.0, -478.0, -465.0, -447.0, -429.0, -395.0, -359.0, -321.0, -292.0, -254.0, -217.0, -183.0, -143.0, -114.0, -95.0, -69.0, -50.0, -34.0, -17.0, -1.0, 16.0, 44.0, 84.0, 120.0, 141.0, 163.0, 184.0, 205.0, 225.0, 233.0, 239.0, 247.0, 256.0, 268.0, 280.0, 288.0, 299.0, 308.0, 321.0, 334.0, 350.0, 357.0, 359.0, 362.0, 362.0, 362.0, 362.0, 362.0, 362.0, 364.0, 364.0, 368.0, 368.0, 369.0, 369.0, 369.0, 369.0, 369.0, 369.0, 368.0, 361.0, 359.0, 359.0, 359.0, 359.0, 359.0, 368.0, 392.0, 415.0, 423.0, 426.0, 428.0, 428.0, 428.0, 428.0, 428.0]	[0.0023511019826401025, 0.007439353648805991, 0.019675460527651012, 0.03643457157886587, 0.052956456143874675, 0.06989510834682733, 0.08603265191777609, 0.10317678662249818, 0.11966522055445239, 0.13652195283793844, 0.15293734148144722, 0.16985141771147028, 0.1863531636481639, 0.20318190660327673, 0.21962016457109712, 0.2364960115228314, 0.252952701470349, 0.26987428704160266, 0.28627431570203044, 0.3032129679049831, 0.3196406445640605, 0.33650454482994974, 0.35291105884243734, 0.3698162604123354, 0.3862739743781276, 0.40317507996223867, 0.41964200988877565, 0.4365434568026103, 0.4530397414055187, 0.46989169501466677, 0.48624086508061737, 0.5032105785794556, 0.519684335187776, 0.5365523314685561, 0.5529168615175877, 0.5698893056833185, 0.5862500810471829, 0.6031832719454542, 0.6196102659159806, 0.6364680222177412, 0.6530680720461532, 0.6697387778258417, 0.6862340384104755, 0.7031784932769369, 0.7196385965798981, 0.7365243421518244, 0.7527550696395338, 0.7697957804484759, 0.7863528222951572, 0.8031706426118035, 0.8196061699418351, 0.8364570995618124, 0.8529055975086521, 0.8698200150683988, 0.886290699680103, 0.9032641678641085, 0.9196198232530151, 0.9366158194025047, 0.9528799975232687, 0.9698493697214872, 0.986283190373797, 1.0031607439741492, 1.0196652205486316, 1.0364840648544487, 1.0529540668067057, 1.069840495067183, 1.0860435745562427, 1.1032102372555528, 1.119404783443315, 1.1364277449029032, 1.152795346948551, 1.169755503127817, 1.186293430364458, 1.203291474521393, 1.2195856899488717, 1.2364816755289212, 1.2529547494777944, 1.2698616577254143, 1.286082486534724, 1.303338919824455, 1.3196833111869637, 1.3364987421955448, 1.3526881683792453, 1.3697879297833424, 1.38624461973086]
29	inanimate/n24.jpg	inanimate	animate	left	2.584	[0.0, 0.0, 0.0, 0.0, 0.0, 0.0, 0.0, 0.0, 0.0, 0.0, 0.0, 0.0, 0.0, 0.0, 0.0, 0.0, -10.0, -26.0, -47.0, -85.0, -135.0, -195.0, -253.0, -315.0, -393.0, -454.0, -489.0, -508.0, -533.0, -548.0, -560.0, -573.0, -584.0, -593.0, -604.0, -618.0, -633.0, -645.0, -656.0, -662.0, -671.0, -675.0, -679.0, -685.0, -690.0, -692.0, -693.0, -693.0, -693.0, -693.0, -693.0, -693.0, -693.0, -693.0, -693.0, -693.0, -693.0, -693.0, -693.0, -693.0, -693.0, -693.0, -693.0, -678.0, -645.0, -588.0, -514.0, -422.0, -338.0, -219.0, -108.0, -13.0, 84.0, 163.0, 228.0, 277.0, 343.0, 378.0, 408.0, 435.0, 461.0, 484.0, 509.0, 532.0, 554.0, 573.0, 593.0, 600.0, 616.0, 628.0, 639.0, 654.0, 668.0, 683.0, 699.0, 711.0, 721.0, 726.0, 731.0, 737.0, 739.0, 739.0, 739.0, 739.0, 739.0, 739.0, 739.0, 739.0, 739.0, 739.0, 739.0, 739.0, 739.0, 739.0, 739.0, 739.0, 739.0, 739.0, 739.0, 739.0, 739.0, 739.0, 739.0, 739.0, 739.0, 739.0, 739.0, 739.0, 739.0, 739.0, 739.0, 739.0, 739.0, 739.0, 739.0, 739.0, 729.0, 682.0, 599.0, 461.0, 289.0, 100.0, -94.0, -291.0, -471.0, -625.0, -744.0, -831.0, -890.0, -898.0, -900.0, -900.0, -900.0, -900.0, -900.0]	[-490.0, -490.0, -490.0, -490.0, -490.0, -490.0, -490.0, -490.0, -490.0, -490.0, -490.0, -490.0, -489.0, -486.0, -484.0, -479.0, -471.0, -455.0, -434.0, -401.0, -362.0, -297.0, -183.0, -73.0, 43.0, 116.0, 158.0, 188.0, 226.0, 250.0, 270.0, 289.0, 303.0, 314.0, 329.0, 339.0, 351.0, 361.0, 371.0, 376.0, 384.0, 387.0, 389.0, 392.0, 395.0, 396.0, 397.0, 397.0, 397.0, 397.0, 397.0, 397.0, 397.0, 397.0, 397.0, 397.0, 397.0, 397.0, 397.0, 397.0, 397.0, 397.0, 397.0, 398.0, 398.0, 398.0, 398.0, 398.0, 398.0, 398.0, 398.0, 398.0, 398.0, 398.0, 398.0, 398.0, 398.0, 398.0, 399.0, 399.0, 399.0, 400.0, 401.0, 401.0, 401.0, 401.0, 401.0, 401.0, 401.0, 401.0, 401.0, 401.0, 401.0, 401.0, 401.0, 401.0, 401.0, 401.0, 401.0, 401.0, 401.0, 401.0, 401.0, 401.0, 401.0, 401.0, 401.0, 401.0, 401.0, 401.0, 401.0, 401.0, 401.0, 401.0, 401.0, 401.0, 401.0, 401.0, 401.0, 401.0, 401.0, 401.0, 401.0, 401.0, 401.0, 401.0, 401.0, 401.0, 401.0, 401.0, 401.0, 401.0, 401.0, 401.0, 401.0, 401.0, 399.0, 391.0, 384.0, 384.0, 384.0, 384.0, 401.0, 430.0, 454.0, 476.0, 492.0, 503.0, 511.0, 512.0, 513.0, 513.0, 513.0, 513.0, 513.0]	[0.012921503657707945, 0.019745092518860474, 0.025702036771690473, 0.040698162629269063, 0.0573046978097409, 0.07438329656724818, 0.09057169873267412, 0.10761616419767961, 0.12415784609038383, 0.1410623650008347, 0.15751154560712166, 0.17436827789060771, 0.19084408250637352, 0.20770081478985958, 0.2241796914022416, 0.24098693038104102, 0.25757776421960443, 0.2743809072126169, 0.2908608078432735, 0.30781311335158534, 0.3254753916116897, 0.3409562104206998, 0.35724598850356415, 0.37438739254139364, 0.39093521842733026, 0.4077885373844765, 0.4241407794179395, 0.44102652501896955, 0.45752451627049595, 0.4743068379466422, 0.49111373562482186, 0.5078533906489611, 0.5242230407020543, 0.5409814690647181, 0.5575405589188449, 0.5744041178841144, 0.5908399865147658, 0.6078649959817994, 0.624140779429581, 0.6410497356555425, 0.6575542122591287, 0.6743348272575531, 0.6910106530413032, 0.7078875239531044, 0.723958166257944, 0.741175004892284, 0.7573057218105532, 0.7743737392302137, 0.7908140452054795, 0.8078161853482015, 0.8241841287235729, 0.841071580973221, 0.8575258816126734, 0.8744037765427493, 0.8907918585464358, 0.9078028733783867, 0.9240151688572951, 0.9410862583026756, 0.9575064256205224, 0.9743962672073394, 0.9907973198860418, 1.0078223293530755, 1.0241595527622849, 1.0409797623869963, 1.0575156416161917, 1.0743983152206056, 1.0907334905932657, 1.1076902334752958, 1.1241598940687254, 1.1409227597760037, 1.157495844294317, 1.1744655578222591, 1.1908089251955971, 1.207706958783092, 1.2241445340914652, 1.2410196983546484, 1.2575446549162734, 1.274366912577534, 1.2908177998615429, 1.3077373374253511, 1.3241564807540271, 1.3409306104294956, 1.3574873109755572, 1.3743672539130785, 1.3908010745362844, 1.4076991081237793, 1.4242394246684853, 1.4410179916885681, 1.4575214442738798, 1.4742965979676228, 1.4908597838366404, 1.5078004840470385, 1.524169110081857, 1.5410790902969893, 1.5575269056134857, 1.5743914885388222, 1.5907652345777024, 1.6078602173365653, 1.6242971099563874, 1.6409415330854245, 1.6575347562611569, 1.674400363204768, 1.6909703757264651, 1.7077735187194776, 1.724152726092143, 1.7410309623519424, 1.757529636262916, 1.7744222085166257, 1.7908147278649267, 1.807732558780117, 1.8241435101081152, 1.8410548556712456, 1.8572562285116874, 1.8743996805569623, 1.8908157518599182, 1.9078062867047265, 1.9241786673956085, 1.9410367650270928, 1.95748253230704, 1.974397291225614, 1.9908174585434608, 2.0077974120504223, 2.0239257396024186, 2.041055879672058, 2.0575337322661653, 2.074441664502956, 2.09086558650597, 2.1077899027150124, 2.1241725234140176, 2.1411377995973453, 2.157401295058662, 2.1744829658127856, 2.1908270158455707, 2.2078421266633086, 2.224303936614888, 2.2410586103214882, 2.25750540161971, 2.274689130950719, 2.2908703651628457, 2.3076410815119743, 2.3241394140932243, 2.341089330293471, 2.3574798016343266, 2.374406507209642, 2.3907823012268636, 2.4076424468366895, 2.424295403296128, 2.4410668023338076, 2.4572429165127687, 2.474307179276366, 2.490883677150123, 2.5077513320720755, 2.524176619393984, 2.5410999116138555, 2.557608142873505]
30	inanimate/n29.jpg	animate	inanimate	right	1.967	[0.0, 0.0, 0.0, 0.0, 0.0, 0.0, 0.0, 0.0, 0.0, 0.0, 0.0, 0.0, 0.0, -3.0, -13.0, -23.0, -50.0, -75.0, -114.0, -176.0, -228.0, -266.0, -302.0, -333.0, -365.0, -388.0, -408.0, -437.0, -461.0, -491.0, -524.0, -566.0, -594.0, -621.0, -643.0, -661.0, -677.0, -685.0, -687.0, -690.0, -692.0, -695.0, -701.0, -705.0, -708.0, -709.0, -710.0, -711.0, -711.0, -711.0, -711.0, -711.0, -711.0, -695.0, -661.0, -588.0, -482.0, -369.0, -250.0, -120.0, -6.0, 96.0, 185.0, 277.0, 316.0, 343.0, 360.0, 379.0, 397.0, 417.0, 436.0, 454.0, 475.0, 494.0, 513.0, 539.0, 554.0, 566.0, 573.0, 578.0, 582.0, 585.0, 590.0, 591.0, 595.0, 598.0, 603.0, 608.0, 614.0, 620.0, 626.0, 633.0, 640.0, 647.0, 653.0, 662.0, 670.0, 678.0, 687.0, 694.0, 698.0, 699.0, 699.0, 699.0, 699.0, 699.0, 699.0, 699.0, 699.0, 699.0, 699.0, 699.0, 699.0, 699.0, 699.0, 699.0, 699.0, 699.0]	[-490.0, -490.0, -490.0, -490.0, -490.0, -490.0, -490.0, -490.0, -490.0, -490.0, -490.0, -490.0, -490.0, -483.0, -467.0, -452.0, -382.0, -305.0, -219.0, -127.0, -65.0, -34.0, -6.0, 15.0, 34.0, 47.0, 62.0, 85.0, 105.0, 131.0, 169.0, 217.0, 249.0, 286.0, 319.0, 343.0, 366.0, 380.0, 387.0, 394.0, 401.0, 409.0, 420.0, 428.0, 434.0, 439.0, 441.0, 445.0, 445.0, 445.0, 445.0, 445.0, 447.0, 452.0, 455.0, 455.0, 455.0, 455.0, 455.0, 455.0, 455.0, 455.0, 451.0, 441.0, 435.0, 432.0, 429.0, 429.0, 427.0, 425.0, 424.0, 422.0, 417.0, 414.0, 412.0, 408.0, 407.0, 404.0, 404.0, 402.0, 402.0, 402.0, 400.0, 400.0, 400.0, 400.0, 399.0, 397.0, 396.0, 396.0, 395.0, 394.0, 393.0, 392.0, 392.0, 392.0, 392.0, 392.0, 392.0, 392.0, 392.0, 392.0, 392.0, 392.0, 392.0, 392.0, 392.0, 392.0, 392.0, 392.0, 392.0, 392.0, 392.0, 392.0, 392.0, 392.0, 392.0, 392.0]	[0.003562834288459271, 0.009569954505423084, 0.02211087179603055, 0.03884745485265739, 0.05527717949007638, 0.07242404486169107, 0.08889848412945867, 0.10569616581778973, 0.1221275971038267, 0.13906010534265079, 0.15552601128001697, 0.17243701551342383, 0.18853120977291837, 0.20561117387842387, 0.2221344237914309, 0.23906386000453494, 0.25553966462030075, 0.2723578262666706, 0.2888015455682762, 0.30570469913072884, 0.32214261576882564, 0.3390693213150371, 0.3555202086281497, 0.37241551154875197, 0.38878277223557234, 0.4056405285082292, 0.4221729944110848, 0.43898501206422225, 0.45546935001038946, 0.4724062955356203, 0.4889520734141115, 0.5056859258038457, 0.5221381784358528, 0.5389952520490624, 0.5552389501826838, 0.5723359809489921, 0.5886424843629356, 0.6056678351596929, 0.6222538903530221, 0.6389973000623286, 0.655499387299642, 0.6723796715668868, 0.6885663670836948, 0.7056415525148623, 0.7219675119267777, 0.7389935453829821, 0.7554932433122303, 0.7723294956085738, 0.7887216736271512, 0.8057797923975158, 0.8221009731350932, 0.8390208520286251, 0.8554570620181039, 0.8723373462853488, 0.888874249503715, 0.905756923079025, 0.9222678850055672, 0.9390034440439194, 0.9554768593225162, 0.9723503169370815, 0.9887762869184371, 1.0057794510794338, 1.0221422744507436, 1.0389730654133018, 1.0555079206242226, 1.0723305196152069, 1.08864384968183, 1.1058477176702581, 1.1219975492276717, 1.1390686386730522, 1.1554536486801226, 1.1724226795195136, 1.1885134604817722, 1.205711867136415, 1.2221729943994433, 1.2389563400938641, 1.2552911741368007, 1.2723564609186724, 1.288813833554741, 1.305753851076588, 1.3221176984661724, 1.3390607880137395, 1.3555041659565177, 1.3724011755548418, 1.3888237322098576, 1.4057535097526852, 1.4221105304604862, 1.4390488413337152, 1.455486757971812, 1.472332226287108, 1.4888162228744477, 1.505835088348249, 1.5220675225136802, 1.5389566814119462, 1.5554232700378634, 1.572328812937485, 1.588718942948617, 1.6056849018204957, 1.6219183599750977, 1.6389317641151138, 1.6554096167092212, 1.672381036914885, 1.6889370547723956, 1.7057125497958623, 1.7220900504908059, 1.7390099293843377, 1.7552034515538253, 1.7724042475456372, 1.7889090654498432, 1.8057156217982993, 1.8220053998811636, 1.8390689799853135, 1.855462523351889, 1.8723411009414122, 1.8888244148693047, 1.9057296164392028, 1.9221306691179052, 1.9390642013459]
31	inanimate/n60.jpg	inanimate	animate	left	0.899	[0.0, 0.0, 0.0, 0.0, 0.0, 0.0, 0.0, 0.0, 0.0, 0.0, 0.0, -4.0, -4.0, -4.0, -4.0, -4.0, -4.0, -4.0, -4.0, -4.0, -4.0, -4.0, -4.0, -4.0, -4.0, 9.0, 21.0, 31.0, 31.0, 6.0, -57.0, -141.0, -237.0, -323.0, -458.0, -531.0, -589.0, -628.0, -656.0, -675.0, -691.0, -702.0, -712.0, -721.0, -730.0, -732.0, -736.0, -741.0, -748.0, -756.0, -759.0, -760.0, -760.0, -760.0]	[-490.0, -490.0, -490.0, -490.0, -490.0, -490.0, -490.0, -490.0, -490.0, -490.0, -490.0, -484.0, -482.0, -482.0, -482.0, -482.0, -482.0, -482.0, -482.0, -482.0, -482.0, -482.0, -482.0, -482.0, -482.0, -484.0, -484.0, -481.0, -476.0, -454.0, -410.0, -349.0, -278.0, -204.0, -57.0, 56.0, 123.0, 169.0, 205.0, 232.0, 254.0, 273.0, 291.0, 309.0, 323.0, 328.0, 335.0, 343.0, 357.0, 371.0, 381.0, 383.0, 383.0, 383.0]	[0.00433458827319555, 0.010960203944705427, 0.02336288135848008, 0.04029402424930595, 0.05671009558136575, 0.07381258765235543, 0.0900252244900912, 0.10714614854077809, 0.12335742003051564, 0.14056913868989795, 0.15706235126708634, 0.1738282889709808, 0.19024913894827478, 0.20723352979985066, 0.22356904653133824, 0.2406671012577135, 0.2568377541319933, 0.27389860356925055, 0.29025084563181736, 0.307165263191564, 0.3237130890775006, 0.34058654666296206, 0.35694834604510106, 0.3738156596373301, 0.3902511869673617, 0.40708470859681256, 0.42359293982735835, 0.44064354928559624, 0.4567445702268742, 0.47381600097287446, 0.49021534697385505, 0.5072444524557795, 0.5236004491744097, 0.5405609466833994, 0.5568906607513782, 0.5737412490416318, 0.5902682536107022, 0.6070881219347939, 0.6236001078214031, 0.6406169253168628, 0.6569510767003521, 0.6738941662479192, 0.6902651816199068, 0.7072209004836623, 0.7233621987106744, 0.7405551440315321, 0.7569773593568243, 0.7738265822990797, 0.7902918055769987, 0.807156388531439, 0.823611030500615, 0.8406633466074709, 0.8569739460072014, 0.8738678836089093]
32	animate/a20.jpg	animate	inanimate	left	1.533	[0.0, 0.0, 0.0, 0.0, 0.0, 0.0, 0.0, 0.0, -8.0, -23.0, -36.0, -41.0, -41.0, -41.0, -41.0, -41.0, -41.0, -41.0, -41.0, -41.0, -41.0, -41.0, -41.0, -40.0, -36.0, -36.0, -49.0, -83.0, -124.0, -197.0, -292.0, -407.0, -531.0, -647.0, -750.0, -835.0, -902.0, -949.0, -960.0, -960.0, -960.0, -960.0, -960.0, -960.0, -959.0, -957.0, -953.0, -948.0, -937.0, -929.0, -900.0, -879.0, -859.0, -846.0, -838.0, -833.0, -831.0, -828.0, -827.0, -826.0, -826.0, -824.0, -823.0, -821.0, -820.0, -819.0, -817.0, -817.0, -816.0, -816.0, -816.0, -816.0, -816.0, -816.0, -816.0, -816.0, -816.0, -816.0, -816.0, -816.0, -816.0, -816.0, -816.0, -816.0, -816.0, -816.0, -816.0, -816.0, -816.0, -816.0, -816.0, -816.0]	[-490.0, -490.0, -490.0, -490.0, -490.0, -490.0, -490.0, -490.0, -490.0, -481.0, -468.0, -464.0, -464.0, -464.0, -464.0, -464.0, -464.0, -464.0, -464.0, -464.0, -464.0, -464.0, -464.0, -464.0, -466.0, -466.0, -463.0, -449.0, -432.0, -399.0, -349.0, -285.0, -201.0, -125.0, -51.0, 10.0, 81.0, 144.0, 182.0, 193.0, 201.0, 208.0, 213.0, 219.0, 224.0, 231.0, 238.0, 250.0, 266.0, 271.0, 283.0, 293.0, 305.0, 314.0, 322.0, 326.0, 329.0, 334.0, 335.0, 339.0, 340.0, 345.0, 347.0, 351.0, 353.0, 355.0, 357.0, 359.0, 359.0, 359.0, 359.0, 359.0, 359.0, 359.0, 359.0, 359.0, 359.0, 359.0, 359.0, 359.0, 359.0, 359.0, 359.0, 359.0, 359.0, 359.0, 359.0, 359.0, 359.0, 359.0, 359.0, 359.0]	[0.0009376418893225491, 0.0058480590232647955, 0.016587420512223616, 0.03377046718378551, 0.05011929592001252, 0.06703917481354438, 0.08362488864804618, 0.10047820760519244, 0.11686321761226282, 0.13377763517200947, 0.14993326939293183, 0.1670087961538229, 0.18352112339925952, 0.200563199527096, 0.21686902028159238, 0.233670456596883, 0.2501257812255062, 0.2670606787723955, 0.28323099031695165, 0.30041198898106813, 0.31685604961239733, 0.3337414538837038, 0.350088575942209, 0.36704497746541165, 0.3832883342693094, 0.4004191569983959, 0.41664612980093807, 0.43374350186786614, 0.45016366921481676, 0.4670262041327078, 0.4836160139821004, 0.5003556690353435, 0.5168430789781269, 0.5337967498344369, 0.5499069867655635, 0.5670135748223402, 0.5832671716343611, 0.6003652263607364, 0.6168720922723878, 0.6337455498869531, 0.6502483197837137, 0.6670767214382067, 0.6834764087689109, 0.700375125015853, 0.7165836658678018, 0.733754424523795, 0.749919957423117, 0.7671190467372071, 0.7834931341058109, 0.8003631783649325, 0.8168874522671103, 0.833755789877614, 0.850241151812952, 0.8671012974227779, 0.883503374090651, 0.9004007249895949, 0.9165915165212937, 0.933756472542882, 0.9500855039223097, 0.9671651266980916, 0.9835231713950634, 1.0004058449994773, 1.0168649242841639, 1.0337298485683277, 1.0499264427344315, 1.0670787694398314, 1.0835043980914634, 1.1004000423417892, 1.116628039162606, 1.1336728459282313, 1.1501513812108897, 1.1670852547686081, 1.1835224887472577, 1.2004321276326664, 1.2181964644696563, 1.2336636299442034, 1.2501373865525238, 1.2670531694602687, 1.2834856247645803, 1.3004317863087635, 1.3168495642894413, 1.333772856509313, 1.35015718388604, 1.367055900132982, 1.383593827340519, 1.4004276902996935, 1.4166160924942233, 1.433663629955845, 1.4501244158891495, 1.4670552174502518, 1.4832903822534718, 1.500389119668398]
33	inanimate/n66.jpg	animate	inanimate	right	1.165	[0.0, 0.0, 0.0, 0.0, 0.0, 0.0, 0.0, 0.0, 0.0, 0.0, -4.0, -9.0, -23.0, -36.0, -49.0, -69.0, -94.0, -132.0, -163.0, -196.0, -232.0, -286.0, -355.0, -421.0, -491.0, -529.0, -559.0, -574.0, -590.0, -604.0, -617.0, -628.0, -635.0, -641.0, -650.0, -665.0, -670.0, -675.0, -678.0, -683.0, -686.0, -689.0, -691.0, -691.0, -691.0, -691.0, -693.0, -693.0, -693.0, -693.0, -693.0, -693.0, -693.0, -693.0, -693.0, -685.0, -625.0, -487.0, -288.0, -42.0, 364.0, 626.0, 855.0, 959.0, 959.0, 959.0, 959.0, 959.0, 959.0, 959.0, 959.0]	[-490.0, -490.0, -490.0, -490.0, -490.0, -490.0, -490.0, -490.0, -490.0, -490.0, -490.0, -485.0, -475.0, -464.0, -454.0, -443.0, -432.0, -416.0, -399.0, -376.0, -343.0, -283.0, -188.0, -96.0, 35.0, 118.0, 162.0, 189.0, 219.0, 245.0, 268.0, 286.0, 297.0, 307.0, 321.0, 339.0, 349.0, 356.0, 361.0, 367.0, 371.0, 374.0, 376.0, 377.0, 377.0, 377.0, 378.0, 379.0, 379.0, 379.0, 379.0, 379.0, 379.0, 379.0, 379.0, 379.0, 379.0, 379.0, 379.0, 379.0, 379.0, 379.0, 379.0, 379.0, 379.0, 384.0, 387.0, 389.0, 389.0, 389.0, 389.0]	[0.006800719507737085, 0.011332256981404498, 0.01796333398669958, 0.02896074327873066, 0.045702104980591685, 0.06261071987682953, 0.07902201256365515, 0.0958517795370426, 0.11227297084406018, 0.12918124441057444, 0.14563793438719586, 0.1625137813098263, 0.17901928190258332, 0.19587089418200776, 0.21224429886206053, 0.2292075270670466, 0.2456556836841628, 0.26255064527504146, 0.27899811923271045, 0.2958353955473285, 0.3122620481881313, 0.3293051483051386, 0.3456212090677582, 0.36255883728154004, 0.3790052872209344, 0.39587635549833067, 0.4123821974208113, 0.42940345223178156, 0.4456225743924733, 0.46242605871520936, 0.4789523806248326, 0.49593301679124124, 0.512439541373169, 0.5292693083465565, 0.5456679716880899, 0.5624956906540319, 0.5789479432860389, 0.5959115128207486, 0.6121012803341728, 0.6293355269590393, 0.6456560250371695, 0.6625817065942101, 0.6789578419411555, 0.6959207287873141, 0.7120394990488421, 0.729140967130661, 0.7457372623030096, 0.7625247039541136, 0.77902269520564, 0.7958616781688761, 0.8120835309964605, 0.8293689776037354, 0.8457297529675998, 0.86254108796129, 0.878721298155142, 0.8958794274949469, 0.912100597663084, 0.9292751110042445, 0.9456239397113677, 0.9625093439826742, 0.9789895859139506, 0.9958627021696884, 1.012477429350838, 1.0292498523485847, 1.045630766369868, 1.0625806825701147, 1.078791271429509, 1.0959070754761342, 1.1120610030193347, 1.129079868493136, 1.145402073248988]
34	animate/a34.jpg	inanimate	animate	right	0.915	[0.0, 0.0, 0.0, 0.0, 0.0, 0.0, 0.0, -7.0, -27.0, -37.0, -47.0, -47.0, -47.0, -47.0, -47.0, -47.0, -47.0, -47.0, -47.0, -47.0, -47.0, -44.0, -42.0, -42.0, -42.0, -59.0, -111.0, -182.0, -274.0, -389.0, -492.0, -582.0, -682.0, -733.0, -768.0, -780.0, -787.0, -793.0, -795.0, -797.0, -797.0, -797.0, -797.0, -772.0, -615.0, -456.0, -240.0, 0.0, 248.0, 470.0, 645.0, 786.0, 867.0, 893.0, 896.0]	[-490.0, -490.0, -490.0, -490.0, -490.0, -490.0, -490.0, -487.0, -471.0, -459.0, -455.0, -455.0, -455.0, -455.0, -455.0, -455.0, -455.0, -455.0, -455.0, -455.0, -455.0, -459.0, -460.0, -460.0, -460.0, -445.0, -397.0, -328.0, -242.0, -146.0, -32.0, 72.0, 164.0, 219.0, 262.0, 283.0, 298.0, 311.0, 321.0, 326.0, 331.0, 334.0, 340.0, 354.0, 381.0, 403.0, 432.0, 437.0, 437.0, 441.0, 443.0, 443.0, 443.0, 443.0, 443.0]	[0.015255197649821639, 0.023267649463377893, 0.028632380883209407, 0.04590861147153191, 0.06225402685231529, 0.07914557511685416, 0.09550600915099494, 0.11252385063562542, 0.12893377797445282, 0.14574920895393007, 0.1623209281533491, 0.17913055646931753, 0.19534216928877868, 0.21250337065430358, 0.22887370333774015, 0.2457812942448072, 0.2621219309803564, 0.2791380657872651, 0.29556130510172807, 0.31252487463643774, 0.3286224822222721, 0.3457348729716614, 0.36221682155155577, 0.37916571376263164, 0.3955077158170752, 0.4125163413118571, 0.4289447006303817, 0.44585433951579034, 0.4619881284306757, 0.47908857249422, 0.4955398011370562, 0.512503370642662, 0.5288631220173556, 0.5458195235696621, 0.5620546883728821, 0.5791520604398102, 0.5955445797881112, 0.6125067839748226, 0.6288672180089634, 0.6457724196079653, 0.661929419147782, 0.6790595591883175, 0.6955090811534319, 0.7125057599914726, 0.728939921973506, 0.7456915236543864, 0.7622540268639568, 0.7790609245130327, 0.7955254651315045, 0.8124866453290451, 0.8288842846814077, 0.845768323604716, 0.8620434243639465, 0.8791752710822038, 0.895531267800834]
35	animate/a25.jpg	inanimate	animate	right	1.764	[0.0, 0.0, 0.0, 0.0, 0.0, 0.0, 0.0, 0.0, 0.0, 0.0, -3.0, -7.0, -8.0, -14.0, -27.0, -45.0, -73.0, -108.0, -150.0, -195.0, -239.0, -281.0, -328.0, -360.0, -407.0, -455.0, -481.0, -496.0, -507.0, -517.0, -523.0, -529.0, -536.0, -542.0, -553.0, -562.0, -574.0, -587.0, -596.0, -602.0, -603.0, -604.0, -607.0, -608.0, -609.0, -610.0, -612.0, -614.0, -616.0, -617.0, -618.0, -622.0, -624.0, -626.0, -634.0, -640.0, -645.0, -651.0, -655.0, -659.0, -662.0, -663.0, -664.0, -665.0, -666.0, -667.0, -667.0, -668.0, -668.0, -669.0, -669.0, -669.0, -670.0, -670.0, -670.0, -670.0, -670.0, -670.0, -670.0, -670.0, -670.0, -670.0, -670.0, -670.0, -670.0, -646.0, -584.0, -485.0, -362.0, -221.0, -59.0, 111.0, 286.0, 540.0, 705.0, 851.0, 959.0, 959.0, 959.0, 959.0, 959.0, 959.0, 959.0, 959.0, 959.0, 959.0]	[-490.0, -490.0, -490.0, -490.0, -490.0, -490.0, -490.0, -490.0, -490.0, -484.0, -473.0, -463.0, -454.0, -441.0, -425.0, -400.0, -368.0, -332.0, -297.0, -262.0, -230.0, -183.0, -91.0, -45.0, 21.0, 77.0, 105.0, 119.0, 129.0, 139.0, 146.0, 155.0, 165.0, 178.0, 198.0, 213.0, 230.0, 247.0, 261.0, 268.0, 271.0, 274.0, 282.0, 289.0, 294.0, 299.0, 307.0, 311.0, 316.0, 317.0, 320.0, 324.0, 327.0, 330.0, 337.0, 344.0, 349.0, 355.0, 360.0, 365.0, 367.0, 369.0, 369.0, 370.0, 372.0, 372.0, 373.0, 373.0, 373.0, 374.0, 374.0, 374.0, 374.0, 374.0, 374.0, 374.0, 374.0, 374.0, 374.0, 374.0, 374.0, 374.0, 374.0, 374.0, 376.0, 382.0, 390.0, 394.0, 404.0, 408.0, 408.0, 408.0, 408.0, 408.0, 408.0, 412.0, 414.0, 418.0, 423.0, 426.0, 429.0, 430.0, 432.0, 432.0, 432.0, 432.0]	[0.008469838096061721, 0.013653321657329798, 0.02782922424376011, 0.0420221934618894, 0.0585020940634422, 0.07553119954536669, 0.09157555917045102, 0.10871286722249351, 0.1251159678795375, 0.14202390011632815, 0.15842734213219956, 0.1754175356181804, 0.19157009784248658, 0.20859442465007305, 0.22511972254142165, 0.24201946280663833, 0.2582880782429129, 0.2754465489415452, 0.29159774581785314, 0.30873812586651184, 0.32515795185463503, 0.3419774788490031, 0.35846557142212987, 0.37543528495007195, 0.39183190028415993, 0.4087009205541108, 0.4250712532666512, 0.44198123351088725, 0.45843212079489604, 0.4753601916891057, 0.4919626308546867, 0.5086841952579562, 0.5251395198574755, 0.5420614467584528, 0.5585249633877538, 0.5754588369163685, 0.5918083483120427, 0.6087016032251995, 0.6248838614264969, 0.6419112602306996, 0.6584549901017454, 0.6753881810000166, 0.6917370097071398, 0.7085787233372685, 0.7251292798900977, 0.7419580228452105, 0.7582027449971065, 0.7753537063545082, 0.79176499901223, 0.808662008610554, 0.825098218570929, 0.8419651908334345, 0.8585410060477443, 0.8754526929405984, 0.8915946738270577, 0.9085732620151248, 0.9250842239125632, 0.9420099054696038, 0.9584478221077006, 0.9753629223559983, 0.9915281138964929, 1.0085957899864297, 1.0250627199420705, 1.042020145454444, 1.0582464356266428, 1.075375893007731, 1.0917260870628525, 1.1086643979360815, 1.1248913707386237, 1.142029702779837, 1.1584297314693686, 1.1753659943351522, 1.1914864712452982, 1.2085835020116065, 1.224905365408631, 1.2420092227985151, 1.2585652406851295, 1.2753461970132776, 1.2917332550568972, 1.3086964832327794, 1.3252480637747794, 1.3420337987772655, 1.358478200767422, 1.3753605330130085, 1.391591943160165, 1.408584525983315, 1.4250804692564998, 1.4420228761155158, 1.4584413367847446, 1.4754540582653135, 1.491751687019132, 1.5085623393533751, 1.5251204052183311, 1.5418935109046288, 1.5584403127722908, 1.575401834299555, 1.5915588338684756, 1.6086036406341009, 1.6250698879302945, 1.6420413081068546, 1.6584566967794672, 1.6753987623087596, 1.6915089992398862, 1.7086637152533513, 1.7251210878894199, 1.742026289459318]
36	animate/a59.jpg	inanimate	animate	right	1.048	[0.0, 0.0, 0.0, 0.0, 0.0, -1.0, -1.0, -1.0, -5.0, -7.0, -7.0, -7.0, -7.0, -7.0, -7.0, -7.0, -7.0, -7.0, -7.0, -7.0, -7.0, -7.0, -7.0, -7.0, -2.0, 16.0, 21.0, 21.0, 13.0, -15.0, -63.0, -136.0, -304.0, -429.0, -553.0, -667.0, -761.0, -836.0, -917.0, -960.0, -960.0, -960.0, -960.0, -960.0, -960.0, -956.0, -936.0, -881.0, -771.0, -623.0, -439.0, -211.0, 22.0, 236.0, 420.0, 568.0, 716.0, 758.0, 771.0, 772.0, 772.0, 772.0, 772.0]	[-490.0, -490.0, -490.0, -490.0, -490.0, -490.0, -490.0, -490.0, -487.0, -477.0, -474.0, -474.0, -474.0, -474.0, -474.0, -474.0, -474.0, -474.0, -474.0, -474.0, -474.0, -474.0, -474.0, -474.0, -474.0, -467.0, -463.0, -458.0, -445.0, -432.0, -414.0, -381.0, -309.0, -263.0, -213.0, -133.0, -51.0, 11.0, 100.0, 206.0, 275.0, 299.0, 311.0, 322.0, 332.0, 339.0, 350.0, 370.0, 392.0, 411.0, 438.0, 456.0, 472.0, 481.0, 510.0, 531.0, 540.0, 540.0, 540.0, 540.0, 540.0, 540.0, 540.0]	[0.00034133304143324494, 0.00815342235728167, 0.015649095963453874, 0.03204844196443446, 0.049083008780144155, 0.06571582658216357, 0.08215169521281496, 0.09926920593716204, 0.11553952805115841, 0.1325751188560389, 0.14880072633968666, 0.16586703711072914, 0.1821557912044227, 0.1992005979991518, 0.2155077841016464, 0.23256010020850226, 0.24879389969282784, 0.2658858104259707, 0.2821633005514741, 0.2992630619555712, 0.31550505344057456, 0.3325891135027632, 0.348813014337793, 0.36586874377098866, 0.38217627120320685, 0.39921254466753453, 0.4155043707578443, 0.4325396202330012, 0.44883383566047996, 0.4659018530801404, 0.4821708098752424, 0.4993088005867321, 0.5154774054535665, 0.5325058282469399, 0.5486990091158077, 0.5657697572023608, 0.582311439095065, 0.599187627347419, 0.6156644559523556, 0.6325348415703047, 0.6487041290965863, 0.66580013584462, 0.6820660206431057, 0.699119702068856, 0.7156231546541676, 0.7325276735646185, 0.7487239264009986, 0.7658701091131661, 0.7823291883978527, 0.7991992326860782, 0.8156716239464004, 0.8324385856394656, 0.8489573982078582, 0.8660257569863461, 0.882082404626999, 0.8991978673439007, 0.9156514852948021, 0.9324931989249308, 0.9490205448237248, 0.96585850379779, 0.9822428311454132, 0.9992480433138553, 1.0156702586100437]
37	animate/a74.jpg	animate	inanimate	left	0.797	[0.0, 0.0, 0.0, 0.0, 0.0, 0.0, 0.0, 0.0, 0.0, 0.0, 0.0, 0.0, 0.0, -1.0, -6.0, -19.0, -38.0, -79.0, -114.0, -147.0, -172.0, -201.0, -229.0, -250.0, -277.0, -307.0, -344.0, -383.0, -413.0, -453.0, -482.0, -516.0, -540.0, -581.0, -616.0, -633.0, -647.0, -658.0, -662.0, -665.0, -669.0, -688.0, -700.0, -709.0, -714.0, -718.0, -720.0, -720.0]	[-490.0, -490.0, -490.0, -490.0, -490.0, -490.0, -490.0, -490.0, -490.0, -490.0, -490.0, -490.0, -490.0, -490.0, -483.0, -469.0, -452.0, -414.0, -378.0, -348.0, -324.0, -290.0, -257.0, -227.0, -188.0, -149.0, -104.0, -58.0, -21.0, 26.0, 67.0, 112.0, 150.0, 212.0, 261.0, 282.0, 299.0, 315.0, 324.0, 330.0, 339.0, 366.0, 383.0, 395.0, 404.0, 409.0, 412.0, 412.0]	[0.014420979714486748, 0.01947851138538681, 0.027130856848089024, 0.04400636244099587, 0.06088186806300655, 0.07729418470989913, 0.09425980225205421, 0.11063969225506298, 0.12758482981007546, 0.14398793046711944, 0.1608511480735615, 0.17707539023831487, 0.19418948763632216, 0.21073833751142956, 0.2276138431043364, 0.2439585758256726, 0.26085319608682767, 0.27734026467078365, 0.2942959835345391, 0.3103963218163699, 0.32762715508579277, 0.3437377333466429, 0.360824524104828, 0.3773167126928456, 0.3942659462336451, 0.41063013492384925, 0.42757527247886173, 0.4440172851027455, 0.46082930275588296, 0.47706583290710114, 0.4941171250247862, 0.5104649297427386, 0.5277671016519889, 0.5439561865059659, 0.5608344227657653, 0.5773399233294185, 0.594176858314313, 0.6103703804838005, 0.6274991552054416, 0.6439698398171458, 0.6608467107580509, 0.6773535766697023, 0.6941212210222147, 0.710698401555419, 0.7275653738179244, 0.7439930504770018, 0.7609317026799545, 0.7773214913613629]
