trialIndex	stimulus	isAnimate	left_option	right_option	response	response_time	xTrajectory	yTrajectory	tTrajectory
0	灯泡	False	animate	inanimate	right	1.865	[0.0, 0.0, 0.0, 0.0, 0.0, 0.0, 0.0, -1.0, -2.0, -2.0, -2.0, -2.0, -2.0, -3.0, -3.0, -3.0, -3.0, -3.0, -3.0, -3.0, -3.0, -3.0, -3.0, -3.0, -3.0, -3.0, -3.0, -3.0, -3.0, -3.0, -3.0, -3.0, -3.0, -3.0, -3.0, -3.0, -3.0, -3.0, -3.0, -3.0, -3.0, -3.0, -3.0, -3.0, -3.0, -3.0, -3.0, -3.0, -3.0, -3.0, -3.0, -3.0, -3.0, -3.0, -3.0, -3.0, -3.0, -3.0, -3.0, -3.0, -3.0, -3.0, -3.0, -3.0, -3.0, -3.0, -3.0, -3.0, -3.0, -3.0, -3.0, -3.0, -3.0, -3.0, -3.0, -3.0, -3.0, -3.0, -3.0, -3.0, -3.0, -3.0, -3.0, -3.0, -9.0, -27.0, -38.0, -45.0, -62.0, -63.0, -59.0, -12.0, 102.0, 157.0, 345.0, 405.0, 534.0, 650.0, 802.0, 833.0, 887.0, 897.0, 899.0, 899.0, 899.0, 899.0, 899.0, 899.0, 899.0, 899.0]	[-490.0, -490.0, -490.0, -490.0, -490.0, -490.0, -490.0, -491.0, -491.0, -491.0, -491.0, -491.0, -491.0, -491.0, -491.0, -491.0, -491.0, -491.0, -491.0, -491.0, -491.0, -491.0, -491.0, -491.0, -491.0, -491.0, -491.0, -491.0, -491.0, -491.0, -491.0, -491.0, -491.0, -491.0, -491.0, -491.0, -491.0, -491.0, -491.0, -491.0, -491.0, -491.0, -491.0, -491.0, -491.0, -491.0, -491.0, -491.0, -491.0, -491.0, -491.0, -491.0, -491.0, -491.0, -491.0, -491.0, -491.0, -491.0, -491.0, -491.0, -491.0, -491.0, -491.0, -491.0, -491.0, -491.0, -491.0, -491.0, -491.0, -491.0, -491.0, -491.0, -491.0, -491.0, -488.0, -487.0, -485.0, -484.0, -484.0, -484.0, -484.0, -484.0, -483.0, -480.0, -472.0, -452.0, -435.0, -424.0, -348.0, -315.0, -230.0, -125.0, 1.0, 41.0, 159.0, 186.0, 234.0, 269.0, 312.0, 328.0, 352.0, 360.0, 361.0, 361.0, 361.0, 361.0, 361.0, 361.0, 361.0, 361.0]	[0.012894231113023125, 0.0186395488854032, 0.023780024494044483, 0.04242807258560788, 0.058724677335703745, 0.07423212011053693, 0.09231048334913794, 0.10912147699855268, 0.12409951222070958, 0.14249190186092164, 0.15895166381960735, 0.17415805083874147, 0.1922951233573258, 0.20906720505445264, 0.22395205634529702, 0.2425192085065646, 0.2588649652170716, 0.27423724009713624, 0.29215961413865443, 0.3090317064052215, 0.32390392837987747, 0.34257313911803067, 0.3636344118131092, 0.37387986440444365, 0.3921848727914039, 0.40912932765786536, 0.4238124511321075, 0.4425079445063602, 0.46429147792514414, 0.47567322821123526, 0.49217258479620796, 0.5090596957161324, 0.523811085804482, 0.5424601578852162, 0.5586871307023102, 0.5740836402401328, 0.5981711716740392, 0.6090194184216671, 0.6238544350926531, 0.6425410538213328, 0.658837317241705, 0.6741672668285901, 0.6945602094201604, 0.7091276209976058, 0.7268981018278282, 0.7426485737232724, 0.761321539117489, 0.7741638534935191, 0.7935444022878073, 0.8091965702769812, 0.8248862848849967, 0.8424471872276627, 0.8593489754712209, 0.8743000453832792, 0.8921483501471812, 0.9088129119336372, 0.9239414750190917, 0.9422188354219543, 0.960349081287859, 0.9741307441872777, 0.9932549518707674, 1.0089289651659783, 1.0242196614563, 1.0422888087050524, 1.0591721649543615, 1.0739508616825333, 1.0925378111569444, 1.1087460106500657, 1.1243435653450433, 1.1424151019309647, 1.1596688045392511, 1.1741420081816614, 1.1925402004853822, 1.2089931357768364, 1.2241141895356122, 1.2424290965718683, 1.2592656902124872, 1.2741447388543747, 1.2925743337837048, 1.3087757066241466, 1.3242060081247473, 1.3463622772251256, 1.3589748744561803, 1.3738252511247993, 1.392469885875471, 1.415562090172898, 1.4239046110596973, 1.448735565863899, 1.4589400584955001, 1.4738474377663806, 1.492446333897533, 1.5146541442809394, 1.5239373790245736, 1.5478675559425028, 1.5594216794124804, 1.5739085363893537, 1.5920466329116607, 1.609238212899072, 1.6241319388645934, 1.6427683816291392, 1.6586902027047472, 1.674386061305995, 1.6923807979474077, 1.7094539353856817, 1.723888227061252, 1.745671760480036, 1.758789530620561, 1.774450573255308, 1.7920476568979211, 1.8119279172678944]
1	老鹰	True	animate	inanimate	left	1.081	[0.0, 0.0, 0.0, 0.0, 0.0, 0.0, 0.0, -4.0, -9.0, -11.0, -11.0, -11.0, -11.0, -11.0, -11.0, -11.0, -11.0, -12.0, -12.0, -12.0, -12.0, -12.0, -12.0, -12.0, -12.0, -12.0, -13.0, -13.0, -14.0, -15.0, -16.0, -16.0, -17.0, -18.0, -19.0, -22.0, -22.0, -27.0, -32.0, -48.0, -67.0, -87.0, -99.0, -132.0, -170.0, -205.0, -249.0, -289.0, -329.0, -373.0, -414.0, -460.0, -526.0, -568.0, -613.0, -652.0, -688.0, -712.0, -728.0, -744.0, -760.0, -779.0, -780.0, -780.0, -780.0, -780.0]	[-490.0, -490.0, -490.0, -490.0, -490.0, -490.0, -490.0, -490.0, -490.0, -490.0, -490.0, -490.0, -490.0, -490.0, -490.0, -490.0, -490.0, -490.0, -490.0, -488.0, -488.0, -488.0, -488.0, -488.0, -488.0, -487.0, -484.0, -484.0, -482.0, -481.0, -479.0, -478.0, -477.0, -475.0, -473.0, -468.0, -466.0, -456.0, -450.0, -431.0, -412.0, -396.0, -385.0, -354.0, -321.0, -290.0, -247.0, -202.0, -151.0, -100.0, -47.0, 21.0, 126.0, 193.0, 256.0, 308.0, 351.0, 382.0, 406.0, 429.0, 449.0, 470.0, 473.0, 473.0, 473.0, 473.0]	[0.011997651628917083, 0.016272165303234942, 0.022351306790369563, 0.04073482177045662, 0.05765026333392598, 0.07255900793825276, 0.09063873651030008, 0.1087379210657673, 0.12249910399259534, 0.14106591482413933, 0.15726660499058198, 0.17293003696249798, 0.19065921650326345, 0.20770060995710082, 0.22262744522595312, 0.24102256551850587, 0.25740040754317306, 0.272743327790522, 0.2905759312416194, 0.3076306366856443, 0.3226714771881234, 0.34108810147154145, 0.35743931951583363, 0.3728160317259608, 0.3907698084076401, 0.40769412463123444, 0.42257658659946173, 0.4409290402691113, 0.4574761834810488, 0.47273479445721023, 0.49083909901673906, 0.5076668179826811, 0.5223687147663441, 0.5410457761754515, 0.557223938361858, 0.5725494506186806, 0.5908114510384621, 0.6075111701211426, 0.6231213541323086, 0.6406402725115186, 0.6575645887351129, 0.6724764053506078, 0.6907561550760875, 0.7072776983113727, 0.7227571517723845, 0.7407481337577337, 0.7576017940446036, 0.7726330772129586, 0.7908367096824804, 0.8073456235870253, 0.8228199570585275, 0.8406604111660272, 0.8575154367863433, 0.8724019947403576, 0.890882106978097, 0.9073084182891762, 0.9227516904502409, 0.9407109284511534, 0.9576519699912751, 0.9726337598840473, 0.9908705016569002, 1.0073189996182919, 1.0228626236785203, 1.0406515365029918, 1.0581107216130476, 1.0726259092189139]
2	野猪	True	inanimate	animate	right	1.178	[0.0, 0.0, 0.0, 0.0, 0.0, 0.0, 0.0, 0.0, 0.0, 0.0, 0.0, 0.0, 0.0, 0.0, 0.0, 3.0, 6.0, 10.0, 13.0, 16.0, 16.0, 16.0, 16.0, 20.0, 21.0, 26.0, 30.0, 33.0, 36.0, 38.0, 42.0, 47.0, 56.0, 60.0, 71.0, 76.0, 81.0, 107.0, 171.0, 201.0, 256.0, 306.0, 353.0, 391.0, 434.0, 441.0, 466.0, 487.0, 494.0, 525.0, 550.0, 557.0, 570.0, 583.0, 594.0, 609.0, 618.0, 627.0, 642.0, 655.0, 666.0, 676.0, 685.0, 696.0, 705.0, 712.0, 717.0, 721.0, 722.0, 722.0, 722.0]	[-490.0, -490.0, -490.0, -490.0, -490.0, -490.0, -490.0, -490.0, -490.0, -490.0, -490.0, -490.0, -490.0, -490.0, -490.0, -490.0, -490.0, -490.0, -490.0, -490.0, -490.0, -490.0, -490.0, -490.0, -490.0, -489.0, -488.0, -487.0, -486.0, -486.0, -485.0, -483.0, -481.0, -479.0, -477.0, -474.0, -474.0, -462.0, -426.0, -409.0, -369.0, -331.0, -286.0, -234.0, -164.0, -144.0, -84.0, -38.0, -18.0, 49.0, 105.0, 120.0, 149.0, 173.0, 193.0, 213.0, 229.0, 243.0, 265.0, 283.0, 301.0, 319.0, 335.0, 354.0, 366.0, 376.0, 383.0, 390.0, 392.0, 392.0, 392.0]	[0.010812543303472921, 0.015742757765110582, 0.022429130724049173, 0.03849704234744422, 0.05490492167882621, 0.07005908475548495, 0.08823779990780167, 0.10509623885445762, 0.11995617284264881, 0.13820963993202895, 0.15593574747617822, 0.1699638528370997, 0.18859756493475288, 0.20486993504164275, 0.22034119651652873, 0.23832842383126263, 0.2554128252522787, 0.2703089405404171, 0.288422119745519, 0.30509146019176114, 0.32028112189436797, 0.338368359793094, 0.35525990804308094, 0.3699061675433768, 0.3885419276484754, 0.405060740216868, 0.4199711914989166, 0.43833388516213745, 0.45502541224414017, 0.46996794882579707, 0.48856855162011925, 0.5089365769090364, 0.5200346794445068, 0.5422663831413956, 0.5550803668738808, 0.5699836501444224, 0.5885098423459567, 0.6092219313286478, 0.619992354142596, 0.6382366052421276, 0.65530291601317, 0.6699099222169025, 0.6883559011330362, 0.7110948257322889, 0.7199899648112478, 0.7450011434702901, 0.7549595349701121, 0.7699232341983588, 0.788400274439482, 0.8112057589751203, 0.8200418474298203, 0.8380505787354195, 0.8550469162291847, 0.8700027648010291, 0.8884231437550625, 0.9049173803359736, 0.9203128658700734, 0.9398016172344796, 0.9552534227259457, 0.9714698142197449, 0.9884156344196526, 1.0058229369024048, 1.0203176445356803, 1.039231932387338, 1.0553892732714303, 1.0713523956510471, 1.0883886691153748, 1.1053993426030502, 1.1203842044778867, 1.1387738634512061, 1.1552677587023936]
3	记者	True	animate	inanimate	left	1.583	[0.0, 0.0, 0.0, 0.0, 0.0, 0.0, 0.0, 0.0, 0.0, 0.0, 0.0, 1.0, 2.0, 3.0, 4.0, 6.0, 9.0, 15.0, 16.0, 19.0, 22.0, 24.0, 25.0, 25.0, 25.0, 25.0, 25.0, 25.0, 25.0, 25.0, 25.0, 25.0, 25.0, 25.0, 25.0, 25.0, 25.0, 35.0, 49.0, 63.0, 83.0, 90.0, 105.0, 120.0, 143.0, 153.0, 193.0, 227.0, 262.0, 290.0, 320.0, 341.0, 352.0, 356.0, 347.0, 318.0, 238.0, 202.0, 81.0, -7.0, -101.0, -186.0, -264.0, -333.0, -398.0, -455.0, -507.0, -554.0, -590.0, -624.0, -665.0, -686.0, -698.0, -731.0, -754.0, -771.0, -787.0, -802.0, -817.0, -827.0, -835.0, -836.0, -837.0, -837.0, -837.0, -837.0, -837.0, -837.0, -837.0, -837.0, -837.0, -837.0, -837.0, -837.0, -837.0]	[-490.0, -490.0, -490.0, -490.0, -490.0, -490.0, -490.0, -490.0, -490.0, -490.0, -490.0, -490.0, -490.0, -490.0, -490.0, -490.0, -490.0, -489.0, -489.0, -488.0, -488.0, -488.0, -488.0, -488.0, -488.0, -488.0, -488.0, -488.0, -488.0, -488.0, -488.0, -488.0, -488.0, -488.0, -488.0, -488.0, -488.0, -484.0, -478.0, -473.0, -465.0, -462.0, -458.0, -454.0, -447.0, -443.0, -424.0, -403.0, -384.0, -363.0, -332.0, -293.0, -242.0, -199.0, -157.0, -109.0, -29.0, -1.0, 72.0, 106.0, 146.0, 174.0, 196.0, 208.0, 218.0, 224.0, 232.0, 239.0, 241.0, 246.0, 250.0, 252.0, 254.0, 260.0, 266.0, 277.0, 290.0, 310.0, 338.0, 360.0, 387.0, 393.0, 402.0, 403.0, 403.0, 403.0, 403.0, 403.0, 403.0, 403.0, 403.0, 403.0, 403.0, 403.0, 403.0]	[0.014121664746198803, 0.01827807720110286, 0.02631169167580083, 0.04509832098847255, 0.06481678948330227, 0.07643747290421743, 0.09457625210052356, 0.11147292034002021, 0.12628711569414008, 0.14460372940811794, 0.16175742143241223, 0.17664841673104092, 0.19648020780005027, 0.21128109117853455, 0.2266793073649751, 0.24593219760572538, 0.26132085647259373, 0.2768375152372755, 0.2946107267343905, 0.31168147483549546, 0.3262676597223617, 0.34467404401220847, 0.36160962423309684, 0.37668391536863055, 0.3951650515955407, 0.4184374797332566, 0.4263147636811482, 0.4497114370460622, 0.4615563762781676, 0.4767101980105508, 0.4947865132417064, 0.5195928920875303, 0.5264256969094276, 0.5504780710616615, 0.5613829790818272, 0.5763104970101267, 0.5949861930712359, 0.6154218023002613, 0.6265318514924729, 0.6485038007376716, 0.6617594694253057, 0.6763934409391368, 0.6951094143005321, 0.7136909024557099, 0.7266526833846001, 0.7474712682887912, 0.7614563656970859, 0.7765569394687191, 0.7950646996760042, 0.8139209609216778, 0.8266011420928407, 0.8468780314578908, 0.8616045042290352, 0.878919988128473, 0.8949995050643338, 0.9127416552655632, 0.9266380060726078, 0.9458294563519303, 0.9616068935574731, 0.9790179507108405, 0.9949541077658068, 1.0123344449384604, 1.026780683285324, 1.0455997392273275, 1.0618284187075915, 1.0770709870266728, 1.0947981185745448, 1.1114770163403591, 1.126750645969878, 1.1483344995504012, 1.1614154057315318, 1.1763422409858322, 1.1947479426162317, 1.2111319286341313, 1.2265827101218747, 1.244438865542179, 1.2617345521139214, 1.276287286367733, 1.2944363055430586, 1.3126443753426429, 1.326154337148182, 1.345303462134325, 1.3622602050018031, 1.3765989234379958, 1.3945598681020783, 1.4110749260144075, 1.4267021766863763, 1.4444357935426524, 1.4610993313253857, 1.4763535049714847, 1.4943868122500135, 1.5116425628657453, 1.5262522997363703, 1.5449669077643193, 1.5609784994303482]
4	白菜	False	inanimate	animate	left	1.501	[0.0, 0.0, 0.0, 0.0, 0.0, 0.0, 0.0, 0.0, 0.0, 0.0, 0.0, 0.0, 0.0, 0.0, 0.0, 0.0, 0.0, 0.0, 0.0, 0.0, 0.0, 0.0, 0.0, 0.0, 0.0, 0.0, 0.0, 0.0, 0.0, 0.0, 0.0, 0.0, 0.0, 0.0, 0.0, 0.0, 0.0, 0.0, 0.0, 0.0, 4.0, 22.0, 47.0, 86.0, 163.0, 195.0, 295.0, 360.0, 414.0, 470.0, 515.0, 558.0, 598.0, 631.0, 650.0, 665.0, 681.0, 689.0, 695.0, 695.0, 695.0, 672.0, 631.0, 551.0, 446.0, 325.0, 192.0, 49.0, -91.0, -210.0, -353.0, -428.0, -458.0, -532.0, -568.0, -594.0, -621.0, -643.0, -668.0, -691.0, -711.0, -733.0, -764.0, -799.0, -809.0, -829.0, -832.0, -832.0, -832.0, -832.0]	[-490.0, -490.0, -490.0, -490.0, -490.0, -490.0, -490.0, -490.0, -490.0, -490.0, -490.0, -490.0, -490.0, -490.0, -490.0, -490.0, -490.0, -490.0, -490.0, -490.0, -490.0, -490.0, -490.0, -490.0, -490.0, -490.0, -490.0, -490.0, -490.0, -490.0, -490.0, -490.0, -490.0, -490.0, -490.0, -490.0, -490.0, -490.0, -490.0, -490.0, -494.0, -501.0, -504.0, -504.0, -504.0, -497.0, -467.0, -438.0, -402.0, -356.0, -311.0, -258.0, -208.0, -159.0, -118.0, -80.0, -43.0, -11.0, 31.0, 55.0, 66.0, 110.0, 146.0, 189.0, 238.0, 288.0, 332.0, 373.0, 406.0, 425.0, 445.0, 452.0, 454.0, 454.0, 454.0, 454.0, 454.0, 454.0, 454.0, 454.0, 454.0, 454.0, 451.0, 447.0, 447.0, 447.0, 447.0, 447.0, 447.0, 447.0]	[0.01599967914808076, 0.020938426940119825, 0.030231901677325368, 0.04867480859684292, 0.06507347193837631, 0.08034949090506416, 0.09839815816667397, 0.1150709119392559, 0.13018957637541462, 0.14857343268522527, 0.16573736470309086, 0.18054132007819135, 0.19869068058324046, 0.21525830378232058, 0.23059985869622324, 0.2484232461429201, 0.2654390396346571, 0.28010134177748114, 0.29874904853932094, 0.319474790856475, 0.3301554430654505, 0.34837853151839226, 0.36542743429890834, 0.3801515177474357, 0.3985650700342376, 0.4219197594356956, 0.4301516884152079, 0.4483614648634102, 0.4655564581917133, 0.48012421109888237, 0.49881833913968876, 0.5213971785415197, 0.5301714857196203, 0.5519976857613074, 0.565350634366041, 0.5801269417570438, 0.5987538272020174, 0.6151248425594531, 0.6304401148227043, 0.6514419955783524, 0.6652417491277447, 0.6804549628141103, 0.6987429045402678, 0.7172325740975793, 0.7304879014554899, 0.750188279314898, 0.7653775996877812, 0.7803839655389311, 0.7985903286753455, 0.8157457273628097, 0.830502237440669, 0.8488915550842648, 0.8652857810957357, 0.880870706459973, 0.898520355403889, 0.9153183783928398, 0.9305705040460452, 0.9483167502476135, 0.9652018131600926, 0.9802180776896421, 0.9983701688615838, 1.0149169707437977, 1.0302663763141027, 1.0482972942554625, 1.0652304851391818, 1.0801634644012665, 1.098272206276306, 1.1150743252801476, 1.1305660667276243, 1.1484341688046698, 1.1652622291148873, 1.1801481044094544, 1.1982387556345202, 1.215436479629716, 1.2304732241318561, 1.248793933831621, 1.2650376319652423, 1.2804908027901547, 1.2983998648414854, 1.315276394438115, 1.3303551229037112, 1.348622584642726, 1.3651021439145552, 1.3803549522417597, 1.4089709491527174, 1.4147862401878228, 1.4302779816352995, 1.4486082486546366, 1.4689076659997227, 1.480140595085686]
5	炸弹	False	animate	inanimate	right	1.168	[0.0, 0.0, 0.0, 0.0, 0.0, 0.0, 0.0, 0.0, 1.0, 1.0, 3.0, 4.0, 5.0, 6.0, 7.0, 8.0, 10.0, 12.0, 16.0, 20.0, 21.0, 21.0, 22.0, 26.0, 27.0, 29.0, 31.0, 32.0, 33.0, 34.0, 36.0, 37.0, 41.0, 42.0, 53.0, 63.0, 78.0, 98.0, 118.0, 142.0, 178.0, 193.0, 226.0, 272.0, 342.0, 367.0, 434.0, 481.0, 521.0, 561.0, 594.0, 620.0, 652.0, 661.0, 674.0, 686.0, 697.0, 700.0, 707.0, 712.0, 714.0, 716.0, 720.0, 725.0, 736.0, 745.0, 751.0, 754.0, 755.0, 756.0]	[-490.0, -490.0, -490.0, -490.0, -490.0, -490.0, -490.0, -490.0, -491.0, -491.0, -491.0, -491.0, -491.0, -491.0, -491.0, -491.0, -489.0, -489.0, -487.0, -485.0, -484.0, -484.0, -483.0, -482.0, -480.0, -480.0, -479.0, -478.0, -477.0, -477.0, -475.0, -475.0, -473.0, -472.0, -466.0, -460.0, -455.0, -446.0, -437.0, -428.0, -413.0, -407.0, -391.0, -361.0, -296.0, -268.0, -182.0, -116.0, -49.0, 23.0, 81.0, 133.0, 210.0, 230.0, 267.0, 292.0, 320.0, 327.0, 343.0, 352.0, 357.0, 364.0, 372.0, 379.0, 393.0, 407.0, 416.0, 422.0, 424.0, 425.0]	[0.00027559229056350887, 0.004759343137266114, 0.01529492880217731, 0.034006464848062024, 0.05015117640141398, 0.06571459778933786, 0.08351443326682784, 0.10052715474739671, 0.11552498728269711, 0.13393819823977537, 0.15036382687685546, 0.1657552164106164, 0.18370284909906331, 0.2006623226334341, 0.21557106723776087, 0.23389894493448082, 0.2503515388962114, 0.2657186937867664, 0.2837659957149299, 0.30054149073839653, 0.31555229391960893, 0.3339378569071414, 0.3503474429016933, 0.36570777112501673, 0.38370728642621543, 0.4006019066873705, 0.4156075898790732, 0.4338289716542931, 0.45037099487672094, 0.4657176697801333, 0.4837574623816181, 0.500496434775414, 0.5155505872535286, 0.5338511583104264, 0.5503447122318903, 0.5656767098116688, 0.5837352757371264, 0.6005650427105138, 0.6152365608577384, 0.633810198341962, 0.6503235495911213, 0.6656425765104359, 0.6836465291416971, 0.7005005307728425, 0.7155519525840646, 0.7338194143376313, 0.7501057791087078, 0.7657265444431687, 0.7836393611505628, 0.8005749413714511, 0.815499728632858, 0.8338467209832743, 0.8500743764598155, 0.8657227897783741, 0.8836185398395173, 0.9005186214199057, 0.9155393232649658, 0.9337327157409163, 0.9500218111788854, 0.9656927524629282, 0.9836670091317501, 1.0004643494612537, 1.0155038246302865, 1.0338187316665426, 1.050199645687826, 1.065683877808624, 1.0836270731670083, 1.1004411388130393, 1.1154423846892314, 1.1337828917021398]
6	太阳	False	inanimate	animate	left	1.44	[0.0, -3.0, -3.0, -3.0, -4.0, -5.0, -5.0, -5.0, -5.0, -5.0, -5.0, -5.0, -5.0, -5.0, -5.0, -5.0, -5.0, -5.0, -5.0, -5.0, -5.0, -5.0, -5.0, -5.0, -5.0, -5.0, -5.0, -5.0, -5.0, -5.0, -5.0, -5.0, -6.0, -6.0, -6.0, -4.0, 1.0, 9.0, 23.0, 30.0, 53.0, 71.0, 91.0, 112.0, 137.0, 171.0, 221.0, 238.0, 275.0, 335.0, 374.0, 395.0, 453.0, 483.0, 517.0, 546.0, 571.0, 589.0, 600.0, 602.0, 605.0, 606.0, 606.0, 602.0, 546.0, 447.0, 325.0, 177.0, 15.0, -129.0, -242.0, -334.0, -395.0, -434.0, -475.0, -487.0, -534.0, -572.0, -618.0, -659.0, -699.0, -722.0, -739.0, -740.0, -740.0, -740.0]	[-490.0, -490.0, -490.0, -491.0, -491.0, -492.0, -492.0, -492.0, -492.0, -492.0, -492.0, -492.0, -492.0, -492.0, -492.0, -492.0, -492.0, -492.0, -492.0, -492.0, -492.0, -492.0, -492.0, -492.0, -492.0, -492.0, -492.0, -492.0, -492.0, -492.0, -492.0, -492.0, -484.0, -476.0, -466.0, -459.0, -448.0, -436.0, -417.0, -408.0, -379.0, -358.0, -336.0, -310.0, -280.0, -242.0, -184.0, -164.0, -119.0, -48.0, 7.0, 35.0, 119.0, 170.0, 229.0, 277.0, 322.0, 358.0, 392.0, 401.0, 411.0, 418.0, 426.0, 428.0, 447.0, 464.0, 483.0, 504.0, 525.0, 527.0, 527.0, 527.0, 525.0, 520.0, 507.0, 505.0, 494.0, 489.0, 482.0, 476.0, 468.0, 461.0, 456.0, 456.0, 456.0, 456.0]	[0.0012128928356105462, 0.006368728441884741, 0.01721390317834448, 0.03579129533318337, 0.052193713330780156, 0.06756052689161152, 0.08562933279608842, 0.10240073181921616, 0.11735589773161337, 0.13582713529467583, 0.15224559594935272, 0.16758817486697808, 0.1857580153591698, 0.20249835307186004, 0.21736306571983732, 0.23566909809596837, 0.2521844973380212, 0.26751547092862893, 0.2854897275828989, 0.3023532865336165, 0.3174507883086335, 0.33565578611160163, 0.35218347334011924, 0.3675752042036038, 0.3855467302055331, 0.40244373978930525, 0.41737023371388204, 0.4356663674407173, 0.45200188415765297, 0.46757110820908565, 0.48552829821710475, 0.5024075584806269, 0.5173388310795417, 0.5356445221259492, 0.5521285187278409, 0.5674953322741203, 0.5854982609162107, 0.602303110572393, 0.6173555563873379, 0.6356441807874944, 0.6521503640396986, 0.6675079615961295, 0.6854658342781477, 0.7023587478615809, 0.7173869590333197, 0.735605610156199, 0.7520807320979657, 0.7675168362620752, 0.7854552529461216, 0.8022740972664906, 0.8173855937056942, 0.8357080100686289, 0.8520834627561271, 0.8675755455333274, 0.8852374824637081, 0.9023997078184038, 0.9187041632394539, 0.9356465701130219, 0.9520496707846178, 0.9675178602483356, 0.9854149756429251, 1.0022638572700089, 1.0173145964217838, 1.0356209701421903, 1.0522001986537362, 1.0674949909443967, 1.085461738271988, 1.1023433878726792, 1.1173712577146944, 1.1355861541669583, 1.1519639961916255, 1.167508302925853, 1.1851640958630014, 1.2022945772478124, 1.2173333697428461, 1.235594346158905, 1.2520943854178768, 1.267520249588415, 1.2854774395964341, 1.3023563585302327, 1.3171026286145207, 1.3411891360592563, 1.3520977987500373, 1.367549945556675, 1.3854002983280225, 1.402309937227983]
7	乌龟	True	inanimate	animate	right	1.051	[0.0, 0.0, 0.0, 0.0, 0.0, 0.0, 0.0, 0.0, 0.0, 0.0, 0.0, 0.0, 0.0, 0.0, 0.0, 0.0, 0.0, 0.0, 0.0, 0.0, 0.0, 0.0, 0.0, 0.0, 0.0, 0.0, 0.0, 0.0, 0.0, 0.0, 0.0, 4.0, 31.0, 126.0, 416.0, 527.0, 714.0, 882.0, 959.0, 959.0, 959.0, 959.0, 959.0, 959.0, 935.0, 908.0, 882.0, 869.0, 856.0, 842.0, 837.0, 833.0, 826.0, 823.0, 817.0, 811.0, 802.0, 797.0, 794.0, 793.0, 793.0, 793.0, 793.0, 793.0]	[-490.0, -490.0, -490.0, -490.0, -490.0, -490.0, -490.0, -490.0, -490.0, -490.0, -490.0, -490.0, -490.0, -490.0, -490.0, -490.0, -490.0, -490.0, -490.0, -490.0, -490.0, -490.0, -490.0, -490.0, -490.0, -490.0, -490.0, -490.0, -490.0, -490.0, -490.0, -490.0, -490.0, -478.0, -437.0, -426.0, -419.0, -389.0, -303.0, -273.0, -182.0, -132.0, -83.0, -25.0, 39.0, 103.0, 165.0, 199.0, 229.0, 260.0, 274.0, 282.0, 297.0, 305.0, 314.0, 326.0, 341.0, 354.0, 361.0, 368.0, 373.0, 379.0, 385.0, 385.0]	[0.014683260000310838, 0.020828620094107464, 0.02738392115861643, 0.046116619851090945, 0.06259413111547474, 0.0779653820063686, 0.0959703586413525, 0.11282709092483856, 0.12779556881287135, 0.1461002358555561, 0.16247534721333068, 0.17803398994146846, 0.19585157473920844, 0.2127690642955713, 0.2277095528843347, 0.24607122254383285, 0.26248456320900004, 0.2780240912834415, 0.2958758093882352, 0.31277657362807076, 0.32759827830886934, 0.3461333451559767, 0.3624797845404828, 0.377989616652485, 0.39582358542247675, 0.41283357625070494, 0.4276126142940484, 0.44594185732421465, 0.46248080855002627, 0.47798790998058394, 0.49589082803868223, 0.5128079762653215, 0.5276563049264951, 0.5460889718669932, 0.5624029846076155, 0.577971525999601, 0.5959283746778965, 0.6127301523374626, 0.6275743849982973, 0.6461074038525112, 0.6626265577506274, 0.6779462673439411, 0.6959379320032895, 0.7127431229891954, 0.7278081981348805, 0.7461886411183514, 0.762552488478832, 0.7779640166700119, 0.7958870733709773, 0.8127031870244537, 0.8277798674971564, 0.8461302731593605, 0.8624487232445972, 0.8779619686683873, 0.8959188173466828, 0.9128008082770975, 0.9277873768151039, 0.9459725773049286, 0.9624401899200166, 0.9779339793603867, 0.995633462924161, 1.0127499496447854, 1.027742662190576, 1.0460865825298242]
8	衬衫	False	animate	inanimate	right	1.177	[0.0, 0.0, 0.0, 0.0, 0.0, 0.0, 0.0, 0.0, 0.0, 0.0, 0.0, 0.0, 0.0, 0.0, 0.0, 0.0, 0.0, 0.0, 0.0, 0.0, 0.0, 0.0, 0.0, 0.0, 0.0, 0.0, 0.0, 0.0, 0.0, 2.0, 9.0, 20.0, 33.0, 43.0, 60.0, 74.0, 79.0, 102.0, 116.0, 132.0, 145.0, 160.0, 174.0, 187.0, 202.0, 215.0, 239.0, 254.0, 282.0, 320.0, 348.0, 363.0, 404.0, 433.0, 467.0, 499.0, 537.0, 577.0, 642.0, 662.0, 690.0, 716.0, 728.0, 734.0, 739.0, 741.0, 742.0, 742.0, 742.0, 742.0, 742.0]	[-490.0, -490.0, -490.0, -490.0, -490.0, -490.0, -490.0, -490.0, -490.0, -490.0, -490.0, -490.0, -490.0, -490.0, -490.0, -490.0, -490.0, -490.0, -490.0, -490.0, -490.0, -490.0, -490.0, -490.0, -490.0, -490.0, -490.0, -490.0, -490.0, -491.0, -491.0, -489.0, -483.0, -479.0, -466.0, -451.0, -442.0, -410.0, -389.0, -361.0, -337.0, -313.0, -287.0, -263.0, -237.0, -216.0, -173.0, -146.0, -94.0, -30.0, 14.0, 36.0, 91.0, 124.0, 153.0, 179.0, 214.0, 254.0, 319.0, 342.0, 374.0, 409.0, 427.0, 436.0, 444.0, 450.0, 452.0, 452.0, 452.0, 452.0, 452.0]	[0.002396977157332003, 0.00771392195019871, 0.019690957065904513, 0.038064232052420266, 0.05442569009028375, 0.06985189560509752, 0.08780294161988422, 0.10461905525880866, 0.11934928270056844, 0.13764644041657448, 0.15457007396616973, 0.16991333554324228, 0.18774013633083086, 0.20472998850164004, 0.21959777314623352, 0.23781437627621926, 0.2544912260345882, 0.26989968222915195, 0.28776710164675023, 0.3047228205105057, 0.3195858264953131, 0.3378696722211316, 0.3542857435531914, 0.3699010475538671, 0.3877503763214918, 0.40469380719878245, 0.41963566112099215, 0.4379266748437658, 0.4545359406620264, 0.46979489298246335, 0.48780498960695695, 0.504593113946612, 0.5193373360380065, 0.5377744403085671, 0.5544437807402574, 0.5697863596578827, 0.5877360403392231, 0.6045705859723967, 0.6195684185076971, 0.6377915069606388, 0.6544489007355878, 0.6698621355899377, 0.6877520829875721, 0.7046480685676215, 0.7195926531567238, 0.7378078909387114, 0.7544099887745688, 0.7698368769488297, 0.787476627228898, 0.8045838979596738, 0.8195639811747242, 0.8378140349377645, 0.8543461594963446, 0.8698071809631074, 0.8874687765637645, 0.9046180312579963, 0.919520290553919, 0.9377672723057913, 0.954412719438551, 0.9697570050193463, 0.9876961043773917, 1.004628612587112, 1.019597773149144, 1.037895613539149, 1.0544413914176403, 1.0698706689145183, 1.0876288617582759, 1.1046368045790587, 1.1196165464643855, 1.1376925203803694, 1.1541621809883509]
9	黑板	False	animate	inanimate	right	0.914	[0.0, 0.0, 0.0, 0.0, 0.0, 0.0, 0.0, 0.0, 0.0, 0.0, 0.0, 0.0, 1.0, 3.0, 9.0, 10.0, 17.0, 23.0, 26.0, 33.0, 39.0, 48.0, 63.0, 69.0, 81.0, 96.0, 122.0, 135.0, 171.0, 196.0, 228.0, 266.0, 309.0, 351.0, 389.0, 419.0, 446.0, 469.0, 501.0, 513.0, 553.0, 579.0, 605.0, 627.0, 646.0, 663.0, 678.0, 689.0, 695.0, 702.0, 707.0, 708.0, 714.0, 717.0, 718.0, 718.0]	[-490.0, -490.0, -490.0, -490.0, -490.0, -490.0, -490.0, -490.0, -490.0, -490.0, -490.0, -491.0, -491.0, -491.0, -489.0, -488.0, -485.0, -483.0, -481.0, -478.0, -474.0, -468.0, -459.0, -455.0, -446.0, -436.0, -413.0, -404.0, -371.0, -349.0, -313.0, -272.0, -226.0, -175.0, -128.0, -88.0, -50.0, -19.0, 35.0, 53.0, 120.0, 168.0, 210.0, 250.0, 280.0, 309.0, 335.0, 356.0, 374.0, 399.0, 417.0, 425.0, 445.0, 454.0, 460.0, 460.0]	[0.013725138152949512, 0.01993091418989934, 0.02572538390813861, 0.044629090451053344, 0.06094276186195202, 0.07624472213501576, 0.09787704501650296, 0.11107844173966441, 0.12607013028173242, 0.14443896793818567, 0.16094242052349728, 0.17631571940728463, 0.19433196003956255, 0.21111155104881618, 0.22587079179356806, 0.24438947465387173, 0.26094480985193513, 0.2762614474486327, 0.2942343387840083, 0.31111837770731654, 0.32611040757910814, 0.3443502213485772, 0.3608915619115578, 0.37626520212506875, 0.39424082411278505, 0.4110944843996549, 0.4260271223174641, 0.44441848796850536, 0.46099908181349747, 0.4762464288069168, 0.4941626588406507, 0.5110982390615391, 0.5262390901480103, 0.5443410053558182, 0.560834559291834, 0.5762774901086232, 0.5941817735001678, 0.6110272417863598, 0.6259342797275167, 0.6443089200620307, 0.6608526499330765, 0.6762692981137661, 0.694252429442713, 0.7112317002756754, 0.7261858421843499, 0.7444297519541578, 0.7605867514939746, 0.7763501940498827, 0.7942155654745875, 0.811065471090842, 0.826103239596705, 0.8444403332832735, 0.8608383139508078, 0.8763044554216322, 0.8942377521161688, 0.9111074550601188]
10	扇子	False	animate	inanimate	right	1.033	[0.0, 0.0, 0.0, 0.0, 0.0, 0.0, 0.0, 0.0, 0.0, 0.0, 0.0, 0.0, 0.0, 0.0, 0.0, 0.0, 0.0, 0.0, 0.0, 0.0, 0.0, 0.0, 0.0, 0.0, 0.0, 0.0, 0.0, 0.0, 0.0, 0.0, 0.0, 0.0, 0.0, 3.0, 27.0, 37.0, 63.0, 87.0, 127.0, 138.0, 179.0, 205.0, 236.0, 270.0, 311.0, 363.0, 434.0, 457.0, 500.0, 546.0, 621.0, 647.0, 706.0, 732.0, 753.0, 763.0, 774.0, 779.0, 780.0, 780.0, 780.0, 780.0, 780.0]	[-490.0, -490.0, -490.0, -490.0, -490.0, -490.0, -490.0, -490.0, -490.0, -490.0, -490.0, -490.0, -490.0, -490.0, -490.0, -490.0, -490.0, -490.0, -490.0, -490.0, -490.0, -490.0, -490.0, -490.0, -490.0, -490.0, -490.0, -490.0, -490.0, -490.0, -490.0, -490.0, -490.0, -484.0, -456.0, -448.0, -430.0, -415.0, -395.0, -387.0, -364.0, -349.0, -326.0, -303.0, -272.0, -237.0, -179.0, -156.0, -102.0, -32.0, 106.0, 149.0, 263.0, 322.0, 375.0, 418.0, 452.0, 465.0, 476.0, 476.0, 476.0, 476.0, 476.0]	[0.015340326121076941, 0.021517088840482756, 0.028911727873492055, 0.047574111944413744, 0.06399803393287584, 0.07939044745580759, 0.09735480546078179, 0.11421222040371504, 0.12915134365903214, 0.14741027208219748, 0.1640062259248225, 0.17938362079439685, 0.19742716806649696, 0.2142497670429293, 0.2292097116151126, 0.24744747737713624, 0.26384102072915994, 0.2794464260805398, 0.2974357013881672, 0.31420232175150886, 0.32917557831387967, 0.3475536319601815, 0.3640891698451014, 0.3794232154323254, 0.3973725547839422, 0.4142282630637055, 0.429204250278417, 0.44747068802826107, 0.4640140765841352, 0.47946656472049654, 0.49738825610256754, 0.5142286043992499, 0.5292728582280688, 0.5474843413539929, 0.5640308018919313, 0.5793986394564854, 0.5972698135301471, 0.614254204381723, 0.6290349490882363, 0.6474635200429475, 0.6639157726604026, 0.6793853274575667, 0.6975527786271414, 0.7143333936401177, 0.7292530609120149, 0.7474730773537885, 0.7639700446161442, 0.7793610928201815, 0.7972933655109955, 0.8141251804918284, 0.829234287593863, 0.8475611412868602, 0.8639468339679297, 0.8794010287820129, 0.8974217067443533, 0.9142620550410356, 0.9290052531141555, 0.9473471254750621, 0.9640157832473051, 0.9794095621036831, 0.9973715307860402, 1.0142340657184832, 1.0292086876143003]
11	抽屉	False	inanimate	animate	left	1.43	[0.0, 0.0, 0.0, 0.0, 0.0, 0.0, 0.0, 0.0, 0.0, 3.0, 8.0, 8.0, 12.0, 17.0, 19.0, 22.0, 27.0, 32.0, 36.0, 43.0, 49.0, 55.0, 65.0, 70.0, 79.0, 100.0, 116.0, 138.0, 154.0, 172.0, 189.0, 207.0, 222.0, 237.0, 251.0, 264.0, 277.0, 299.0, 314.0, 328.0, 347.0, 367.0, 381.0, 394.0, 408.0, 420.0, 430.0, 438.0, 449.0, 465.0, 479.0, 495.0, 516.0, 542.0, 567.0, 591.0, 614.0, 634.0, 653.0, 665.0, 676.0, 685.0, 686.0, 686.0, 672.0, 636.0, 554.0, 442.0, 298.0, 149.0, -18.0, -175.0, -307.0, -466.0, -534.0, -580.0, -609.0, -627.0, -639.0, -649.0, -661.0, -679.0, -701.0, -727.0, -731.0, -737.0, -738.0]	[-490.0, -490.0, -490.0, -490.0, -490.0, -490.0, -490.0, -490.0, -490.0, -490.0, -490.0, -490.0, -489.0, -487.0, -487.0, -486.0, -484.0, -483.0, -482.0, -480.0, -477.0, -474.0, -468.0, -465.0, -460.0, -446.0, -434.0, -418.0, -405.0, -390.0, -375.0, -357.0, -341.0, -323.0, -303.0, -284.0, -265.0, -233.0, -209.0, -185.0, -151.0, -115.0, -84.0, -55.0, -32.0, -11.0, 6.0, 20.0, 33.0, 56.0, 75.0, 100.0, 121.0, 147.0, 174.0, 201.0, 228.0, 250.0, 275.0, 291.0, 309.0, 329.0, 340.0, 351.0, 365.0, 380.0, 404.0, 428.0, 449.0, 472.0, 494.0, 498.0, 498.0, 478.0, 457.0, 437.0, 419.0, 406.0, 397.0, 388.0, 380.0, 372.0, 366.0, 360.0, 360.0, 358.0, 357.0]	[0.007933740416774526, 0.012862930889241397, 0.017327225737972185, 0.03294662575353868, 0.04919749188411515, 0.0646335960336728, 0.0825484607485123, 0.09942942767520435, 0.11438493491732515, 0.1327073512802599, 0.1492497158324113, 0.16456942542572506, 0.18236106891708914, 0.19944683567155153, 0.21444364420312922, 0.23275001790898386, 0.24912103328097146, 0.2646093613875564, 0.282558018079726, 0.299392222383176, 0.3143921029113699, 0.3326616126578301, 0.3491295666026417, 0.36455611343262717, 0.3825221781153232, 0.39945195565815084, 0.41436650294053834, 0.4326534206629731, 0.44901760936772916, 0.46462881738261785, 0.4823194262862671, 0.4993625264032744, 0.514432038879022, 0.5326134846982313, 0.5490681266528554, 0.5645765934168594, 0.582542999429279, 0.5994335236755433, 0.6144095109048067, 0.6327268072636798, 0.6492374278459465, 0.6646161880489672, 0.682486338133458, 0.6993481904210057, 0.7143610416096635, 0.7325820820551598, 0.7490295560273807, 0.7645895640744129, 0.7824784874828765, 0.7994055343733635, 0.8143798149249051, 0.8326868713047588, 0.8489746014092816, 0.8646001454035286, 0.8822412610170431, 0.8994482010020874, 0.9143548976135207, 0.9325817407225259, 0.9491124999476597, 0.9646349613758503, 0.9824440128431888, 0.9994365956808906, 1.0141480497841258, 1.0327288552653044, 1.0488879028125666, 1.0646513453539228, 1.082501015465823, 1.0993833477259614, 1.1143965402443428, 1.132568428729428, 1.1489752840716392, 1.1645772760821274, 1.1823928128869738, 1.1993478490767302, 1.2143514842755394, 1.232627138015232, 1.2491766705643386, 1.2645987800642615, 1.28249828479602, 1.2994437636662042, 1.3143958575819852, 1.3326025620335713, 1.3491258119465783, 1.3645858094096184, 1.382477122140699, 1.399414750354481, 1.4141869617596967]
12	黑板	False	inanimate	animate	left	1.128	[0.0, 0.0, 0.0, 0.0, 0.0, 0.0, 0.0, 0.0, 0.0, -2.0, -2.0, -2.0, -2.0, -2.0, -2.0, -2.0, -2.0, -2.0, -2.0, -3.0, 2.0, 4.0, 4.0, 4.0, 4.0, 4.0, 4.0, 4.0, 4.0, 4.0, 4.0, 21.0, 73.0, 161.0, 218.0, 231.0, 234.0, 234.0, 229.0, 226.0, 224.0, 224.0, 224.0, 224.0, 224.0, 217.0, 200.0, 177.0, 148.0, 108.0, -6.0, -60.0, -242.0, -359.0, -461.0, -560.0, -646.0, -733.0, -790.0, -832.0, -852.0, -864.0, -871.0, -871.0, -871.0, -871.0, -871.0, -871.0]	[-490.0, -490.0, -490.0, -490.0, -490.0, -490.0, -490.0, -490.0, -490.0, -490.0, -490.0, -490.0, -490.0, -490.0, -490.0, -490.0, -490.0, -490.0, -490.0, -490.0, -492.0, -492.0, -492.0, -492.0, -492.0, -492.0, -492.0, -492.0, -492.0, -492.0, -492.0, -492.0, -492.0, -488.0, -478.0, -474.0, -471.0, -459.0, -428.0, -418.0, -390.0, -373.0, -351.0, -325.0, -291.0, -238.0, -175.0, -114.0, -59.0, -2.0, 93.0, 123.0, 209.0, 251.0, 286.0, 312.0, 330.0, 347.0, 355.0, 362.0, 367.0, 371.0, 372.0, 372.0, 372.0, 372.0, 372.0, 372.0]	[0.01411016182100866, 0.020079394060303457, 0.02626298344694078, 0.045067362079862505, 0.06142574812110979, 0.07685741494060494, 0.09484430092561524, 0.11167884655878879, 0.1267306097142864, 0.14506565540796146, 0.16150630271295086, 0.1768618522764882, 0.1948125569615513, 0.21166997190448456, 0.22667087643640116, 0.24506565541378222, 0.2614643187407637, 0.276919196228846, 0.29469377305940725, 0.311725950523396, 0.3266944284114288, 0.3450649727456039, 0.36152166269312147, 0.37691680689749774, 0.394664759747684, 0.41166246257489547, 0.4267111537337769, 0.44502810877747834, 0.4613141322042793, 0.4768997402425157, 0.4946763650805224, 0.5116880625573685, 0.5267135430622147, 0.5450011434586486, 0.5614807027304778, 0.5768318149639526, 0.5948552235931857, 0.6117201478627976, 0.6267166150646517, 0.6449891968077281, 0.6613127668824745, 0.676885404260247, 0.6949979008059017, 0.7116573425882962, 0.7267224177339813, 0.74496735149296, 0.7614486174279591, 0.7768512709444622, 0.7947579436731758, 0.8115853213093942, 0.8266763377614552, 0.8448755329009145, 0.8614359881030396, 0.8768389829638181, 0.8947419010219164, 0.9116737265721895, 0.9267166150675621, 0.9449386795167811, 0.9612957002245821, 0.9768198683159426, 0.9947173250402557, 1.0116075079567963, 1.0266517617856152, 1.045005580788711, 1.0613469001837075, 1.0768611696112202, 1.0947231276950333, 1.1117638384894235]
13	足球	False	inanimate	animate	left	1.2	[0.0, 0.0, 0.0, 0.0, 0.0, 0.0, 0.0, 0.0, 0.0, 0.0, 0.0, 0.0, 0.0, 0.0, 0.0, 0.0, 0.0, 0.0, 0.0, 0.0, 2.0, 4.0, 10.0, 14.0, 19.0, 22.0, 26.0, 31.0, 38.0, 42.0, 50.0, 62.0, 83.0, 95.0, 129.0, 155.0, 187.0, 217.0, 247.0, 275.0, 312.0, 324.0, 350.0, 374.0, 411.0, 425.0, 454.0, 474.0, 488.0, 500.0, 505.0, 506.0, 506.0, 491.0, 447.0, 342.0, 124.0, 35.0, -226.0, -384.0, -517.0, -622.0, -701.0, -751.0, -782.0, -813.0, -847.0, -875.0, -909.0, -914.0, -918.0, -918.0, -918.0]	[-490.0, -490.0, -490.0, -490.0, -490.0, -490.0, -490.0, -490.0, -490.0, -490.0, -490.0, -490.0, -490.0, -490.0, -490.0, -490.0, -490.0, -490.0, -490.0, -490.0, -489.0, -488.0, -483.0, -480.0, -477.0, -475.0, -473.0, -470.0, -467.0, -464.0, -460.0, -452.0, -440.0, -434.0, -412.0, -392.0, -368.0, -340.0, -315.0, -286.0, -244.0, -230.0, -200.0, -171.0, -116.0, -97.0, -45.0, -10.0, 20.0, 47.0, 67.0, 86.0, 105.0, 124.0, 154.0, 201.0, 280.0, 305.0, 373.0, 408.0, 429.0, 444.0, 446.0, 446.0, 446.0, 439.0, 432.0, 429.0, 426.0, 426.0, 426.0, 426.0, 426.0]	[0.014203345766873099, 0.020083490075194277, 0.026555164557066746, 0.04538923915242776, 0.061831934450310655, 0.07720011334458832, 0.09520338330185041, 0.11205431292182766, 0.12698114819067996, 0.14534315919445362, 0.16180019048624672, 0.17721137733315118, 0.19502315946738236, 0.21201437695708591, 0.22696954286948312, 0.24520799130550586, 0.26181111313053407, 0.2786354187846882, 0.29517232200305443, 0.3120024303061655, 0.3269418948912062, 0.3453455485141603, 0.3616097266349243, 0.3771939693397144, 0.3951781246578321, 0.41199389698158484, 0.4268033136759186, 0.4452813779062126, 0.4617711771716131, 0.47718338802224025, 0.49511873270967044, 0.511964542340138, 0.5269712495355634, 0.5452933245687746, 0.5618629957607482, 0.5771441347169457, 0.595086647401331, 0.6119682970020222, 0.6270890094310744, 0.6452905939077027, 0.6616069959709421, 0.6771765613520984, 0.6949965354870073, 0.7119433796906378, 0.7269593028759118, 0.7452847912354628, 0.761773225167417, 0.7771270680677844, 0.7947787650045939, 0.8118174277915386, 0.8270060655049747, 0.8452411006146576, 0.861679358582478, 0.8771226307435427, 0.8948623915930511, 0.9118996890611015, 0.9269500868831528, 0.9452226686262293, 0.9616902812413173, 0.9771291160723194, 0.9950361301162047, 1.011917779716896, 1.0270309828192694, 1.045235639277962, 1.061671849252889, 1.0771199000737397, 1.0950750420888653, 1.1119631770125125, 1.126992412187974, 1.1508847011282342, 1.1614629534306005, 1.1772168386523845, 1.1951815379870823]
14	邮票	False	inanimate	animate	left	1.212	[0.0, 0.0, 0.0, 0.0, 0.0, 0.0, 0.0, 0.0, 0.0, 0.0, 0.0, 0.0, 0.0, 0.0, 0.0, 0.0, 0.0, 0.0, 5.0, 33.0, 57.0, 83.0, 106.0, 126.0, 144.0, 164.0, 182.0, 206.0, 233.0, 266.0, 299.0, 352.0, 385.0, 404.0, 485.0, 533.0, 574.0, 614.0, 639.0, 652.0, 660.0, 664.0, 664.0, 651.0, 632.0, 617.0, 529.0, 427.0, 305.0, 160.0, 22.0, -113.0, -216.0, -295.0, -361.0, -445.0, -486.0, -519.0, -548.0, -576.0, -602.0, -626.0, -650.0, -667.0, -683.0, -697.0, -715.0, -757.0, -779.0, -787.0, -799.0, -800.0, -800.0]	[-490.0, -490.0, -490.0, -490.0, -490.0, -490.0, -490.0, -490.0, -490.0, -490.0, -490.0, -490.0, -490.0, -490.0, -490.0, -490.0, -490.0, -490.0, -491.0, -495.0, -498.0, -502.0, -506.0, -509.0, -510.0, -511.0, -511.0, -511.0, -511.0, -502.0, -491.0, -469.0, -445.0, -430.0, -357.0, -298.0, -234.0, -167.0, -108.0, -49.0, 0.0, 41.0, 72.0, 114.0, 144.0, 160.0, 218.0, 260.0, 300.0, 341.0, 362.0, 380.0, 380.0, 380.0, 369.0, 347.0, 341.0, 335.0, 329.0, 324.0, 322.0, 322.0, 322.0, 324.0, 329.0, 337.0, 352.0, 393.0, 417.0, 426.0, 440.0, 442.0, 442.0]	[0.015793275073519908, 0.020941942682839, 0.029710788527154364, 0.047991220926633105, 0.06487696652766317, 0.07987684705585707, 0.09817946610564832, 0.11472831598075572, 0.1301688574749278, 0.14794855429499876, 0.16493226247257553, 0.17988708704069722, 0.19820199409150518, 0.21475630528584588, 0.23008147621294484, 0.24810386083845515, 0.2649322624783963, 0.27968535921536386, 0.29820745541655924, 0.314466172203538, 0.330069870891748, 0.3480768955196254, 0.36492884914332535, 0.38002737492206506, 0.3982002874254249, 0.4147228546498809, 0.43009649486339185, 0.44785195705480874, 0.4649329451349331, 0.479886745713884, 0.49818799943022896, 0.5147061293391744, 0.5300712362222839, 0.548006580924266, 0.5649083691678243, 0.5796058286214247, 0.5980879888520576, 0.6146597080369247, 0.6300719188875519, 0.6479093009984354, 0.6647817346092779, 0.6796614659106126, 0.6980695568636293, 0.7146033880853793, 0.7300893268693471, 0.7479106663377024, 0.7649250944814412, 0.7798761643934995, 0.7981576207967009, 0.8147733719379175, 0.8300326655880781, 0.8478819943557028, 0.864810406579636, 0.8798703617358115, 0.8981426021346124, 0.9145945134368958, 0.9300726015499095, 0.9479089596716221, 0.9649349931423785, 0.9799249750212766, 0.9981845861038892, 1.0146068014146294, 1.030071918896283, 1.0478860903531313, 1.0647759319399484, 1.079934191002394, 1.098043274221709, 1.1146542467176914, 1.1300848895480158, 1.1479198823217303, 1.1648636545287445, 1.1798590977414278, 1.1982808420143556]
15	袜子	False	inanimate	animate	left	1.067	[0.0, 0.0, 0.0, 0.0, 0.0, 0.0, 0.0, 0.0, 0.0, 0.0, 0.0, 0.0, 0.0, 0.0, 0.0, 0.0, 0.0, 0.0, 0.0, 0.0, 0.0, 0.0, 0.0, 0.0, 0.0, 0.0, 0.0, 0.0, 0.0, 0.0, 0.0, 0.0, 2.0, 45.0, 114.0, 194.0, 266.0, 311.0, 330.0, 338.0, 339.0, 319.0, 303.0, 247.0, 201.0, 144.0, 81.0, 14.0, -72.0, -169.0, -285.0, -406.0, -583.0, -681.0, -757.0, -811.0, -864.0, -874.0, -891.0, -896.0, -898.0, -898.0, -898.0, -898.0, -898.0]	[-490.0, -490.0, -490.0, -490.0, -490.0, -490.0, -490.0, -490.0, -490.0, -490.0, -490.0, -490.0, -490.0, -490.0, -490.0, -490.0, -490.0, -490.0, -490.0, -490.0, -490.0, -490.0, -490.0, -490.0, -490.0, -490.0, -490.0, -490.0, -490.0, -490.0, -490.0, -490.0, -479.0, -439.0, -387.0, -339.0, -297.0, -265.0, -235.0, -211.0, -165.0, -112.0, -80.0, 11.0, 69.0, 141.0, 204.0, 260.0, 311.0, 354.0, 391.0, 418.0, 442.0, 444.0, 444.0, 444.0, 444.0, 445.0, 448.0, 449.0, 449.0, 449.0, 449.0, 449.0, 449.0]	[0.015780987072503194, 0.0233053326519439, 0.029866095050238073, 0.04847557250468526, 0.06491075847588945, 0.08036631862341892, 0.09822520472516771, 0.11507545167114586, 0.12999034028325696, 0.1483042233157903, 0.16488788917195052, 0.18031682533910498, 0.19820916205935646, 0.21508944632660132, 0.2300203775812406, 0.24837453792861197, 0.2649431851168629, 0.28036324662389234, 0.2982395407016156, 0.3151345022924943, 0.330208793428028, 0.34848308183427434, 0.36501691305602435, 0.3803297959966585, 0.3982385167037137, 0.41509285966458265, 0.43015827613999136, 0.4484185698820511, 0.4649227051413618, 0.48035403063113336, 0.49827265001658816, 0.5151775102567626, 0.5301787561184028, 0.5484527031949256, 0.564886865162407, 0.580256409390131, 0.598175711435033, 0.6150774996785913, 0.6300664575537667, 0.6482960313296644, 0.6649302144651301, 0.6802983933448559, 0.6981275834696135, 0.7150375636992976, 0.7301265321584651, 0.7483660045982106, 0.7648059692437528, 0.7803123880003113, 0.7978900156740565, 0.8149942144082161, 0.8314338377094828, 0.8483724899269873, 0.8648346412082901, 0.8803758759459015, 0.8981350927933818, 0.921861835216987, 0.9302576040499844, 0.9483991138986312, 0.9648332758806646, 0.9803693906287663, 0.9981115408154437, 1.0150959316524677, 1.0299490389879793, 1.0481243407994043, 1.0648261078895302]
16	军队	True	animate	inanimate	right	1.533	[0.0, 0.0, 0.0, 0.0, 0.0, 0.0, 0.0, 0.0, 0.0, 0.0, 0.0, 1.0, 5.0, 13.0, 38.0, 50.0, 85.0, 108.0, 130.0, 154.0, 174.0, 198.0, 217.0, 231.0, 240.0, 241.0, 236.0, 231.0, 216.0, 203.0, 192.0, 183.0, 178.0, 174.0, 173.0, 173.0, 173.0, 173.0, 173.0, 173.0, 173.0, 173.0, 173.0, 173.0, 173.0, 173.0, 173.0, 173.0, 173.0, 173.0, 160.0, 142.0, 50.0, -43.0, -146.0, -255.0, -356.0, -433.0, -476.0, -494.0, -503.0, -505.0, -510.0, -515.0, -519.0, -519.0, -520.0, -509.0, -474.0, -388.0, -274.0, -135.0, 38.0, 202.0, 394.0, 443.0, 573.0, 630.0, 668.0, 689.0, 708.0, 731.0, 774.0, 831.0, 866.0, 893.0, 902.0, 902.0, 902.0, 902.0, 902.0, 902.0, 902.0]	[-490.0, -490.0, -490.0, -490.0, -490.0, -490.0, -490.0, -490.0, -490.0, -490.0, -490.0, -490.0, -490.0, -490.0, -488.0, -486.0, -480.0, -470.0, -459.0, -442.0, -421.0, -385.0, -337.0, -285.0, -238.0, -205.0, -142.0, -126.0, -88.0, -70.0, -55.0, -45.0, -40.0, -38.0, -38.0, -38.0, -38.0, -38.0, -38.0, -38.0, -38.0, -38.0, -38.0, -38.0, -38.0, -38.0, -38.0, -38.0, -38.0, -38.0, -15.0, 8.0, 105.0, 176.0, 250.0, 329.0, 388.0, 428.0, 445.0, 454.0, 457.0, 458.0, 460.0, 461.0, 463.0, 463.0, 464.0, 471.0, 477.0, 486.0, 490.0, 494.0, 494.0, 494.0, 494.0, 494.0, 494.0, 494.0, 498.0, 500.0, 500.0, 500.0, 501.0, 501.0, 498.0, 491.0, 487.0, 487.0, 487.0, 487.0, 487.0, 487.0, 487.0]	[0.007811884526745416, 0.012210643428261392, 0.016726479574572295, 0.03261450868740212, 0.04901214802521281, 0.06443630553258117, 0.08237642889434937, 0.09921848385420162, 0.11415555910207331, 0.13245203415863216, 0.14897460139764007, 0.16441275355464313, 0.1821542210818734, 0.19921131586306728, 0.21414292977715377, 0.23251313278160524, 0.24899269203888252, 0.2643567749328213, 0.28221463703084737, 0.29919083588174544, 0.31423372437711805, 0.3324400874989806, 0.34875580691732466, 0.36432571362820454, 0.38229177829634864, 0.3991031132900389, 0.4141436124482425, 0.43255955407221336, 0.44887049481621943, 0.4643598469265271, 0.48210438645037357, 0.49920209986157715, 0.5140432605403475, 0.5324144875194179, 0.5489237427682383, 0.5643755482451525, 0.5822494530002587, 0.5992242865177104, 0.6138879540085327, 0.6323038956179516, 0.648735668262816, 0.6643506309337681, 0.6822600343293743, 0.699143731922959, 0.714157265771064, 0.7323264236038085, 0.7489694813993992, 0.7643984175665537, 0.7822825623006793, 0.7991147186112357, 0.8141763804160291, 0.8324138048628811, 0.8487964255473344, 0.8643991002318216, 0.8823535595729481, 0.8991273479332449, 0.9142129030515207, 0.9324769514787477, 0.9488875614624703, 0.9643646256008651, 0.9823122582747601, 0.999132809258299, 1.0141780870908406, 1.0325284927675966, 1.0488926814578008, 1.0643915909022326, 1.0820170052029425, 1.0991355399164604, 1.113918332644971, 1.1324482795025688, 1.1486230283626355, 1.1643028443213552, 1.1822436503425706, 1.1991051612858428, 1.214221095055109, 1.2324626154877478, 1.2486534070048947, 1.2643700869230088, 1.2821886957244715, 1.2991034546139417, 1.3142040284001268, 1.3324489621591056, 1.3487786762270844, 1.3643537029420258, 1.38223102100892, 1.399152265235898, 1.4140053725714097, 1.4323998102045152, 1.448882100143237, 1.4643670149234822, 1.4822221463546157, 1.4991788892220939, 1.5139900125795975]
17	乞丐	True	inanimate	animate	left	1.289	[0.0, 0.0, 0.0, 0.0, 0.0, 0.0, 0.0, 1.0, 1.0, 1.0, 1.0, 2.0, 8.0, 15.0, 26.0, 40.0, 50.0, 63.0, 76.0, 89.0, 100.0, 113.0, 138.0, 162.0, 174.0, 221.0, 260.0, 309.0, 355.0, 390.0, 417.0, 439.0, 457.0, 471.0, 487.0, 501.0, 507.0, 520.0, 536.0, 546.0, 554.0, 560.0, 565.0, 570.0, 575.0, 580.0, 588.0, 593.0, 599.0, 624.0, 646.0, 663.0, 681.0, 692.0, 697.0, 698.0, 698.0, 696.0, 633.0, 527.0, 367.0, 188.0, -6.0, -173.0, -316.0, -438.0, -538.0, -597.0, -639.0, -672.0, -703.0, -725.0, -737.0, -777.0, -802.0, -821.0, -827.0, -827.0]	[-490.0, -490.0, -490.0, -490.0, -490.0, -490.0, -490.0, -490.0, -490.0, -490.0, -490.0, -490.0, -490.0, -490.0, -490.0, -490.0, -490.0, -490.0, -487.0, -486.0, -482.0, -477.0, -467.0, -458.0, -451.0, -426.0, -399.0, -363.0, -324.0, -293.0, -268.0, -240.0, -210.0, -188.0, -150.0, -119.0, -104.0, -65.0, -32.0, -3.0, 22.0, 47.0, 64.0, 80.0, 96.0, 116.0, 142.0, 164.0, 175.0, 215.0, 242.0, 266.0, 286.0, 301.0, 309.0, 314.0, 317.0, 320.0, 338.0, 354.0, 382.0, 417.0, 442.0, 459.0, 459.0, 459.0, 459.0, 455.0, 449.0, 438.0, 431.0, 424.0, 421.0, 413.0, 410.0, 405.0, 405.0, 405.0]	[0.00719509573536925, 0.011497257393784821, 0.01558267256768886, 0.03297495639708359, 0.04777481577184517, 0.06312183200498112, 0.08092030214902479, 0.09798285826400388, 0.113144871982513, 0.13126658451801632, 0.1475488532887539, 0.16317337329383008, 0.18109677133907098, 0.19805146619910374, 0.21296942680783104, 0.23131334714707918, 0.2477741331094876, 0.26314367732265964, 0.2809994914132403, 0.2979169809841551, 0.3129980987723684, 0.33122698988881893, 0.34775433578761294, 0.3631532346480526, 0.3810602487064898, 0.39794701829669066, 0.41299912278191186, 0.4312382538773818, 0.447792906415998, 0.4632057999406243, 0.48103772071772255, 0.4979296102974331, 0.5130124347633682, 0.5312082165764878, 0.5476922131783795, 0.5631699599616695, 0.5809721847763285, 0.597921418317128, 0.6129523601557594, 0.6311539446178358, 0.6477410238003358, 0.6631849786208477, 0.6809868620912312, 0.6978480317047797, 0.7127093310264172, 0.7312102645664709, 0.747682655841345, 0.7631092026858823, 0.780991640756838, 0.7978941116743954, 0.8130708027165383, 0.831180909925024, 0.8476990398339694, 0.8632180879212683, 0.8807550969650038, 0.8978323303890647, 0.912869074891205, 0.9311942219210323, 0.9477410238032462, 0.9632136505970266, 0.9809749154374003, 0.9979330236383248, 1.012828456252464, 1.0312304032268003, 1.0477051838242915, 1.0631406053289538, 1.0809803767624544, 1.097872949016164, 1.1129479228256969, 1.1311839819245506, 1.1476980158331571, 1.1631279760040343, 1.1810332833847497, 1.1980006075755227, 1.2130540773941902, 1.231237571220845, 1.2476311145583168, 1.2631784932891605]
18	螃蟹	True	animate	inanimate	left	1.666	[0.0, 0.0, 0.0, 0.0, 0.0, 0.0, 0.0, 0.0, 0.0, 0.0, 0.0, 0.0, 0.0, 0.0, 0.0, 0.0, 3.0, 9.0, 13.0, 14.0, 14.0, 14.0, 14.0, 14.0, 14.0, 14.0, 14.0, 14.0, 14.0, 14.0, 14.0, 14.0, 27.0, 47.0, 176.0, 188.0, 205.0, 226.0, 231.0, 231.0, 231.0, 236.0, 248.0, 261.0, 286.0, 294.0, 316.0, 320.0, 331.0, 346.0, 357.0, 373.0, 386.0, 416.0, 450.0, 496.0, 568.0, 587.0, 647.0, 666.0, 698.0, 732.0, 749.0, 755.0, 766.0, 769.0, 770.0, 771.0, 771.0, 772.0, 772.0, 772.0, 772.0, 772.0, 772.0, 772.0, 770.0, 747.0, 693.0, 577.0, 418.0, 253.0, 4.0, -77.0, -239.0, -455.0, -571.0, -647.0, -681.0, -713.0, -738.0, -762.0, -789.0, -816.0, -851.0, -860.0, -868.0, -870.0, -870.0, -870.0, -870.0]	[-490.0, -490.0, -490.0, -490.0, -490.0, -490.0, -490.0, -490.0, -490.0, -490.0, -490.0, -490.0, -490.0, -490.0, -490.0, -490.0, -490.0, -490.0, -492.0, -492.0, -492.0, -492.0, -492.0, -492.0, -492.0, -492.0, -492.0, -492.0, -492.0, -492.0, -492.0, -492.0, -492.0, -492.0, -484.0, -484.0, -477.0, -438.0, -381.0, -311.0, -256.0, -215.0, -188.0, -161.0, -117.0, -106.0, -64.0, -53.0, -27.0, 9.0, 31.0, 57.0, 80.0, 115.0, 150.0, 189.0, 241.0, 256.0, 295.0, 306.0, 327.0, 351.0, 363.0, 367.0, 380.0, 384.0, 389.0, 392.0, 394.0, 395.0, 397.0, 399.0, 401.0, 403.0, 404.0, 404.0, 409.0, 417.0, 429.0, 445.0, 469.0, 491.0, 497.0, 497.0, 497.0, 497.0, 486.0, 476.0, 468.0, 458.0, 451.0, 446.0, 444.0, 444.0, 444.0, 442.0, 441.0, 441.0, 441.0, 441.0, 441.0]	[0.007135703781386837, 0.01181196645484306, 0.01783000932482537, 0.031319832472945563, 0.04744918404321652, 0.06309077069454361, 0.0809779874398373, 0.09789957299653906, 0.11266666439769324, 0.1310720246838173, 0.14749355733511038, 0.16300509611028247, 0.18104693670466077, 0.19792244231211953, 0.2127086483524181, 0.23121879789687227, 0.24779017575201578, 0.263087698695017, 0.28111349664686713, 0.2979238076368347, 0.3128731708857231, 0.3311658912716666, 0.34772190914372914, 0.363081896037329, 0.3810145100724185, 0.39791186098591425, 0.4125779177993536, 0.43103379537933506, 0.4476536425354425, 0.46303684008307755, 0.48099710208771285, 0.4978446183667984, 0.5128240189224016, 0.5311276619759155, 0.5476382825436303, 0.5629876881139353, 0.5809728674357757, 0.5978384743793868, 0.6129383654915728, 0.6312215285579441, 0.6475068693252979, 0.663046738729463, 0.681050008701277, 0.697780789094395, 0.7127748669590801, 0.7310416460386477, 0.747523594647646, 0.7630156774248462, 0.7808803661755519, 0.7977797650964931, 0.8125516351574333, 0.8309791820938699, 0.847549194630119, 0.863024552090792, 0.8808800248516491, 0.897840181045467, 0.9127851069642929, 0.9310119500732981, 0.9475488532916643, 0.9630027067760238, 0.9808008355903439, 0.9977719144371804, 1.0128612242260715, 1.0310593953618081, 1.0476591038604965, 1.063059709384106, 1.0809558007895248, 1.0978009277459932, 1.1128069522674195, 1.1310559820267372, 1.1474293867213419, 1.1630481040629093, 1.180877976847114, 1.197709791827947, 1.2127888616232667, 1.2310686113487463, 1.2476048319076654, 1.2630880400392925, 1.2809240568167297, 1.2978183357336093, 1.3127496083179722, 1.3309829367644852, 1.3475222293200204, 1.3630184080975596, 1.3809124514955329, 1.3978227730549406, 1.412566995146335, 1.4309726967767347, 1.4475491946213879, 1.4630815546988742, 1.4806567930354504, 1.4977009171561804, 1.512768722968758, 1.5309614327852614, 1.5475833279342623, 1.5630085094308015, 1.5808568142092554, 1.5978965009999229, 1.6128359655849636, 1.6310768033436034, 1.6474075414153049]
19	饭店	False	animate	inanimate	right	1.019	[0.0, 0.0, 0.0, 0.0, 0.0, 0.0, 0.0, 0.0, 0.0, 0.0, 0.0, 0.0, 0.0, 0.0, 0.0, 0.0, 0.0, 0.0, 0.0, 0.0, 0.0, 0.0, 0.0, 0.0, 0.0, 0.0, 0.0, 0.0, 0.0, 0.0, 0.0, 0.0, 0.0, 0.0, 0.0, 0.0, 0.0, 8.0, 40.0, 89.0, 137.0, 189.0, 250.0, 329.0, 374.0, 391.0, 438.0, 477.0, 516.0, 556.0, 596.0, 629.0, 658.0, 684.0, 707.0, 731.0, 739.0, 741.0, 742.0, 742.0, 742.0, 742.0]	[-490.0, -490.0, -490.0, -490.0, -490.0, -490.0, -490.0, -490.0, -490.0, -490.0, -490.0, -490.0, -490.0, -490.0, -490.0, -490.0, -490.0, -490.0, -490.0, -490.0, -490.0, -490.0, -490.0, -490.0, -490.0, -490.0, -490.0, -490.0, -490.0, -490.0, -490.0, -490.0, -490.0, -490.0, -490.0, -490.0, -490.0, -485.0, -471.0, -451.0, -431.0, -406.0, -371.0, -304.0, -244.0, -214.0, -108.0, -14.0, 75.0, 159.0, 226.0, 280.0, 328.0, 362.0, 395.0, 436.0, 451.0, 453.0, 456.0, 456.0, 456.0, 456.0]	[0.01573797909077257, 0.020798924102564342, 0.02962579656741582, 0.04776798909006175, 0.06473019329132512, 0.07984885771293193, 0.09803951952198986, 0.11454911610053387, 0.13004802554496564, 0.14792466095241252, 0.16477251857577357, 0.17975499112799298, 0.19813748210435733, 0.21463991070049815, 0.2300036522501614, 0.2479294396180194, 0.2674857749370858, 0.27988981768430676, 0.2980845754937036, 0.3144101935613435, 0.33000740691204555, 0.34794923693698365, 0.3648104065505322, 0.379811993741896, 0.39802723153843544, 0.41456925476086326, 0.430021401567501, 0.4477444371150341, 0.46479777722561266, 0.479923268314451, 0.4981094928079983, 0.5146016813960159, 0.529997849589563, 0.5478946236544289, 0.5648264492047019, 0.5798423723899759, 0.5980640955094714, 0.6146504920179723, 0.6299882922612596, 0.6479434342763852, 0.6647742252534954, 0.6795088900107658, 0.6979989008978009, 0.7145378521090606, 0.7299630336201517, 0.7478386450384278, 0.7646462253615027, 0.7797485057963058, 0.7979326822824078, 0.8144975748145953, 0.8300459775491618, 0.8477966610662406, 0.8647673985833535, 0.8796792151988484, 0.8980285968718817, 0.9145644760865252, 0.9300582655414473, 0.9478226023784373, 0.9647793452459155, 0.9796795565343928, 0.9980197222175775, 1.0143880069081206]
20	公路	False	inanimate	animate	left	1.097	[0.0, 0.0, 0.0, 0.0, 0.0, 0.0, 0.0, 0.0, 0.0, 0.0, 0.0, 0.0, 0.0, 0.0, 0.0, 0.0, 0.0, 0.0, 0.0, 0.0, 0.0, 0.0, 0.0, 0.0, 0.0, 0.0, 0.0, 0.0, 0.0, 0.0, 0.0, 0.0, 0.0, 5.0, 73.0, 135.0, 189.0, 237.0, 275.0, 314.0, 355.0, 399.0, 439.0, 478.0, 531.0, 548.0, 577.0, 581.0, 580.0, 565.0, 516.0, 402.0, 219.0, -21.0, -270.0, -502.0, -729.0, -775.0, -854.0, -864.0, -864.0, -864.0, -864.0, -864.0, -864.0, -864.0]	[-490.0, -490.0, -490.0, -490.0, -490.0, -490.0, -490.0, -490.0, -490.0, -490.0, -490.0, -490.0, -490.0, -490.0, -490.0, -490.0, -490.0, -490.0, -490.0, -490.0, -490.0, -490.0, -490.0, -490.0, -490.0, -490.0, -490.0, -490.0, -490.0, -490.0, -490.0, -490.0, -490.0, -486.0, -422.0, -367.0, -320.0, -269.0, -225.0, -175.0, -113.0, -52.0, 2.0, 57.0, 134.0, 158.0, 215.0, 235.0, 252.0, 264.0, 279.0, 297.0, 319.0, 354.0, 372.0, 377.0, 377.0, 377.0, 377.0, 377.0, 377.0, 377.0, 377.0, 377.0, 377.0, 377.0]	[0.01662397728068754, 0.021116602772963233, 0.03164570312947035, 0.050261324577149935, 0.0664746440743329, 0.08173803371028043, 0.09984916492248885, 0.11662397727195639, 0.131611911157961, 0.15000020479783416, 0.16641320411872584, 0.1818339482997544, 0.1997945516341133, 0.21663728926796466, 0.23160781516344287, 0.24994047151994891, 0.2664534814248327, 0.2818568176153349, 0.2998303916101577, 0.3166444572561886, 0.3316521884553367, 0.34987425290455576, 0.36648044672620017, 0.38188002826063894, 0.39986623157165013, 0.4166792732285103, 0.4316457031236496, 0.44998006614332553, 0.46649819605227094, 0.4818564762827009, 0.4998396075970959, 0.5166198812803486, 0.5316535537858726, 0.5499670954886824, 0.5663575668440899, 0.5818260976375313, 0.5997324290219694, 0.6166485532594379, 0.6317361563851591, 0.6498933675611624, 0.6664056947920471, 0.6818301936291391, 0.6995556185138412, 0.7166004252940184, 0.7316262471431401, 0.7499469568429049, 0.766425833440735, 0.7818319002981298, 0.7996860077255405, 0.8165881373133743, 0.8318382149591343, 0.849841826260672, 0.8661541323381243, 0.8818394096306292, 0.8997358423512196, 0.9165929159644293, 0.9316361458040774, 0.9499486635031644, 0.966401257464895, 0.9818673989357194, 0.9996228611125844, 1.0166270492773037, 1.0317532230401412, 1.049935010189074, 1.0663609801704297, 1.0818254149780842]
21	奶牛	True	inanimate	animate	right	0.983	[0.0, 0.0, 0.0, 0.0, 0.0, 0.0, 0.0, 0.0, 0.0, 0.0, 0.0, 0.0, 0.0, 0.0, 0.0, 0.0, 0.0, 0.0, 0.0, 0.0, 0.0, 0.0, 1.0, 11.0, 15.0, 50.0, 70.0, 93.0, 109.0, 132.0, 161.0, 200.0, 247.0, 309.0, 396.0, 426.0, 442.0, 448.0, 449.0, 449.0, 449.0, 449.0, 449.0, 449.0, 449.0, 449.0, 449.0, 452.0, 462.0, 540.0, 598.0, 666.0, 735.0, 798.0, 837.0, 855.0, 855.0, 855.0, 855.0, 855.0]	[-490.0, -490.0, -490.0, -490.0, -490.0, -490.0, -490.0, -490.0, -490.0, -490.0, -490.0, -490.0, -490.0, -490.0, -490.0, -490.0, -490.0, -490.0, -490.0, -490.0, -490.0, -490.0, -472.0, -440.0, -419.0, -299.0, -221.0, -155.0, -96.0, -39.0, 16.0, 68.0, 113.0, 166.0, 227.0, 246.0, 255.0, 259.0, 260.0, 260.0, 260.0, 260.0, 260.0, 260.0, 260.0, 260.0, 260.0, 260.0, 265.0, 305.0, 328.0, 345.0, 361.0, 369.0, 376.0, 381.0, 381.0, 381.0, 381.0, 381.0]	[0.0143927855824586, 0.01894138970237691, 0.02691663622681517, 0.0451677139790263, 0.06206711289996747, 0.07679051367449574, 0.09516856732079759, 0.11192631302401423, 0.12723134529369418, 0.14509330337750725, 0.16208349687804002, 0.17699497216381133, 0.19527915921935346, 0.21169011054735165, 0.22724670528259594, 0.24521106328757014, 0.2620746222237358, 0.2770635800989112, 0.2952385405951645, 0.31174950250715483, 0.327303025231231, 0.3452424659190001, 0.36215312882268336, 0.3767966576560866, 0.3952692605671473, 0.4118812570523005, 0.42731838522013277, 0.44516259398369584, 0.4620439022546634, 0.4770041881565703, 0.49523956459597684, 0.511747454511351, 0.5272272493020864, 0.5450666794058634, 0.5620285422628513, 0.5770314948022133, 0.5952795005578082, 0.6117993371299235, 0.6272415852872655, 0.6451049087045249, 0.6620589209051104, 0.6770861080876784, 0.6953511804895243, 0.7118293744279072, 0.7272654785920167, 0.7451069567032391, 0.76204697425419, 0.7770659694360802, 0.7952422952512279, 0.8117727131466381, 0.8272426092880778, 0.8451503060059622, 0.8619892889691982, 0.8770465134439291, 0.895250145913451, 0.9118559984053718, 0.9272559212695342, 0.945108322033775, 0.9620613102306379, 0.9770386627933476]
22	蚂蚁	True	animate	inanimate	left	2.041	[0.0, 0.0, 0.0, 0.0, 0.0, 0.0, 0.0, 0.0, 0.0, 0.0, 0.0, 0.0, 0.0, 0.0, 0.0, 0.0, 0.0, 0.0, 0.0, 0.0, 0.0, 0.0, 0.0, 0.0, 0.0, 0.0, 0.0, 0.0, 0.0, 0.0, 0.0, 0.0, 0.0, 0.0, 0.0, 0.0, 0.0, 0.0, 0.0, 0.0, 0.0, 9.0, 34.0, 86.0, 121.0, 133.0, 155.0, 156.0, 145.0, 104.0, 29.0, -78.0, -191.0, -323.0, -441.0, -572.0, -621.0, -642.0, -675.0, -690.0, -704.0, -715.0, -720.0, -723.0, -724.0, -727.0, -729.0, -738.0, -744.0, -750.0, -756.0, -763.0, -771.0, -776.0, -779.0, -779.0, -779.0, -774.0, -756.0, -714.0, -674.0, -639.0, -608.0, -580.0, -565.0, -563.0, -563.0, -563.0, -563.0, -563.0, -563.0, -563.0, -565.0, -577.0, -647.0, -717.0, -799.0, -885.0, -948.0, -960.0, -960.0, -960.0, -960.0, -960.0, -960.0, -960.0, -960.0, -960.0, -960.0, -960.0, -960.0, -960.0, -960.0, -960.0, -957.0, -921.0, -884.0, -835.0, -788.0, -771.0, -767.0, -767.0, -767.0]	[-490.0, -490.0, -490.0, -490.0, -490.0, -490.0, -490.0, -490.0, -490.0, -490.0, -490.0, -490.0, -490.0, -490.0, -490.0, -490.0, -490.0, -490.0, -490.0, -490.0, -490.0, -490.0, -490.0, -490.0, -490.0, -490.0, -490.0, -490.0, -490.0, -490.0, -490.0, -490.0, -490.0, -490.0, -490.0, -490.0, -490.0, -490.0, -490.0, -490.0, -489.0, -467.0, -437.0, -385.0, -346.0, -332.0, -297.0, -277.0, -248.0, -200.0, -141.0, -77.0, -29.0, 24.0, 75.0, 133.0, 155.0, 168.0, 188.0, 200.0, 214.0, 227.0, 234.0, 242.0, 254.0, 269.0, 284.0, 312.0, 327.0, 343.0, 356.0, 372.0, 385.0, 400.0, 414.0, 424.0, 435.0, 446.0, 462.0, 477.0, 487.0, 490.0, 490.0, 490.0, 490.0, 490.0, 490.0, 490.0, 490.0, 490.0, 490.0, 490.0, 489.0, 487.0, 483.0, 483.0, 483.0, 483.0, 483.0, 483.0, 483.0, 483.0, 483.0, 483.0, 483.0, 483.0, 483.0, 483.0, 483.0, 483.0, 483.0, 483.0, 483.0, 483.0, 475.0, 456.0, 441.0, 427.0, 413.0, 408.0, 407.0, 407.0, 407.0]	[0.00010185377323068678, 0.004899972336716019, 0.015071696994709782, 0.03350811859127134, 0.049926237916224636, 0.0653561980871018, 0.08319323886826169, 0.10020664300827775, 0.11509320097684395, 0.133392748030019, 0.1499828992091352, 0.16538316340302117, 0.18325331348751206, 0.20414494365104474, 0.2151071956322994, 0.23330604944203515, 0.24976717671961524, 0.2653934033878613, 0.2832949561125133, 0.30014929905883037, 0.31495052376703825, 0.333239830826642, 0.35010509644052945, 0.3653756540734321, 0.383294273444335, 0.40014144840824883, 0.4149464277725201, 0.43321252417808864, 0.44977912337344605, 0.46534800609515514, 0.48330622010689694, 0.5002278056635987, 0.5151372329419246, 0.5333104867604561, 0.5501774590375135, 0.5653684860735666, 0.5832485348219052, 0.600141789735062, 0.6152031102101319, 0.6333801186992787, 0.6499914325249847, 0.6653104594588513, 0.6831116602697875, 0.7001888936938485, 0.7151549822592642, 0.7334108386858134, 0.7499665152136004, 0.7653561980841914, 0.7849282347160624, 0.8000032085255953, 0.8150809129874688, 0.8332736228039721, 0.8497026647819439, 0.8652906621427974, 0.8831611535570119, 0.900111411101534, 0.9150785236561205, 0.9333442787319655, 0.9497071021032752, 0.9653155794512713, 0.9831748068827437, 1.0000629418063909, 1.0150744276616024, 1.03328795878042, 1.0498009686998557, 1.065314896783093, 1.0831731002108427, 1.1001544190512504, 1.1150150357134407, 1.1335279159102356, 1.1498641153011704, 1.1653254781122087, 1.1831990415230393, 1.200092296450748, 1.2149259477882879, 1.2332777187984902, 1.249580126212095, 1.2652930514741456, 1.2829877563781338, 1.300074547121767, 1.3149259477795567, 1.333387628037599, 1.349831688668928, 1.3653097767964937, 1.3831379429175286, 1.4001182377542136, 1.4151174356229603, 1.4333439374022419, 1.4496671661472647, 1.465302950135083, 1.4831533029064303, 1.5001260884164367, 1.5151034409645945, 1.5333910413610283, 1.5499559338932158, 1.5653954513836652, 1.5831393082480645, 1.6001206270884722, 1.6150297130370745, 1.6332807907892857, 1.6499142912653042, 1.665397840712103, 1.683100737616769, 1.7002011816803133, 1.7151484969363082, 1.7333722680486972, 1.749958664557198, 1.7653227474511368, 1.7831266789289657, 1.8001015124318656, 1.8148754305002512, 1.8331988708669087, 1.849835101995268, 1.8653340114396997, 1.8829580603924114, 1.9001086804346414, 1.9151242622901918, 1.9334733026335016, 1.9498378326679813, 1.965329574115458, 1.9831556922290474, 2.000097757772892, 2.0150880809815135]
23	狮子	True	inanimate	animate	right	1.025	[0.0, 0.0, 0.0, 0.0, 0.0, 0.0, 0.0, 0.0, 0.0, 0.0, 0.0, 0.0, 0.0, 0.0, 12.0, 30.0, 51.0, 71.0, 96.0, 125.0, 142.0, 152.0, 180.0, 205.0, 236.0, 288.0, 354.0, 413.0, 497.0, 523.0, 575.0, 638.0, 672.0, 700.0, 724.0, 742.0, 753.0, 760.0, 764.0, 767.0, 772.0, 774.0, 775.0, 775.0, 775.0, 775.0, 774.0, 773.0, 772.0, 770.0, 767.0, 763.0, 759.0, 759.0, 759.0, 758.0, 757.0, 754.0, 750.0, 749.0, 749.0, 749.0]	[-490.0, -490.0, -490.0, -490.0, -490.0, -490.0, -490.0, -490.0, -490.0, -490.0, -490.0, -490.0, -490.0, -490.0, -494.0, -499.0, -502.0, -506.0, -510.0, -510.0, -510.0, -510.0, -510.0, -510.0, -504.0, -490.0, -465.0, -427.0, -360.0, -336.0, -286.0, -210.0, -160.0, -108.0, -61.0, -15.0, 25.0, 62.0, 102.0, 131.0, 158.0, 183.0, 210.0, 244.0, 260.0, 269.0, 270.0, 273.0, 278.0, 284.0, 299.0, 315.0, 326.0, 332.0, 336.0, 348.0, 355.0, 369.0, 378.0, 380.0, 380.0, 380.0]	[0.008286678785225376, 0.01271854700462427, 0.017135737914941274, 0.03358560120977927, 0.049882888633874245, 0.06530431547435, 0.0831894842121983, 0.10016022172931116, 0.11504370768670924, 0.13326304148358759, 0.1497651287354529, 0.16527120616228785, 0.18316832155687734, 0.200043144490337, 0.2150198143790476, 0.23329273745184764, 0.24969310745655093, 0.2652223955374211, 0.28338882270327304, 0.30006089381640777, 0.3150450730317971, 0.333377046714304, 0.349910877936054, 0.365289296823903, 0.3832287375116721, 0.4000697684678016, 0.4150044543930562, 0.43328727612970397, 0.44979892070114147, 0.46519713690213393, 0.4831502309098141, 0.5000093525159173, 0.5150259583751904, 0.5332913721213117, 0.5497200727695599, 0.565242192853475, 0.5831317989213858, 0.6000103765254607, 0.6149843157472787, 0.633209452193114, 0.6497576194087742, 0.6652578941721004, 0.6830580709938658, 0.7000305151741486, 0.7150061610591365, 0.7332442681654356, 0.7498054060270078, 0.7652377555205021, 0.7830850362952333, 0.8001882110402221, 0.8149897770781536, 0.8332265188510064, 0.8497395287558902, 0.8652056702267146, 0.8830526096571703, 0.9000366591644706, 0.9150385877001099, 0.9333432547427947, 0.949796872708248, 0.965223760867957, 0.9830498789960984, 1.0000585044763284]
24	乌鸦	True	inanimate	animate	right	1.331	[0.0, 0.0, 0.0, 0.0, 0.0, 0.0, 0.0, 0.0, 0.0, 0.0, 0.0, 0.0, 0.0, 0.0, 0.0, 7.0, 34.0, 46.0, 73.0, 99.0, 133.0, 144.0, 161.0, 170.0, 177.0, 183.0, 191.0, 200.0, 205.0, 211.0, 216.0, 224.0, 229.0, 236.0, 254.0, 270.0, 284.0, 304.0, 330.0, 356.0, 398.0, 409.0, 424.0, 434.0, 441.0, 442.0, 448.0, 458.0, 472.0, 490.0, 512.0, 532.0, 551.0, 572.0, 585.0, 596.0, 609.0, 610.0, 619.0, 626.0, 627.0, 628.0, 628.0, 628.0, 628.0, 628.0, 628.0, 628.0, 630.0, 632.0, 635.0, 638.0, 641.0, 646.0, 660.0, 679.0, 700.0, 705.0, 708.0, 708.0, 708.0]	[-490.0, -491.0, -491.0, -491.0, -491.0, -491.0, -491.0, -491.0, -491.0, -491.0, -491.0, -491.0, -491.0, -491.0, -491.0, -492.0, -493.0, -494.0, -499.0, -503.0, -507.0, -508.0, -508.0, -506.0, -504.0, -502.0, -499.0, -495.0, -492.0, -488.0, -483.0, -476.0, -469.0, -458.0, -426.0, -390.0, -339.0, -278.0, -217.0, -152.0, -57.0, -31.0, 16.0, 51.0, 95.0, 107.0, 145.0, 173.0, 205.0, 241.0, 278.0, 313.0, 341.0, 371.0, 389.0, 403.0, 421.0, 423.0, 430.0, 434.0, 434.0, 435.0, 435.0, 435.0, 435.0, 435.0, 435.0, 435.0, 436.0, 436.0, 437.0, 437.0, 437.0, 437.0, 437.0, 437.0, 438.0, 438.0, 439.0, 439.0, 439.0]	[0.01370773017697502, 0.019747618352994323, 0.025670429298770614, 0.04441541597770993, 0.06085776994586922, 0.07625257280596998, 0.09424560278421268, 0.11110096973425243, 0.1258335864986293, 0.144474125263514, 0.1608956579148071, 0.17625018347462174, 0.19424628544948064, 0.2111388577031903, 0.2260981196013745, 0.24436489868094213, 0.26088132192671765, 0.2762525728030596, 0.2942299014684977, 0.317347023068578, 0.32593223174626473, 0.3443894746596925, 0.3609912311658263, 0.37629728743922897, 0.39409780557616614, 0.4111125750641804, 0.42618515953654423, 0.44433042404125445, 0.46083216996339615, 0.4762795381102478, 0.4943353733688127, 0.5110873164085206, 0.5260793462803122, 0.5443232560501201, 0.5609328632126562, 0.5762863647833001, 0.5942548187740613, 0.6110535244370112, 0.625874205128639, 0.6442403121181997, 0.660802132653771, 0.6762525728117907, 0.6941544668661663, 0.7109654605155811, 0.7260803702811245, 0.7443529520242009, 0.7608157859795028, 0.7762621301371837, 0.794186893501319, 0.8110740044212434, 0.8261626315506874, 0.8443840133404592, 0.8608065699809231, 0.8762699807848549, 0.8941425202065147, 0.9110682017635554, 0.9260813942819368, 0.9443587546847994, 0.9608052046532976, 0.976300359427114, 0.9939421577146277, 1.0111299830459757, 1.02605033297732, 1.0442310961370822, 1.0610861217428464, 1.0762867061130237, 1.0939083657431183, 1.1110395297873765, 1.126097095606383, 1.144475831926684, 1.16080281532777, 1.1762385781476041, 1.1939841416751733, 1.2110378231154755, 1.2261762848647777, 1.2443901573278708, 1.2605464742082404, 1.2763457567198202, 1.2940114483208163, 1.3111426123650745, 1.325895709116594]
25	老鼠	True	animate	inanimate	left	1.401	[0.0, 0.0, 0.0, 0.0, 0.0, 0.0, 0.0, 0.0, 0.0, 0.0, 0.0, 0.0, 0.0, 0.0, 0.0, 0.0, 2.0, 2.0, 3.0, 4.0, 8.0, 14.0, 24.0, 40.0, 59.0, 83.0, 109.0, 133.0, 175.0, 202.0, 214.0, 243.0, 262.0, 278.0, 301.0, 329.0, 366.0, 413.0, 494.0, 520.0, 562.0, 613.0, 625.0, 655.0, 667.0, 672.0, 676.0, 680.0, 680.0, 680.0, 655.0, 637.0, 548.0, 440.0, 374.0, 158.0, 10.0, -121.0, -232.0, -321.0, -394.0, -455.0, -500.0, -538.0, -575.0, -597.0, -617.0, -634.0, -654.0, -675.0, -698.0, -721.0, -738.0, -745.0, -747.0, -747.0, -747.0, -747.0, -747.0, -747.0, -747.0, -747.0, -747.0, -747.0, -747.0]	[-490.0, -491.0, -491.0, -491.0, -491.0, -491.0, -491.0, -491.0, -491.0, -491.0, -491.0, -491.0, -491.0, -493.0, -496.0, -499.0, -503.0, -504.0, -505.0, -506.0, -507.0, -507.0, -508.0, -511.0, -513.0, -518.0, -521.0, -521.0, -520.0, -515.0, -514.0, -506.0, -499.0, -493.0, -483.0, -470.0, -448.0, -415.0, -347.0, -325.0, -284.0, -217.0, -196.0, -129.0, -93.0, -55.0, -19.0, 16.0, 44.0, 71.0, 126.0, 151.0, 222.0, 270.0, 296.0, 360.0, 401.0, 422.0, 437.0, 437.0, 437.0, 435.0, 428.0, 423.0, 417.0, 415.0, 415.0, 415.0, 415.0, 415.0, 415.0, 415.0, 415.0, 415.0, 415.0, 415.0, 415.0, 415.0, 415.0, 415.0, 415.0, 415.0, 415.0, 415.0, 415.0]	[0.008765227714320645, 0.013739132802584209, 0.018229027642519213, 0.0346433922968572, 0.05090210909838788, 0.06641535452217795, 0.08412439540552441, 0.1011988981772447, 0.11602538151782937, 0.13433789923146833, 0.15100826366688125, 0.16644812250160612, 0.184322368571884, 0.20123132481239736, 0.21615645341807976, 0.2345150510809617, 0.2509311223984696, 0.26640613852941897, 0.28437254452728666, 0.30133884472888894, 0.3161759093927685, 0.33447648044966627, 0.3510625356284436, 0.36638087988831103, 0.38438722185674123, 0.4012439541402273, 0.41607453348115087, 0.4344392751372652, 0.45103966630995274, 0.4664068212005077, 0.4843500165588921, 0.5012599967885762, 0.5159984162164619, 0.534277824612218, 0.5510908662690781, 0.5664423198322766, 0.5843428485532058, 0.6012070901633706, 0.6159605282446137, 0.6344860377721488, 0.65097856768989, 0.666429690507357, 0.6841356594086392, 0.701150087552378, 0.7162042400304927, 0.7344153818266932, 0.751038983638864, 0.7663859998865519, 0.7840943581104511, 0.8011002529237885, 0.8161772747262148, 0.8344205018220237, 0.8508986957604066, 0.8663586932379985, 0.8842906245990889, 0.9011975328467088, 0.9160950134682935, 0.9345925336820073, 0.9510051916731754, 0.9664225225133123, 0.9842506886343472, 1.001106055584387, 1.0162598773167701, 1.0344382511393633, 1.0508823117852444, 1.0664095518586691, 1.0842947205965174, 1.1012070901633706, 1.1159581389074447, 1.1344757977785775, 1.1510048503405415, 1.1664105758536607, 1.1842636592919007, 1.2012029941688525, 1.2162097013642779, 1.2344532698043622, 1.2508679757884238, 1.2664453918259824, 1.284301205931115, 1.3012057248415658, 1.3162752373027615, 1.334530752399587, 1.3509485303948168, 1.3664498291618656, 1.3840226781612728]
26	樱桃	False	animate	inanimate	right	2.383	[0.0, 0.0, 0.0, 0.0, 0.0, 0.0, 0.0, 0.0, 0.0, 0.0, 0.0, 0.0, 0.0, 0.0, 0.0, 0.0, 4.0, 14.0, 23.0, 28.0, 28.0, 28.0, 28.0, 28.0, 28.0, 28.0, 28.0, 28.0, 28.0, 28.0, 28.0, 40.0, 51.0, 88.0, 147.0, 278.0, 323.0, 427.0, 479.0, 516.0, 541.0, 561.0, 579.0, 593.0, 608.0, 616.0, 622.0, 628.0, 631.0, 638.0, 643.0, 648.0, 648.0, 648.0, 648.0, 640.0, 631.0, 608.0, 568.0, 454.0, 399.0, 237.0, 117.0, -1.0, -129.0, -268.0, -410.0, -571.0, -621.0, -708.0, -785.0, -910.0, -945.0, -960.0, -960.0, -960.0, -960.0, -960.0, -960.0, -960.0, -960.0, -960.0, -960.0, -960.0, -960.0, -960.0, -947.0, -892.0, -808.0, -656.0, -608.0, -513.0, -495.0, -467.0, -440.0, -365.0, -337.0, -232.0, -137.0, -39.0, 53.0, 113.0, 156.0, 184.0, 202.0, 214.0, 216.0, 216.0, 216.0, 216.0, 195.0, 138.0, 43.0, -74.0, -177.0, -250.0, -254.0, -254.0, -254.0, -206.0, -157.0, 8.0, 124.0, 233.0, 322.0, 368.0, 415.0, 467.0, 513.0, 541.0, 562.0, 586.0, 595.0, 621.0, 629.0, 633.0, 643.0, 658.0, 674.0, 690.0, 694.0, 697.0, 697.0, 697.0]	[-490.0, -490.0, -490.0, -490.0, -490.0, -490.0, -490.0, -490.0, -490.0, -490.0, -490.0, -490.0, -490.0, -490.0, -490.0, -490.0, -490.0, -495.0, -501.0, -507.0, -507.0, -507.0, -507.0, -507.0, -507.0, -507.0, -507.0, -507.0, -507.0, -507.0, -507.0, -507.0, -506.0, -497.0, -484.0, -465.0, -457.0, -435.0, -419.0, -406.0, -393.0, -378.0, -364.0, -348.0, -331.0, -315.0, -302.0, -283.0, -275.0, -247.0, -226.0, -198.0, -170.0, -142.0, -115.0, -86.0, -60.0, -27.0, 13.0, 71.0, 97.0, 162.0, 201.0, 234.0, 272.0, 306.0, 335.0, 357.0, 365.0, 377.0, 390.0, 404.0, 413.0, 424.0, 426.0, 426.0, 426.0, 426.0, 426.0, 426.0, 426.0, 426.0, 426.0, 426.0, 426.0, 426.0, 429.0, 437.0, 448.0, 465.0, 470.0, 479.0, 481.0, 486.0, 492.0, 501.0, 502.0, 502.0, 502.0, 502.0, 502.0, 502.0, 502.0, 502.0, 502.0, 502.0, 502.0, 502.0, 502.0, 502.0, 498.0, 483.0, 466.0, 450.0, 435.0, 427.0, 426.0, 426.0, 426.0, 426.0, 426.0, 426.0, 426.0, 426.0, 426.0, 426.0, 426.0, 426.0, 426.0, 426.0, 426.0, 426.0, 428.0, 434.0, 438.0, 439.0, 441.0, 447.0, 449.0, 450.0, 450.0, 450.0, 450.0, 450.0]	[0.01470476399117615, 0.019518925226293504, 0.02758496633032337, 0.04592342535033822, 0.06274192834098358, 0.07755066236131825, 0.0959072120313067, 0.1124031552899396, 0.12789489673741627, 0.14585925474239048, 0.16273885633563623, 0.17776672617765144, 0.19597411331778858, 0.2125902058032807, 0.22792356871650554, 0.24598384130513296, 0.2626839017175371, 0.2777090408926597, 0.29599083862558473, 0.31255163515743334, 0.3278928487416124, 0.3458920227130875, 0.36270028571016155, 0.37772201155894436, 0.3958891213842435, 0.4125803071365226, 0.42792288605414797, 0.44586505740880966, 0.4627774269756628, 0.4776919742434984, 0.49603179859695956, 0.5125355925119948, 0.5278525714384159, 0.5459039693669183, 0.5627009683666984, 0.5777329342090525, 0.5960099532821914, 0.6126048831210937, 0.6278925074002473, 0.6458715427288553, 0.6627211070153862, 0.6777049449010519, 0.6959314466803335, 0.7124717632395914, 0.7278979687398532, 0.7458264867746038, 0.7626381630980177, 0.7776936809095787, 0.7959300813527079, 0.8124990698706824, 0.8279181073885411, 0.8458636920695426, 0.8626920937094837, 0.877757851529168, 0.8959474893345032, 0.912471763236681, 0.9279242513730424, 0.9458363854355412, 0.962736125671654, 0.9776933395769447, 0.9960195106104948, 1.012350589997368, 1.0278563261090312, 1.0458401400974253, 1.062708477693377, 1.0777523901924724, 1.096036235918291, 1.1122498967597494, 1.1278986514080316, 1.1457913294725586, 1.1626794643816538, 1.1776745662646135, 1.1959553399938159, 1.2122505794250173, 1.2279324433766305, 1.2455998416262446, 1.2626620563969482, 1.2775503210286843, 1.2958481614186894, 1.312220883453847, 1.3278969447419513, 1.345849697419908, 1.3626917523797601, 1.377684464910999, 1.395960459994967, 1.4123823339759838, 1.4279375633632299, 1.4458121507777832, 1.4635908236086834, 1.4776708115969086, 1.4959949346230133, 1.5125154538691277, 1.5278426727891201, 1.5457090682029957, 1.5626299711002503, 1.5776994835759979, 1.596052278575371, 1.6123553686629748, 1.6279017234046478, 1.6456800548912724, 1.6627538749889936, 1.6777462462050607, 1.6959437346667983, 1.712419539282564, 1.727892507406068, 1.7457797241368098, 1.762738856341457, 1.7776967529061949, 1.7977664531208575, 1.8124581099109491, 1.827910939391586, 1.8458039587858366, 1.8626470377494115, 1.877777990172035, 1.8959843533084495, 1.9123775553161977, 1.9279553126834799, 1.94554352168052, 1.9629958801233443, 1.9776687636040151, 1.99589902003936, 2.0124226112675387, 2.0278925074089784, 2.0457496868330054, 2.0626443070796086, 2.0774858090881025, 2.0959502199984854, 2.112455379246967, 2.1279010407306487, 2.1457432015013183, 2.1626746857218677, 2.177666032934212, 2.195977867973852, 2.212401789962314, 2.227899675403023, 2.2457807481405325, 2.26264601375442, 2.27773941954365, 2.2959328120196005, 2.312386429970502, 2.327923227378051, 2.345800545459497, 2.3627286163537065, 2.3775025344075402]
27	蚊子	True	animate	inanimate	left	1.58	[0.0, 0.0, 0.0, 0.0, 0.0, 0.0, 0.0, 0.0, 0.0, 0.0, 0.0, 0.0, 0.0, 0.0, -4.0, -12.0, -17.0, -18.0, -18.0, -18.0, -18.0, -18.0, -18.0, -13.0, 13.0, 117.0, 155.0, 224.0, 316.0, 365.0, 384.0, 421.0, 450.0, 491.0, 558.0, 653.0, 755.0, 847.0, 929.0, 959.0, 959.0, 959.0, 950.0, 909.0, 846.0, 762.0, 667.0, 554.0, 427.0, 268.0, 96.0, -77.0, -327.0, -469.0, -593.0, -694.0, -764.0, -812.0, -849.0, -886.0, -921.0, -946.0, -960.0, -960.0, -960.0, -960.0, -960.0, -960.0, -960.0, -960.0, -960.0, -960.0, -958.0, -946.0, -926.0, -892.0, -847.0, -826.0, -817.0, -785.0, -767.0, -751.0, -736.0, -723.0, -712.0, -707.0, -702.0, -699.0, -697.0, -706.0, -716.0, -725.0, -733.0, -739.0, -742.0, -742.0]	[-490.0, -490.0, -490.0, -490.0, -490.0, -490.0, -490.0, -490.0, -490.0, -490.0, -490.0, -490.0, -490.0, -492.0, -495.0, -503.0, -511.0, -515.0, -516.0, -517.0, -517.0, -518.0, -519.0, -525.0, -539.0, -539.0, -539.0, -539.0, -539.0, -539.0, -539.0, -529.0, -517.0, -488.0, -430.0, -328.0, -212.0, -97.0, 15.0, 139.0, 291.0, 371.0, 432.0, 485.0, 532.0, 540.0, 540.0, 540.0, 540.0, 540.0, 540.0, 540.0, 540.0, 540.0, 540.0, 537.0, 520.0, 503.0, 488.0, 474.0, 457.0, 448.0, 438.0, 427.0, 420.0, 418.0, 418.0, 418.0, 418.0, 418.0, 418.0, 414.0, 401.0, 389.0, 373.0, 356.0, 328.0, 313.0, 306.0, 282.0, 268.0, 257.0, 249.0, 244.0, 241.0, 241.0, 245.0, 264.0, 309.0, 351.0, 382.0, 405.0, 420.0, 433.0, 436.0, 436.0]	[0.012277886067749932, 0.017444302982767113, 0.022741109132766724, 0.04106659749231767, 0.057948929752456024, 0.07289385567128193, 0.09121046937070787, 0.10762005536525976, 0.12309711950365454, 0.1409461069270037, 0.1579810150578851, 0.1729013650037814, 0.19121490670659114, 0.20772074861451983, 0.2231059941550484, 0.24094678960682359, 0.25790899379353505, 0.27289385566837154, 0.291193061391823, 0.3077354259439744, 0.32305308752984274, 0.34114408009918407, 0.3578987538057845, 0.3728877116809599, 0.39118486939696595, 0.407805057882797, 0.4231394447997445, 0.44102529619704, 0.45782639119715896, 0.47287781302293297, 0.4911910133960191, 0.5075026367994724, 0.5230718608509051, 0.5411703627469251, 0.5579175271122949, 0.572872010350693, 0.5911329867813038, 0.6077497619262431, 0.6230674235266633, 0.6410785441548796, 0.6578711058245972, 0.6728713276970666, 0.6911742880765814, 0.7074722581601236, 0.723099850161816, 0.7407402831158834, 0.7578653031669091, 0.7728638183616567, 0.7910753014875809, 0.8076692073373124, 0.823036703543039, 0.8409048056346364, 0.857781335231266, 0.8726450238900725, 0.8912633759900928, 0.9076388286921429, 0.9230838075163774, 0.9409737549140118, 0.957886124480865, 0.9728515303722816, 0.9910892961488571, 1.0075968447199557, 1.0231264741451014, 1.0408594083419302, 1.0579277671058662, 1.0729054609982995, 1.0912449440074852, 1.1073766849149251, 1.1231401274562813, 1.140729360457044, 1.1580632763216272, 1.1728320743859513, 1.1910852001456078, 1.2074927381472662, 1.22307561551861, 1.2409102669626009, 1.2578717884898651, 1.2728310503880493, 1.2910770081507508, 1.3075094634696143, 1.3230984848341905, 1.3409884322318248, 1.3578403858555248, 1.3728354877239326, 1.391063696166384, 1.4077156286220998, 1.423059914202895, 1.4409345016174484, 1.4579004604602233, 1.472902047666139, 1.4910766668181168, 1.507599916716572, 1.5231834767619148, 1.5409068536391715, 1.5578847591532394, 1.5727033918374218]
28	葫芦	False	animate	inanimate	right	0.983	[0.0, 0.0, 0.0, 0.0, 0.0, 0.0, 0.0, 0.0, 0.0, 0.0, 0.0, 0.0, 0.0, 0.0, 0.0, 0.0, 1.0, 9.0, 18.0, 40.0, 75.0, 121.0, 165.0, 203.0, 233.0, 270.0, 290.0, 311.0, 336.0, 367.0, 400.0, 448.0, 464.0, 489.0, 515.0, 534.0, 549.0, 559.0, 562.0, 564.0, 565.0, 566.0, 568.0, 568.0, 571.0, 575.0, 581.0, 587.0, 604.0, 630.0, 644.0, 658.0, 666.0, 670.0, 675.0, 678.0, 681.0, 683.0, 683.0, 683.0]	[-490.0, -490.0, -490.0, -490.0, -490.0, -490.0, -490.0, -490.0, -490.0, -490.0, -490.0, -490.0, -490.0, -490.0, -490.0, -490.0, -490.0, -487.0, -481.0, -465.0, -436.0, -395.0, -346.0, -296.0, -250.0, -186.0, -154.0, -117.0, -74.0, -21.0, 49.0, 137.0, 168.0, 227.0, 289.0, 333.0, 368.0, 399.0, 411.0, 417.0, 421.0, 424.0, 427.0, 429.0, 432.0, 436.0, 439.0, 443.0, 450.0, 459.0, 463.0, 463.0, 463.0, 464.0, 465.0, 466.0, 466.0, 466.0, 466.0, 466.0]	[0.01545125934353564, 0.020180428648018278, 0.029227119593997486, 0.047389792089234106, 0.06425744702573866, 0.07898391979688313, 0.09740702940325718, 0.11403711655293591, 0.12942918874614406, 0.14743382405140437, 0.16424515904509462, 0.17924640490673482, 0.19747358934546355, 0.21394324996799696, 0.22949233536201064, 0.24743177604977973, 0.2642345777130686, 0.2792597168881912, 0.29753775996505283, 0.31401902590005193, 0.3294360154104652, 0.3473802347725723, 0.36420078574155923, 0.37926995688758325, 0.3977865917549934, 0.41383982605475467, 0.42940222343895584, 0.44741573340434115, 0.4643127429881133, 0.47892657584452536, 0.5010944502573693, 0.5138603060331661, 0.5294182660873048, 0.5473071894957684, 0.5641830364329508, 0.5792494768975303, 0.5975039679906331, 0.6139623646158725, 0.6294315780833131, 0.6473078721610364, 0.6641987377515761, 0.6789979144523386, 0.6974671040225076, 0.7139405193011044, 0.729405636768206, 0.7472846615128219, 0.7641649457800668, 0.7792675675591454, 0.7975517546146875, 0.813997180579463, 0.82946605271718, 0.8474126614019042, 0.8642553990357555, 0.879268591554137, 0.8974821226729546, 0.9139394952944713, 0.9294244100892683, 0.9472880748508032, 0.9642332123912638, 0.9792225115961628]
29	老鼠	True	inanimate	animate	right	1.203	[0.0, 0.0, 0.0, 0.0, 0.0, 0.0, 0.0, 0.0, 0.0, 0.0, 0.0, 0.0, 0.0, 0.0, 0.0, 0.0, 0.0, 0.0, 0.0, 0.0, 18.0, 30.0, 81.0, 119.0, 155.0, 193.0, 231.0, 273.0, 322.0, 372.0, 424.0, 476.0, 495.0, 499.0, 527.0, 548.0, 557.0, 557.0, 538.0, 503.0, 426.0, 390.0, 298.0, 133.0, 42.0, 11.0, -20.0, -20.0, -20.0, -17.0, 13.0, 72.0, 157.0, 182.0, 226.0, 292.0, 342.0, 394.0, 436.0, 483.0, 526.0, 567.0, 599.0, 634.0, 677.0, 717.0, 740.0, 760.0, 772.0, 779.0, 808.0, 823.0, 824.0]	[-490.0, -490.0, -490.0, -490.0, -490.0, -490.0, -490.0, -490.0, -490.0, -490.0, -490.0, -490.0, -490.0, -490.0, -490.0, -490.0, -490.0, -490.0, -490.0, -490.0, -491.0, -491.0, -491.0, -490.0, -484.0, -473.0, -457.0, -432.0, -400.0, -363.0, -317.0, -252.0, -217.0, -210.0, -152.0, -98.0, -49.0, 6.0, 79.0, 152.0, 249.0, 279.0, 344.0, 430.0, 469.0, 483.0, 496.0, 496.0, 496.0, 505.0, 522.0, 540.0, 540.0, 540.0, 540.0, 540.0, 540.0, 540.0, 534.0, 518.0, 499.0, 482.0, 469.0, 454.0, 434.0, 417.0, 407.0, 398.0, 396.0, 393.0, 386.0, 383.0, 382.0]	[0.009147179385763593, 0.013523751651518978, 0.018505507410736755, 0.035154026525560766, 0.051503196576959454, 0.06708607394830324, 0.0848504107852932, 0.10187746825977229, 0.11683331683161668, 0.13509224525478203, 0.15156907385971863, 0.1670686659635976, 0.1850429226324195, 0.20191330823581666, 0.21671760492608882, 0.2350656212802278, 0.2516468977846671, 0.26711303925549146, 0.28497841068019625, 0.3019034095777897, 0.3167179462616332, 0.33517894384567626, 0.35162710047734436, 0.3670754926279187, 0.3850811519223498, 0.40186415627249517, 0.41669644227658864, 0.4350461652938975, 0.4515475698717637, 0.4670403353229631, 0.48486781876999885, 0.501902044241433, 0.5167176049289992, 0.5351536851958372, 0.5515161672374234, 0.5670731032878393, 0.58484324280289, 0.6018528922868427, 0.6166875676281052, 0.6350499199616024, 0.6514567752892617, 0.6670795886166161, 0.6847500588773983, 0.701841969625093, 0.7166838129633106, 0.7350908799126046, 0.7514072819903959, 0.7670768579555443, 0.784798528169631, 0.8018156869802624, 0.816834340832429, 0.8351693865261041, 0.8515591751929605, 0.8670492099772673, 0.884934037385392, 0.9018289989762707, 0.9168776901351521, 0.9350823465938447, 0.9515895538352197, 0.9671048472664552, 0.9847558615438174, 1.0019310575444251, 1.0168145435163751, 1.035067327946308, 1.05161412981397, 1.0670236099977046, 1.0848889814224094, 1.1018078363267705, 1.1168353648245102, 1.135074495934532, 1.1515991111664334, 1.1670300953264814, 1.1849074134079274]
30	歌手	True	animate	inanimate	left	1.289	[0.0, 0.0, 0.0, 0.0, 0.0, 0.0, 0.0, 0.0, 0.0, 0.0, 0.0, 0.0, 0.0, 0.0, 0.0, 0.0, 0.0, 0.0, 0.0, 0.0, 0.0, 0.0, 0.0, 0.0, 0.0, 1.0, 1.0, 1.0, 1.0, 1.0, 1.0, 1.0, 1.0, 1.0, 1.0, 1.0, 1.0, 1.0, 1.0, 1.0, 1.0, 1.0, 1.0, 1.0, 8.0, 19.0, 34.0, 34.0, 35.0, 12.0, -35.0, -105.0, -197.0, -308.0, -400.0, -470.0, -528.0, -538.0, -557.0, -566.0, -573.0, -579.0, -587.0, -603.0, -624.0, -642.0, -653.0, -668.0, -689.0, -710.0, -737.0, -747.0, -755.0, -759.0, -762.0, -765.0, -766.0, -766.0]	[-490.0, -490.0, -490.0, -490.0, -490.0, -490.0, -490.0, -490.0, -490.0, -490.0, -490.0, -490.0, -490.0, -490.0, -490.0, -490.0, -490.0, -490.0, -490.0, -490.0, -490.0, -490.0, -490.0, -490.0, -490.0, -489.0, -483.0, -483.0, -483.0, -483.0, -483.0, -483.0, -483.0, -483.0, -483.0, -483.0, -483.0, -483.0, -483.0, -483.0, -483.0, -483.0, -483.0, -483.0, -482.0, -478.0, -477.0, -477.0, -471.0, -412.0, -322.0, -216.0, -111.0, -9.0, 70.0, 131.0, 173.0, 180.0, 191.0, 199.0, 203.0, 209.0, 214.0, 224.0, 240.0, 250.0, 256.0, 267.0, 283.0, 295.0, 320.0, 336.0, 352.0, 362.0, 376.0, 386.0, 392.0, 393.0]	[0.00877478503389284, 0.01397567660023924, 0.01805187578429468, 0.03443722713564057, 0.05095945303037297, 0.06630305593716912, 0.08425990461546462, 0.10109240225574467, 0.11590318428352475, 0.1342539312900044, 0.1507601145422086, 0.16627677329233848, 0.18412064074072987, 0.20111151690070983, 0.2159236642619362, 0.23433482722612098, 0.25080482916382607, 0.26628257596166804, 0.28413292873301543, 0.3011135648994241, 0.3159311735944357, 0.3342157019942533, 0.35089186909317505, 0.3663477705704281, 0.3842786779423477, 0.40108421025797725, 0.41606565880647395, 0.4342839685996296, 0.4508911864249967, 0.46629383995605167, 0.48421860332018696, 0.5010944502573693, 0.5160786294727586, 0.5343471152154962, 0.5509789090137929, 0.5662842826277483, 0.584358891195734, 0.6010971809155308, 0.6160840907978127, 0.6343041072541382, 0.6508911864220863, 0.6662795039592311, 0.6842288433108479, 0.7010736289375927, 0.7160799948032945, 0.7345037870836677, 0.7509379490511492, 0.7662586826481856, 0.7843073499097954, 0.8010763596103061, 0.8161325600813143, 0.8343583792011486, 0.8507959545095218, 0.866292133287061, 0.8840414514706936, 0.9010224289813777, 0.9160683894733666, 0.9343348272232106, 0.9507775225210935, 0.9662341066723457, 0.9841626247070963, 1.0010125303233508, 1.0161049121088581, 1.0343256112246308, 1.0507863971870393, 1.0662269386812113, 1.0841237127315253, 1.1009568930312525, 1.116054736150545, 1.1342334513028618, 1.15073485589528, 1.1662371786660515, 1.184059200793854, 1.200999901004252, 1.2160718028026167, 1.2342996699153446, 1.25074509588012, 1.2662433226651046]
31	将军	True	animate	inanimate	left	1.448	[0.0, 0.0, 0.0, 0.0, 0.0, 0.0, 0.0, 0.0, 0.0, 0.0, 0.0, 0.0, 0.0, 0.0, 0.0, 0.0, 0.0, 0.0, 0.0, 3.0, 6.0, 10.0, 16.0, 18.0, 25.0, 34.0, 45.0, 56.0, 70.0, 84.0, 99.0, 118.0, 151.0, 205.0, 298.0, 331.0, 399.0, 474.0, 511.0, 542.0, 574.0, 606.0, 629.0, 650.0, 671.0, 689.0, 708.0, 722.0, 727.0, 735.0, 735.0, 735.0, 729.0, 717.0, 694.0, 664.0, 616.0, 549.0, 465.0, 372.0, 277.0, 182.0, 60.0, -17.0, -89.0, -160.0, -231.0, -291.0, -345.0, -400.0, -455.0, -520.0, -586.0, -663.0, -705.0, -725.0, -778.0, -813.0, -840.0, -856.0, -864.0, -865.0, -865.0, -865.0, -865.0, -865.0, -865.0, -865.0]	[-490.0, -490.0, -490.0, -490.0, -490.0, -490.0, -490.0, -490.0, -490.0, -490.0, -490.0, -490.0, -490.0, -490.0, -490.0, -490.0, -490.0, -490.0, -490.0, -490.0, -492.0, -493.0, -494.0, -494.0, -494.0, -496.0, -497.0, -498.0, -500.0, -500.0, -500.0, -500.0, -493.0, -479.0, -452.0, -448.0, -427.0, -402.0, -383.0, -358.0, -327.0, -287.0, -254.0, -212.0, -171.0, -125.0, -78.0, -26.0, 20.0, 92.0, 143.0, 163.0, 221.0, 251.0, 286.0, 315.0, 342.0, 366.0, 391.0, 412.0, 425.0, 440.0, 458.0, 465.0, 471.0, 471.0, 471.0, 471.0, 471.0, 471.0, 470.0, 462.0, 450.0, 433.0, 426.0, 423.0, 413.0, 408.0, 406.0, 402.0, 402.0, 401.0, 401.0, 401.0, 401.0, 401.0, 401.0, 401.0]	[0.013631271562189795, 0.01933085070049856, 0.025323634923552163, 0.04402629629475996, 0.06066798875690438, 0.07599725568434224, 0.09402544295880944, 0.11083541261905339, 0.1257830692047719, 0.14412221088423394, 0.16059187149221543, 0.1759607330459403, 0.19373189655016176, 0.21079138065397274, 0.22580423184263054, 0.24404233894892968, 0.2606301007908769, 0.27595834371459205, 0.29398516567016486, 0.3107500793557847, 0.325767367874505, 0.34401605630409904, 0.36059767415281385, 0.3759699490328785, 0.3938636511011282, 0.41071901805116795, 0.42548406145942863, 0.4441048028966179, 0.4605980154883582, 0.47593001306813676, 0.49388890975387767, 0.5107490553637035, 0.5256025040143868, 0.5478229437285336, 0.5605331622064114, 0.5759225037472788, 0.593802893825341, 0.6107698766718386, 0.6257267492474057, 0.6440856882400112, 0.6605410128686344, 0.6759228450828232, 0.6939878963312367, 0.7107190180540783, 0.7257291385758435, 0.743933112375089, 0.7604532902769279, 0.7759108984173508, 0.7937844618427334, 0.810720724723069, 0.8254844027833315, 0.8438341258006403, 0.8605065382289467, 0.8759446904005017, 0.8938697950943606, 0.9107227727217833, 0.9257202639128082, 0.9439198003819911, 0.9603594236978097, 0.9758955384313595, 0.9937868511624401, 1.0107773860072484, 1.0257741945388261, 1.043962467025267, 1.0605147302267142, 1.0760969249240588, 1.093639053957304, 1.1107466660323553, 1.1257083172677085, 1.1440211762965191, 1.1604474876221502, 1.175924551745993, 1.1938114271470113, 1.2107244793878635, 1.2255130747653311, 1.2439805576723302, 1.2602829650859348, 1.2759958903479856, 1.2939797043363797, 1.3107937699824106, 1.3258257358247647, 1.3439938696537865, 1.360368298352114, 1.3760044236696558, 1.3939254323777277, 1.410745642031543, 1.4257875065231929, 1.444045069612912]
32	老师	True	inanimate	animate	right	0.833	[0.0, 0.0, 0.0, 0.0, 0.0, 0.0, 0.0, 0.0, 0.0, 0.0, 0.0, 0.0, 0.0, 0.0, 0.0, 0.0, 0.0, 0.0, 0.0, 2.0, 5.0, 12.0, 32.0, 58.0, 106.0, 166.0, 249.0, 338.0, 419.0, 483.0, 530.0, 572.0, 620.0, 632.0, 665.0, 680.0, 687.0, 695.0, 697.0, 697.0, 697.0, 697.0, 697.0, 697.0, 697.0, 697.0, 700.0, 702.0, 705.0, 705.0, 705.0]	[-490.0, -490.0, -490.0, -490.0, -490.0, -490.0, -490.0, -490.0, -490.0, -490.0, -490.0, -490.0, -490.0, -490.0, -490.0, -490.0, -491.0, -491.0, -491.0, -491.0, -491.0, -491.0, -486.0, -474.0, -447.0, -405.0, -336.0, -259.0, -181.0, -106.0, -41.0, 17.0, 107.0, 135.0, 210.0, 251.0, 281.0, 311.0, 331.0, 346.0, 362.0, 375.0, 383.0, 390.0, 395.0, 402.0, 413.0, 420.0, 426.0, 426.0, 426.0]	[0.00762039668916259, 0.012055336905177683, 0.016512805101228878, 0.03216087707551196, 0.04847079383034725, 0.06389768200460821, 0.08192279728245921, 0.09869351364613976, 0.11369066350744106, 0.13201819987443741, 0.148534623105661, 0.16389597533270717, 0.18188900531094987, 0.19872013761778362, 0.2135817782691447, 0.23201444520964287, 0.24842915119370446, 0.26394546862866264, 0.28195488259370904, 0.2987283296097303, 0.31342408240016084, 0.33202366120531224, 0.34854486309632193, 0.363890172666288, 0.3818842266482534, 0.39868293231120333, 0.41377633810043335, 0.432054381177295, 0.4485359884420177, 0.46388846600893885, 0.48175622675626073, 0.4986866869730875, 0.5138118367322022, 0.5320021572115365, 0.5484561165067134, 0.5639058739907341, 0.5817920667323051, 0.5987020469619893, 0.6150986623106292, 0.6320379971875809, 0.6483984312217217, 0.6638758366898401, 0.6816992241365369, 0.6986255883675767, 0.7137285514763789, 0.7319652932492318, 0.7484175458812388, 0.7639198686520103, 0.7818224453658331, 0.798720478953328, 0.8137568821257446]
33	工人	True	inanimate	animate	right	0.951	[0.0, 0.0, 0.0, 0.0, 0.0, 0.0, 0.0, 0.0, 0.0, 0.0, 0.0, 0.0, 0.0, 0.0, 0.0, 0.0, 0.0, 0.0, 0.0, 0.0, 0.0, 0.0, 0.0, 0.0, 0.0, 0.0, 0.0, 0.0, 0.0, 0.0, 0.0, 0.0, 0.0, 32.0, 101.0, 194.0, 302.0, 422.0, 529.0, 631.0, 710.0, 798.0, 816.0, 851.0, 862.0, 867.0, 868.0, 868.0, 868.0, 864.0, 857.0, 852.0, 844.0, 835.0, 824.0, 813.0, 811.0, 811.0]	[-490.0, -490.0, -490.0, -490.0, -490.0, -490.0, -490.0, -490.0, -490.0, -490.0, -490.0, -490.0, -490.0, -490.0, -490.0, -490.0, -490.0, -490.0, -490.0, -490.0, -490.0, -490.0, -490.0, -490.0, -490.0, -490.0, -490.0, -490.0, -490.0, -490.0, -490.0, -490.0, -490.0, -469.0, -417.0, -366.0, -315.0, -256.0, -194.0, -131.0, -73.0, 4.0, 31.0, 101.0, 144.0, 177.0, 206.0, 236.0, 272.0, 302.0, 323.0, 341.0, 360.0, 381.0, 403.0, 426.0, 428.0, 428.0]	[0.015602128551108763, 0.021373387629864737, 0.02942099676874932, 0.04749594666645862, 0.0644595162011683, 0.0794648580631474, 0.09782959971926175, 0.11430199099413585, 0.1296841645380482, 0.1476468158798525, 0.16449364949949086, 0.17932969017419964, 0.197732319807983, 0.21432861498033162, 0.22967016987968236, 0.24762394656136166, 0.264440060214838, 0.2793238875165116, 0.29773505046614446, 0.31414122313435655, 0.32974935915262904, 0.3476669545198092, 0.36446258818614297, 0.37944983939814847, 0.397736074461136, 0.4141627271164907, 0.4297217111743521, 0.4476533012057189, 0.46452061481249984, 0.47947919405123685, 0.4978330130543327, 0.5142992603359744, 0.529680409876164, 0.5477062078280142, 0.5644967215048382, 0.5795812526193913, 0.5977459731220733, 0.6142231430712854, 0.6296196525945561, 0.6475546559522627, 0.6643936389154987, 0.6794344794179779, 0.6977254931407515, 0.7141992497490719, 0.7296384259097977, 0.7475816212681821, 0.7644117295712931, 0.7795635033107828, 0.7977944424201269, 0.814264444357832, 0.829722735172254, 0.8475754772662185, 0.864389884256525, 0.8791907676204573, 0.8977391464577522, 0.9142330417234916, 0.9297725697979331, 0.9473143574869027]
34	啤酒	False	animate	inanimate	right	1.465	[0.0, 0.0, 0.0, 0.0, 0.0, 0.0, 0.0, 0.0, 0.0, 0.0, 0.0, 0.0, 0.0, 0.0, 0.0, 0.0, 0.0, 0.0, 0.0, 0.0, 0.0, 0.0, 0.0, 0.0, 0.0, 9.0, 17.0, 30.0, 39.0, 49.0, 58.0, 69.0, 91.0, 100.0, 127.0, 143.0, 152.0, 177.0, 193.0, 210.0, 227.0, 247.0, 267.0, 293.0, 332.0, 344.0, 369.0, 408.0, 418.0, 448.0, 463.0, 475.0, 487.0, 500.0, 511.0, 525.0, 548.0, 554.0, 571.0, 574.0, 577.0, 580.0, 582.0, 583.0, 584.0, 585.0, 588.0, 591.0, 594.0, 599.0, 609.0, 613.0, 617.0, 626.0, 630.0, 635.0, 642.0, 658.0, 677.0, 692.0, 701.0, 705.0, 711.0, 716.0, 722.0, 749.0, 757.0, 758.0]	[-490.0, -490.0, -490.0, -490.0, -490.0, -490.0, -490.0, -490.0, -490.0, -490.0, -490.0, -490.0, -490.0, -490.0, -490.0, -490.0, -490.0, -490.0, -490.0, -490.0, -490.0, -490.0, -490.0, -490.0, -490.0, -490.0, -486.0, -479.0, -473.0, -468.0, -460.0, -453.0, -438.0, -431.0, -411.0, -400.0, -393.0, -373.0, -357.0, -342.0, -322.0, -296.0, -268.0, -231.0, -172.0, -151.0, -103.0, -39.0, -19.0, 32.0, 59.0, 80.0, 101.0, 128.0, 148.0, 171.0, 206.0, 217.0, 245.0, 251.0, 264.0, 281.0, 292.0, 299.0, 307.0, 317.0, 330.0, 340.0, 350.0, 361.0, 377.0, 385.0, 390.0, 402.0, 406.0, 411.0, 416.0, 424.0, 430.0, 433.0, 436.0, 436.0, 439.0, 440.0, 443.0, 450.0, 453.0, 454.0]	[0.007947393765789457, 0.0127837416366674, 0.01734736440994311, 0.03292170845088549, 0.04925859050126746, 0.06471449197852053, 0.08252149545296561, 0.09954889425716829, 0.11442350556899328, 0.13277015657513402, 0.14914151327684522, 0.1646892333374126, 0.18241192755522206, 0.19946697432897054, 0.21443579356127884, 0.23276367124344688, 0.24923845185548998, 0.26470288666314445, 0.28262867403100245, 0.2994649263273459, 0.3143006256723311, 0.33274660460301675, 0.34926336916396394, 0.3646308653842425, 0.3826184340432519, 0.39944751834264025, 0.41444500954821706, 0.4328227218647953, 0.4493108144670259, 0.46465680669643916, 0.48256962341838516, 0.4994014383846661, 0.5144412548834225, 0.5326643433363643, 0.5492207025381504, 0.564626086721546, 0.5825627967569744, 0.5993594544270309, 0.6142579590377863, 0.6326366953580873, 0.6491343452798901, 0.664770470597432, 0.6825201301253401, 0.6993266864446923, 0.7145166894915747, 0.7326114367169794, 0.7491954438883113, 0.764645884046331, 0.7825262741243932, 0.7993826650636038, 0.8142439643852413, 0.8327885885664728, 0.8491991985647473, 0.864593318750849, 0.8823160129686585, 0.8993099611252546, 0.9143818629381713, 0.9327141779649537, 0.949187251899275, 0.9646039000799647, 0.9822528663498815, 0.9993819824012462, 1.0141473671392305, 1.0326506900164532, 1.049186227901373, 1.0646312067256076, 1.0824252395395888, 1.0993178117932985, 1.1143948335957248, 1.13305926565954, 1.1492282118706498, 1.1646001454209909, 1.1824917994817952, 1.1993270277889678, 1.2144207749079214, 1.2326465940132039, 1.2491531185951317, 1.2646035587531514, 1.2824293355370173, 1.2993314651102992, 1.3144030255789403, 1.3326192873792024, 1.3490537906764075, 1.364531196144526, 1.382488386152545, 1.3993222491262713, 1.4144327215617523, 1.4326779966504546]
35	黑猫	True	animate	inanimate	left	1.548	[0.0, 0.0, 0.0, 0.0, 0.0, 0.0, -1.0, -1.0, -1.0, -1.0, -1.0, -1.0, -1.0, -1.0, -1.0, -1.0, -1.0, -1.0, -1.0, -1.0, -1.0, -1.0, 0.0, 4.0, 7.0, 24.0, 42.0, 66.0, 93.0, 118.0, 148.0, 167.0, 181.0, 194.0, 214.0, 236.0, 245.0, 274.0, 295.0, 327.0, 378.0, 468.0, 566.0, 663.0, 737.0, 776.0, 801.0, 829.0, 832.0, 843.0, 847.0, 848.0, 848.0, 848.0, 848.0, 795.0, 672.0, 506.0, 315.0, 26.0, -65.0, -296.0, -407.0, -505.0, -580.0, -613.0, -630.0, -636.0, -639.0, -639.0, -639.0, -639.0, -639.0, -639.0, -639.0, -639.0, -639.0, -639.0, -639.0, -639.0, -641.0, -652.0, -668.0, -679.0, -685.0, -703.0, -708.0, -709.0, -709.0, -709.0, -709.0, -709.0, -709.0, -709.0]	[-490.0, -490.0, -490.0, -490.0, -490.0, -490.0, -491.0, -491.0, -491.0, -491.0, -491.0, -491.0, -491.0, -491.0, -491.0, -491.0, -491.0, -491.0, -491.0, -491.0, -490.0, -487.0, -484.0, -477.0, -472.0, -451.0, -427.0, -391.0, -350.0, -303.0, -247.0, -199.0, -157.0, -116.0, -52.0, -4.0, 14.0, 76.0, 113.0, 155.0, 209.0, 279.0, 344.0, 386.0, 415.0, 427.0, 435.0, 443.0, 444.0, 451.0, 455.0, 459.0, 460.0, 460.0, 465.0, 470.0, 483.0, 487.0, 487.0, 481.0, 470.0, 434.0, 418.0, 405.0, 396.0, 393.0, 393.0, 393.0, 393.0, 393.0, 393.0, 393.0, 393.0, 393.0, 393.0, 393.0, 393.0, 393.0, 393.0, 393.0, 393.0, 393.0, 394.0, 396.0, 397.0, 401.0, 401.0, 401.0, 401.0, 401.0, 401.0, 401.0, 401.0, 401.0]	[0.015584379245410673, 0.022945908960537054, 0.029684505876502953, 0.04814755145343952, 0.0645103748247493, 0.07985602573899087, 0.09784291172400117, 0.11470647066016681, 0.1294793647248298, 0.14781748240056913, 0.16452812415082008, 0.17995979098486714, 0.19781799441261683, 0.2148440278833732, 0.22974287382385228, 0.24796493828762323, 0.26454314279544633, 0.2799792469595559, 0.2978825063473778, 0.31468496668094303, 0.32973297516582534, 0.3480120422464097, 0.3645329028076958, 0.37995774297451135, 0.397689994511893, 0.4146986200066749, 0.42971044719161, 0.44798644226102624, 0.46454280146281235, 0.4799990442843409, 0.4977995624212781, 0.5146661933686119, 0.5297316098440206, 0.5480332048900891, 0.5644653188646771, 0.579971396306064, 0.5976278719026595, 0.6146061187464511, 0.629836057749344, 0.6480140902422136, 0.6642670043656835, 0.6799570603179745, 0.6977336851414293, 0.7146259160654154, 0.729428164762794, 0.7479642556136241, 0.764451324212132, 0.7799485269933939, 0.7978036584245274, 0.8145979267574148, 0.8297483351634583, 0.8479939515818842, 0.8644308442308102, 0.8800642388960114, 0.8977678184455726, 0.914601681419299, 0.9297602818114683, 0.9479649382847128, 0.964450982879498, 0.9798846977064386, 0.9978354023915017, 1.0146767746919068, 1.0297770071338164, 1.0479676689428743, 1.0645015001646243, 1.0800113322620746, 1.097744607803179, 1.1146003160829423, 1.1297401431656908, 1.1479939515847946, 1.1644199215661502, 1.1799174656771356, 1.197699893178651, 1.2146713133552112, 1.2297118125279667, 1.2479321703140158, 1.264378620267962, 1.279977540296386, 1.2976073919126065, 1.3146532227110583, 1.329674265885842, 1.3479478716326412, 1.3643915909342468, 1.3798058497777674, 1.3977244691486703, 1.414692817343166, 1.429717615188565, 1.4479161276540253, 1.4641656284511555, 1.4799526229908224, 1.4977452904713573, 1.5146446893777465, 1.5296841645467794, 1.5479342183098197]
