trialIndex	stimulus	left_option	right_option	response	response_time	xTrajectory	yTrajectory	tTrajectory
0	inanimate/n71.jpg	inanimate	animate	left	1.168	[0.0, 0.0, 0.0, 0.0, 0.0, 0.0, 0.0, 0.0, 0.0, 0.0, 0.0, 0.0, 0.0, 0.0, 0.0, 0.0, 0.0, 0.0, 0.0, 0.0, 0.0, 0.0, 0.0, 0.0, 0.0, 0.0, 0.0, 0.0, 0.0, 0.0, 0.0, 0.0, 0.0, 0.0, 0.0, 0.0, 0.0, 0.0, 0.0, 0.0, 0.0, 0.0, 0.0, 0.0, 0.0, 0.0, 0.0, 0.0, 0.0, -2.0, -3.0, -8.0, -13.0, -21.0, -43.0, -81.0, -187.0, -287.0, -396.0, -484.0, -553.0, -608.0, -657.0, -688.0, -716.0, -747.0, -757.0, -777.0, -778.0, -778.0]	[-490.0, -490.0, -490.0, -490.0, -490.0, -490.0, -490.0, -490.0, -490.0, -490.0, -490.0, -490.0, -490.0, -490.0, -490.0, -490.0, -490.0, -490.0, -490.0, -490.0, -490.0, -490.0, -490.0, -490.0, -490.0, -490.0, -490.0, -490.0, -490.0, -490.0, -490.0, -490.0, -490.0, -490.0, -490.0, -490.0, -490.0, -490.0, -490.0, -490.0, -490.0, -490.0, -490.0, -490.0, -490.0, -490.0, -490.0, -490.0, -490.0, -488.0, -481.0, -465.0, -449.0, -426.0, -382.0, -300.0, -77.0, 76.0, 181.0, 255.0, 309.0, 345.0, 379.0, 404.0, 427.0, 454.0, 461.0, 474.0, 475.0, 475.0]	[0.0025334412421216257, 0.01278981298673898, 0.020512811759545002, 0.037022402706497815, 0.05416755555779673, 0.07034195756568806, 0.08751851304259617, 0.10367550707451301, 0.12075546533742454, 0.13709643781476188, 0.15418356406735256, 0.17058085648022825, 0.1875833321682876, 0.20447589865216287, 0.2208383751058136, 0.23738346467143856, 0.2542439458629815, 0.2733350377238821, 0.28745290885854047, 0.30636923825659323, 0.3207769010477932, 0.33835998403810663, 0.35417905847134534, 0.3704172897414537, 0.3871135897934437, 0.40384368180821184, 0.4205164298909949, 0.4397983268572716, 0.4538721660428564, 0.4716723367746454, 0.4871101423341315, 0.5044051403383492, 0.5206054836526164, 0.5374594795139274, 0.5538130813147291, 0.5706841438222909, 0.5872626840209705, 0.604145351848274, 0.6205808735467144, 0.6374632000442944, 0.6539342203686829, 0.6707837789072073, 0.6872814231974189, 0.7042576162493788, 0.7204289462606539, 0.737496275207377, 0.753719487824128, 0.7707980807535932, 0.7870588399964618, 0.8040329850482522, 0.8202678029847448, 0.8374621077819029, 0.8536477737798123, 0.8708000946207903, 0.8869724486285122, 0.9040288549222169, 0.9203305741102668, 0.937442276335787, 0.9536760702758329, 0.9709007536948775, 0.9872574274922954, 1.0040513487620046, 1.0204093878855929, 1.0374439488659846, 1.0560366946519935, 1.0707433650895837, 1.087480625094031, 1.1041837518059765, 1.120733278701664, 1.1374118294406799]
1	inanimate/n64.jpg	inanimate	animate	left	0.909	[0.0, 0.0, 0.0, 0.0, 0.0, 0.0, 0.0, 0.0, 0.0, 0.0, 0.0, 0.0, 0.0, 0.0, 0.0, 0.0, 0.0, 0.0, 0.0, 0.0, 0.0, 0.0, 0.0, 0.0, 0.0, 0.0, 0.0, 0.0, 0.0, 0.0, 0.0, 0.0, 0.0, 0.0, 0.0, 0.0, 0.0, 0.0, -1.0, -4.0, -15.0, -20.0, -35.0, -50.0, -79.0, -131.0, -206.0, -312.0, -436.0, -585.0, -728.0, -835.0, -900.0, -916.0, -916.0]	[-490.0, -490.0, -490.0, -490.0, -490.0, -490.0, -490.0, -490.0, -490.0, -490.0, -490.0, -490.0, -490.0, -490.0, -490.0, -490.0, -490.0, -490.0, -490.0, -490.0, -490.0, -490.0, -490.0, -490.0, -490.0, -490.0, -490.0, -490.0, -490.0, -490.0, -490.0, -490.0, -490.0, -490.0, -490.0, -490.0, -490.0, -490.0, -490.0, -477.0, -456.0, -450.0, -428.0, -406.0, -364.0, -295.0, -191.0, -70.0, 72.0, 244.0, 376.0, 460.0, 512.0, 533.0, 535.0]	[0.0018225812818855047, 0.010491072258446366, 0.018880694238760043, 0.035509410372469574, 0.05270815249241423, 0.06884193588484777, 0.08604204333823873, 0.10217377873050282, 0.1194496620883001, 0.13555886951508, 0.1526183477981249, 0.16909926677908516, 0.18611095844971715, 0.2024853815601091, 0.21933664676180342, 0.2384509492549114, 0.25257769504969474, 0.271811464066559, 0.2859208018780919, 0.305171637548483, 0.3193222766421968, 0.3382478220300982, 0.35263807684532367, 0.36974841373739764, 0.38598015967727406, 0.40293416608619737, 0.41933760249230545, 0.4358932733812253, 0.4523523470488726, 0.46888651396147907, 0.48561933664313983, 0.5051811266021105, 0.5189136328626773, 0.5359468285168987, 0.5524396941473242, 0.572074870688084, 0.5855605932447361, 0.6039205499764648, 0.6191740357535309, 0.6371807129107765, 0.6524632119835587, 0.6699688124062959, 0.6857735508529004, 0.7031030234866193, 0.7191303110084846, 0.7361846692947438, 0.7524071992520476, 0.7693144430522807, 0.7857759060498211, 0.8025875766325044, 0.8190678129467415, 0.8359450194475357, 0.8524293517548358, 0.8693140675895847, 0.8857495892880252]
2	inanimate/n70.jpg	animate	inanimate	left	1.051	[0.0, 1.0, 1.0, 1.0, 2.0, 4.0, 4.0, 5.0, 5.0, 5.0, 5.0, 5.0, 5.0, 5.0, 5.0, 5.0, 5.0, 5.0, 5.0, 5.0, 5.0, 5.0, 5.0, 5.0, 5.0, 5.0, 5.0, 5.0, 5.0, 4.0, 4.0, 4.0, 4.0, 3.0, 2.0, 0.0, -6.0, -9.0, -28.0, -55.0, -87.0, -127.0, -179.0, -250.0, -339.0, -431.0, -517.0, -641.0, -729.0, -799.0, -841.0, -854.0, -857.0, -857.0, -857.0, -857.0, -857.0, -857.0, -857.0, -857.0, -857.0, -857.0, -857.0]	[-490.0, -490.0, -490.0, -490.0, -490.0, -490.0, -490.0, -490.0, -490.0, -489.0, -489.0, -489.0, -489.0, -489.0, -489.0, -489.0, -489.0, -489.0, -489.0, -489.0, -489.0, -489.0, -489.0, -489.0, -489.0, -489.0, -486.0, -485.0, -483.0, -479.0, -477.0, -474.0, -471.0, -466.0, -461.0, -455.0, -434.0, -423.0, -379.0, -341.0, -295.0, -249.0, -180.0, -80.0, 48.0, 153.0, 225.0, 325.0, 393.0, 439.0, 470.0, 479.0, 481.0, 481.0, 481.0, 481.0, 481.0, 481.0, 481.0, 481.0, 481.0, 481.0, 481.0]	[0.01627147709223209, 0.021246404481644277, 0.03066275589662837, 0.04751811709138565, 0.06407139865041245, 0.08087829057330964, 0.09736774287739536, 0.11422139740898274, 0.13051833793724654, 0.14749965098599205, 0.16388465540512698, 0.18091853372607147, 0.1973383541117073, 0.21424320858204737, 0.23064254898781655, 0.2474828915364924, 0.2637951920478372, 0.2809075769400806, 0.29709597359760664, 0.31426775041472865, 0.3304431764263427, 0.3476647878487711, 0.3637589766221936, 0.3809471374261193, 0.39709662213135744, 0.41428239359811414, 0.4304148116571014, 0.44755586851533735, 0.4637650864824536, 0.4809576846091659, 0.4970839586821967, 0.5142407168532372, 0.5304745107860072, 0.5476090823212871, 0.5638206896182965, 0.5809436558265588, 0.5971344418212539, 0.6142492160361144, 0.6304410260272562, 0.6476319174907985, 0.6641807617197628, 0.6808343951561255, 0.6972057462699013, 0.714301747175341, 0.7306403303227853, 0.7475888754124753, 0.7662502291132114, 0.7808671289894846, 0.7973122080074972, 0.8142740650728229, 0.8327183310393593, 0.8475499293199391, 0.8664686480551609, 0.8808694841864053, 0.8999878826798522, 0.9141627564094961, 0.9314816477199201, 0.9476830150306341, 0.9639263662902522, 0.9804714558558771, 1.0000998057439574, 1.0137698480757535, 1.0321711060969392]
3	inanimate/n73.jpg	animate	inanimate	right	1.064	[0.0, 0.0, 0.0, 0.0, 0.0, 0.0, 0.0, 0.0, 0.0, 0.0, 0.0, 0.0, 0.0, 0.0, 0.0, 0.0, 0.0, 0.0, 0.0, -1.0, -1.0, -2.0, -3.0, -3.0, -6.0, -8.0, -9.0, -10.0, -12.0, -16.0, -28.0, -33.0, -57.0, -83.0, -106.0, -128.0, -142.0, -151.0, -155.0, -162.0, -171.0, -183.0, -201.0, -220.0, -234.0, -253.0, -321.0, -383.0, -436.0, -477.0, -492.0, -494.0, -494.0, -494.0, -486.0, -451.0, -355.0, -178.0, 198.0, 468.0, 719.0, 923.0, 959.0, 959.0]	[-490.0, -490.0, -490.0, -490.0, -490.0, -490.0, -490.0, -490.0, -489.0, -487.0, -486.0, -485.0, -484.0, -483.0, -481.0, -480.0, -480.0, -478.0, -477.0, -475.0, -471.0, -465.0, -461.0, -458.0, -454.0, -450.0, -447.0, -445.0, -442.0, -427.0, -402.0, -393.0, -363.0, -333.0, -314.0, -295.0, -282.0, -271.0, -259.0, -239.0, -216.0, -185.0, -142.0, -112.0, -96.0, -70.0, 2.0, 57.0, 98.0, 127.0, 137.0, 140.0, 143.0, 148.0, 157.0, 174.0, 211.0, 256.0, 309.0, 349.0, 393.0, 436.0, 455.0, 464.0]	[0.003125449067738373, 0.007973741936439183, 0.02126797672099201, 0.038089887297246605, 0.055036725716490764, 0.07133195958158467, 0.08837164055876201, 0.10458836785255698, 0.12177925931609934, 0.13797379996685777, 0.15511178482847754, 0.17126297619688557, 0.18860507814679295, 0.204638168324891, 0.22179117183259223, 0.2379618191771442, 0.25518069993995596, 0.2713049260128173, 0.2885319987690309, 0.30464257152198115, 0.32189217224367894, 0.3382580620236695, 0.35516086850111606, 0.3714984276521136, 0.38851865264587104, 0.404772585228784, 0.42186619681160664, 0.4384713609688333, 0.4551581037012511, 0.47390069464745466, 0.4883653600336402, 0.5055207528712344, 0.5217589841340668, 0.537969908771629, 0.5548160539765377, 0.5715785726206377, 0.5882403980504023, 0.6048145009117434, 0.6217278887052089, 0.6382030050226604, 0.6548627824595314, 0.6715655678344774, 0.6882625505531905, 0.704886488027114, 0.72153739080386, 0.7379667685090681, 0.7548248603707179, 0.7715385683986824, 0.7883082550324616, 0.804629771533655, 0.8215472553201835, 0.8379824356889003, 0.8548364315574872, 0.8717887313032406, 0.8880208185801166, 0.905242430002545, 0.9213461760955397, 0.9384367156817461, 0.9546155550197, 0.9718037158163497, 0.9879753871646244, 1.0051922199272667, 1.0212662700578221, 1.0385083614601172]
4	animate/a44.jpg	animate	inanimate	left	0.996	[0.0, 0.0, 0.0, 0.0, -2.0, -2.0, -2.0, -2.0, -2.0, -2.0, -2.0, -2.0, -2.0, -2.0, -2.0, -2.0, -2.0, -2.0, -2.0, -2.0, -2.0, -2.0, -2.0, -2.0, -2.0, -2.0, -2.0, -1.0, -1.0, 3.0, 3.0, 3.0, 3.0, 3.0, 3.0, 5.0, 11.0, 11.0, 11.0, 8.0, 5.0, -3.0, -8.0, -14.0, -25.0, -48.0, -90.0, -145.0, -219.0, -303.0, -400.0, -514.0, -641.0, -794.0, -862.0, -910.0, -942.0, -953.0, -953.0, -953.0]	[-490.0, -490.0, -490.0, -490.0, -491.0, -491.0, -491.0, -491.0, -491.0, -491.0, -491.0, -491.0, -491.0, -491.0, -491.0, -491.0, -491.0, -491.0, -491.0, -491.0, -491.0, -491.0, -491.0, -490.0, -489.0, -485.0, -483.0, -490.0, -492.0, -502.0, -502.0, -502.0, -502.0, -502.0, -502.0, -503.0, -506.0, -506.0, -506.0, -504.0, -498.0, -484.0, -470.0, -447.0, -423.0, -385.0, -306.0, -212.0, -114.0, -19.0, 67.0, 179.0, 293.0, 409.0, 459.0, 486.0, 505.0, 512.0, 512.0, 512.0]	[0.013552760334277991, 0.01878607674734667, 0.025123263847490307, 0.042479701776755974, 0.058609047839127015, 0.07579277131299023, 0.09201495993329445, 0.10911847016541287, 0.1255277092277538, 0.14241754505201243, 0.15917187170271063, 0.1759159583671135, 0.1946735679593985, 0.20909420139651047, 0.22654314055398572, 0.2424574468677747, 0.259117906964093, 0.27558312463224865, 0.292186923463305, 0.3087531756682438, 0.3255044303223258, 0.34209423450374743, 0.3601555249260855, 0.3753083174888161, 0.39499571797205135, 0.40889684269495774, 0.42801694785885047, 0.4419805365105276, 0.4596892300178297, 0.47555813906365074, 0.492998203561001, 0.508630227552203, 0.5259975881344872, 0.5420112223364413, 0.5599697715515504, 0.5755652729203575, 0.5925687726048636, 0.608918619742326, 0.6258951541240094, 0.6423398918122984, 0.6591884263471002, 0.675527350831544, 0.692420941311866, 0.7088748949900037, 0.7258934133278672, 0.7421316445906996, 0.7591023763161502, 0.775574761973985, 0.7923099739782629, 0.808913090142596, 0.8257332940484048, 0.8422049970395165, 0.8591006355200079, 0.8755948664838797, 0.8924171183898579, 0.9088857493770774, 0.9258523851094651, 0.9422421681956621, 0.959198905271478, 0.9756712909220369]
5	animate/a59.jpg	animate	inanimate	left	1.031	[0.0, 0.0, 0.0, 0.0, 0.0, 0.0, 0.0, 0.0, 1.0, 1.0, 3.0, 5.0, 8.0, 14.0, 21.0, 29.0, 36.0, 41.0, 42.0, 44.0, 45.0, 45.0, 45.0, 43.0, 40.0, 39.0, 39.0, 38.0, 38.0, 38.0, 35.0, 33.0, 31.0, 25.0, 14.0, 9.0, 4.0, -4.0, -11.0, -19.0, -28.0, -40.0, -55.0, -69.0, -86.0, -102.0, -124.0, -176.0, -211.0, -242.0, -262.0, -287.0, -326.0, -363.0, -435.0, -548.0, -659.0, -737.0, -799.0, -857.0, -860.0, -860.0]	[-490.0, -490.0, -490.0, -490.0, -490.0, -490.0, -490.0, -490.0, -491.0, -491.0, -491.0, -491.0, -491.0, -491.0, -496.0, -505.0, -517.0, -533.0, -539.0, -539.0, -539.0, -539.0, -539.0, -539.0, -539.0, -539.0, -539.0, -539.0, -539.0, -539.0, -538.0, -532.0, -527.0, -517.0, -501.0, -491.0, -480.0, -465.0, -449.0, -436.0, -424.0, -413.0, -400.0, -384.0, -362.0, -344.0, -323.0, -278.0, -247.0, -216.0, -198.0, -173.0, -128.0, -78.0, 25.0, 162.0, 269.0, 341.0, 409.0, 474.0, 479.0, 479.0]	[0.01406510105880443, 0.019963675345934462, 0.026388243670226075, 0.043295146140735596, 0.059907819631916936, 0.07832102429529186, 0.09343217424611794, 0.11260109001159435, 0.12684935032302747, 0.14416551096655894, 0.16012726256303722, 0.17759872969327262, 0.19349289737147046, 0.21066945284837857, 0.22676227629563073, 0.24392825044924393, 0.2601091377873672, 0.2769890749550541, 0.2931866876024287, 0.3103403737768531, 0.32654651974735316, 0.3436073633711203, 0.36013709295366425, 0.37705628341063857, 0.39345528248668415, 0.4104423981916625, 0.42657140292430995, 0.4437189451055019, 0.4601107761845924, 0.4769890066891094, 0.4935115682819742, 0.5103614681502222, 0.5269816509608063, 0.5437079883122351, 0.5601595526604797, 0.5770708924610517, 0.5932814757543383, 0.6104447192556108, 0.6266133186072693, 0.6437048821826465, 0.6598495882280986, 0.6770087357290322, 0.6931933777304948, 0.7103822211938677, 0.7265497965490795, 0.74373249601922, 0.7598761780682253, 0.7771059814840555, 0.7931964155941387, 0.8104825389382313, 0.8266159810009412, 0.8437416778760962, 0.8598645386155113, 0.8771298406572896, 0.8931936507942737, 0.9103111556833028, 0.9265855682388064, 0.9437597343858215, 0.9598986377750407, 0.9770437906263396, 0.9932717819028767, 1.0103961134445854]
6	inanimate/n2.jpg	inanimate	animate	left	0.901	[0.0, 0.0, 0.0, 0.0, 0.0, 0.0, 0.0, 0.0, 0.0, 0.0, 0.0, 0.0, 1.0, 2.0, 2.0, 3.0, 11.0, 16.0, 16.0, 16.0, 16.0, 16.0, 16.0, 16.0, 16.0, 16.0, 16.0, 16.0, 16.0, 16.0, 16.0, 12.0, 4.0, -12.0, -28.0, -42.0, -63.0, -86.0, -106.0, -131.0, -174.0, -228.0, -292.0, -358.0, -427.0, -498.0, -567.0, -634.0, -721.0, -759.0, -780.0, -800.0, -807.0, -807.0]	[-490.0, -490.0, -490.0, -490.0, -490.0, -490.0, -490.0, -490.0, -490.0, -490.0, -490.0, -490.0, -483.0, -476.0, -468.0, -462.0, -460.0, -462.0, -462.0, -462.0, -462.0, -462.0, -462.0, -462.0, -462.0, -462.0, -462.0, -462.0, -462.0, -462.0, -463.0, -464.0, -461.0, -453.0, -445.0, -431.0, -407.0, -371.0, -351.0, -332.0, -298.0, -247.0, -183.0, -115.0, -44.0, 21.0, 92.0, 163.0, 259.0, 309.0, 344.0, 389.0, 407.0, 409.0]	[0.015759477697429247, 0.021604121386189945, 0.028660838288487867, 0.047789818097953685, 0.06249751253199065, 0.07878626107412856, 0.09549484911258332, 0.11540582265297417, 0.12892294784251135, 0.14810278626100626, 0.16224625736504095, 0.1791995811072411, 0.1955811722073122, 0.21469240271107992, 0.22894544168229913, 0.24824440529482672, 0.2623383831232786, 0.27969721038243733, 0.2955063861591043, 0.31323658364999574, 0.32883140235207975, 0.34642199466907186, 0.36222775711939903, 0.37965928829362383, 0.3955514079789282, 0.41271806479926454, 0.43025745717750397, 0.44590313448861707, 0.4622069016768364, 0.47917729207256343, 0.495539085859491, 0.512377721737721, 0.5288559100517887, 0.5457996764816926, 0.5622058435474173, 0.5791526819666615, 0.5955025291041238, 0.6124824768121471, 0.6289473531433032, 0.6459119408755214, 0.662234140043438, 0.6790785785851767, 0.6953304631751962, 0.7123766294753295, 0.7288814417552203, 0.7457555762666743, 0.7622354712439119, 0.7790573818128905, 0.7955973513890058, 0.8124424725974677, 0.829037396768399, 0.8457876274260343, 0.8620087920498918, 0.8790518863534089]
7	animate/a24.jpg	animate	inanimate	left	0.913	[0.0, 0.0, 0.0, 0.0, 0.0, 0.0, 0.0, 0.0, 0.0, 0.0, 0.0, 0.0, 0.0, 0.0, 0.0, 0.0, 0.0, 0.0, 0.0, 0.0, 0.0, 0.0, 0.0, 0.0, 0.0, 0.0, -5.0, -6.0, -7.0, -7.0, -7.0, -7.0, -7.0, -7.0, -7.0, -7.0, -8.0, -13.0, -24.0, -51.0, -128.0, -192.0, -256.0, -308.0, -369.0, -438.0, -502.0, -594.0, -670.0, -732.0, -796.0, -852.0, -880.0, -883.0, -883.0]	[-490.0, -490.0, -490.0, -490.0, -490.0, -490.0, -490.0, -490.0, -490.0, -490.0, -490.0, -490.0, -490.0, -490.0, -490.0, -490.0, -490.0, -490.0, -490.0, -490.0, -490.0, -490.0, -490.0, -490.0, -490.0, -490.0, -486.0, -485.0, -484.0, -484.0, -484.0, -484.0, -484.0, -484.0, -484.0, -484.0, -479.0, -470.0, -450.0, -411.0, -319.0, -262.0, -208.0, -160.0, -99.0, -28.0, 40.0, 140.0, 221.0, 292.0, 357.0, 415.0, 447.0, 456.0, 457.0]	[0.00820987605402479, 0.014609527075663209, 0.019913840740628075, 0.03162531475391006, 0.04878207291767467, 0.06494009095331421, 0.08166062564123422, 0.09835317102988483, 0.11535325738805113, 0.1316532699202071, 0.14896908923401497, 0.1651434912419063, 0.18212412162392866, 0.1985145873768488, 0.21554095636383863, 0.23462317357189022, 0.24877278866188135, 0.2675740888735163, 0.2820841515349457, 0.2995235333655728, 0.315504740945471, 0.3318388867628528, 0.34855225346109364, 0.36820381398138124, 0.3819370029086713, 0.40112639865401434, 0.4152012618360459, 0.4343418469725293, 0.4483044116277597, 0.46590353726787725, 0.48190522481309017, 0.4991920308311819, 0.5152165876861545, 0.5324044071530807, 0.5483982440491673, 0.5654153970463085, 0.5818789080440183, 0.5986496186815202, 0.6153114441040088, 0.6320685014215996, 0.648538839079265, 0.6654010269339778, 0.6818744365882594, 0.6987980643680203, 0.7152257354100584, 0.7321363925366313, 0.7485637222489459, 0.7654166941138101, 0.7818416344889556, 0.7987475129630184, 0.8151570933550829, 0.8320602411622531, 0.8484926908640773, 0.8654053959980956, 0.8818955309616285]
8	animate/a27.jpg	inanimate	animate	right	1.564	[0.0, 0.0, 0.0, 0.0, 0.0, 0.0, 0.0, 0.0, 0.0, -1.0, -1.0, -1.0, -1.0, -1.0, -1.0, -1.0, -1.0, -1.0, -1.0, -1.0, -1.0, 4.0, 7.0, 9.0, 9.0, 9.0, 9.0, 9.0, 9.0, 18.0, 21.0, 24.0, 25.0, 22.0, 7.0, -4.0, -16.0, -36.0, -70.0, -112.0, -163.0, -232.0, -319.0, -413.0, -503.0, -641.0, -708.0, -767.0, -830.0, -859.0, -869.0, -871.0, -874.0, -874.0, -874.0, -874.0, -874.0, -874.0, -868.0, -831.0, -711.0, -536.0, -322.0, -107.0, 109.0, 300.0, 446.0, 531.0, 545.0, 545.0, 545.0, 545.0, 545.0, 545.0, 545.0, 545.0, 542.0, 524.0, 482.0, 420.0, 364.0, 307.0, 283.0, 276.0, 278.0, 304.0, 386.0, 488.0, 614.0, 733.0, 910.0, 958.0, 959.0, 959.0]	[-490.0, -490.0, -490.0, -490.0, -490.0, -490.0, -490.0, -490.0, -490.0, -490.0, -490.0, -490.0, -490.0, -490.0, -490.0, -490.0, -490.0, -490.0, -490.0, -490.0, -490.0, -490.0, -489.0, -493.0, -493.0, -493.0, -493.0, -493.0, -493.0, -506.0, -519.0, -528.0, -528.0, -528.0, -523.0, -510.0, -494.0, -466.0, -422.0, -371.0, -314.0, -246.0, -165.0, -79.0, 5.0, 125.0, 196.0, 268.0, 352.0, 394.0, 415.0, 427.0, 433.0, 436.0, 436.0, 436.0, 436.0, 436.0, 440.0, 445.0, 447.0, 447.0, 461.0, 479.0, 513.0, 535.0, 540.0, 540.0, 540.0, 540.0, 540.0, 540.0, 540.0, 540.0, 540.0, 540.0, 534.0, 507.0, 447.0, 358.0, 266.0, 138.0, 79.0, 45.0, 28.0, 19.0, 24.0, 64.0, 119.0, 175.0, 276.0, 304.0, 343.0, 345.0]	[0.011384272263967432, 0.016857887057994958, 0.03817242159129819, 0.04213461419567466, 0.054319516973919235, 0.07143599785922561, 0.08766774379910203, 0.10485180860268883, 0.12099344265152467, 0.1380846648971783, 0.15459664517402416, 0.17154245959682157, 0.18789742672379361, 0.2049517850173288, 0.22136307207256323, 0.23827168120624265, 0.2548956186801661, 0.2715506174499751, 0.28840324798511574, 0.3048985029454343, 0.3235083153776941, 0.33806479932536604, 0.3547552967138472, 0.371293218289793, 0.3877195240056608, 0.4045977545029018, 0.4237332196425996, 0.4378927333964384, 0.45483069716283353, 0.4712675841874443, 0.48844106767501216, 0.5046001096998225, 0.5216264786940883, 0.5377032594915363, 0.5548784496349981, 0.5712242007721215, 0.5880741006476455, 0.6046912114616134, 0.621418572809489, 0.6379237264263793, 0.6548016155938967, 0.6713009665472782, 0.6881044451438356, 0.7046201800767449, 0.7216062717852765, 0.737851671045064, 0.7547479921922786, 0.7714866175301722, 0.7883170614222763, 0.8047228871582774, 0.8214226005366072, 0.8378826982079772, 0.8548005233315052, 0.8712828076386359, 0.8882282807244337, 0.9046153331510141, 0.9214819583357894, 0.9380331918946467, 0.954798782528087, 0.9713435307639884, 0.9883214304863941, 1.0045982323717908, 1.0214430122505291, 1.0379976591357263, 1.054850289670867, 1.071242462086957, 1.0882377697853372, 1.1046207262115786, 1.1214378581207711, 1.1380051343294326, 1.1548840474933968, 1.1713175211989437, 1.1880278159005684, 1.2043759563675849, 1.221504725239356, 1.237760364485439, 1.2548198427757598, 1.2709887834571418, 1.2881496376212453, 1.304331890292815, 1.3213893205756904, 1.3376712424578727, 1.3548211739689577, 1.3710399492629222, 1.3883076406345936, 1.404355749458773, 1.4215148969597067, 1.437702952287509, 1.4548696091151214, 1.471261440194212, 1.48806116412743, 1.5044564085401362, 1.521439086915052, 1.5402103498272481]
9	inanimate/n22.jpg	animate	inanimate	right	1.133	[0.0, 0.0, 0.0, 0.0, 0.0, 1.0, 12.0, 16.0, 19.0, 20.0, 21.0, 21.0, 22.0, 26.0, 31.0, 34.0, 43.0, 45.0, 45.0, 45.0, 45.0, 48.0, 48.0, 51.0, 51.0, 51.0, 51.0, 52.0, 51.0, 42.0, 38.0, 34.0, 30.0, 25.0, 22.0, 18.0, 10.0, -2.0, -19.0, -40.0, -63.0, -87.0, -102.0, -116.0, -133.0, -148.0, -156.0, -159.0, -161.0, -163.0, -165.0, -171.0, -172.0, -173.0, -175.0, -177.0, -178.0, -179.0, -179.0, -170.0, -147.0, -90.0, 32.0, 297.0, 401.0, 721.0, 886.0, 959.0]	[-490.0, -490.0, -490.0, -490.0, -490.0, -490.0, -487.0, -487.0, -486.0, -486.0, -485.0, -485.0, -485.0, -485.0, -492.0, -501.0, -520.0, -520.0, -520.0, -520.0, -520.0, -523.0, -523.0, -527.0, -528.0, -528.0, -528.0, -528.0, -511.0, -485.0, -479.0, -472.0, -464.0, -458.0, -453.0, -447.0, -435.0, -422.0, -405.0, -387.0, -371.0, -354.0, -341.0, -329.0, -312.0, -301.0, -293.0, -290.0, -288.0, -287.0, -284.0, -279.0, -278.0, -276.0, -272.0, -265.0, -261.0, -257.0, -250.0, -236.0, -212.0, -160.0, -72.0, 115.0, 180.0, 381.0, 463.0, 497.0]	[0.002203167496190872, 0.0087837249666336, 0.019144203259202186, 0.03579408203222556, 0.052615309941757005, 0.07174053508788347, 0.08611679524619831, 0.10536490025697276, 0.11955274463980459, 0.13868411377916345, 0.1527937929276959, 0.16990378848277032, 0.18608740648051025, 0.2053484821371967, 0.2192083055851981, 0.2369152924293303, 0.2527063775632996, 0.2696405866663554, 0.28608976167743094, 0.30293522422289243, 0.319489529778366, 0.33629061903775437, 0.3527524233722943, 0.36958457393484423, 0.3860968955414137, 0.4029140274506062, 0.41939631175773684, 0.4362199289898854, 0.4527298612665618, 0.46960331311129266, 0.4862153039284749, 0.5029822599026375, 0.5194515735565801, 0.5363441400404554, 0.5527363124638214, 0.569617273627955, 0.5860763472956023, 0.6028320392797468, 0.6194430061004823, 0.6363007566251326, 0.6524826679597027, 0.6696254314811085, 0.6857735508601763, 0.7030255409117672, 0.7191415749912267, 0.7362577145468094, 0.7524642018543091, 0.7696356373344315, 0.7857922900366248, 0.802969528180256, 0.8191562181746121, 0.8362061391380848, 0.8527239220784395, 0.8695471979735885, 0.8860683942402829, 0.9028694834996713, 0.9195770475416793, 0.9362375076379976, 0.9525730187888257, 0.9696133824327262, 0.9881095310047385, 1.0028714973668684, 1.0219257252683747, 1.036234401508409, 1.055316277379461, 1.0695979883166729, 1.0870145008448162, 1.1031390682474012]
10	animate/a77.jpg	animate	inanimate	left	1.049	[0.0, 0.0, 0.0, 0.0, 0.0, 0.0, 0.0, 0.0, 0.0, 0.0, 0.0, 0.0, 0.0, 0.0, 0.0, 0.0, 0.0, 0.0, 0.0, 0.0, 0.0, 0.0, 0.0, 0.0, 0.0, 0.0, 0.0, 0.0, 0.0, 0.0, 0.0, -1.0, -1.0, 0.0, 1.0, 1.0, 1.0, 1.0, 1.0, 1.0, 4.0, 6.0, 7.0, 7.0, 7.0, 2.0, -3.0, -9.0, -20.0, -41.0, -70.0, -123.0, -185.0, -260.0, -350.0, -461.0, -573.0, -773.0, -893.0, -946.0, -958.0, -958.0, -958.0]	[-490.0, -490.0, -490.0, -490.0, -490.0, -490.0, -490.0, -490.0, -490.0, -490.0, -490.0, -490.0, -490.0, -490.0, -490.0, -490.0, -490.0, -490.0, -490.0, -490.0, -490.0, -490.0, -490.0, -490.0, -490.0, -490.0, -490.0, -487.0, -487.0, -485.0, -484.0, -481.0, -475.0, -468.0, -466.0, -466.0, -466.0, -466.0, -466.0, -466.0, -471.0, -475.0, -476.0, -475.0, -473.0, -458.0, -447.0, -431.0, -408.0, -375.0, -334.0, -260.0, -166.0, -60.0, 60.0, 189.0, 318.0, 538.0, 540.0, 540.0, 540.0, 540.0, 540.0]	[0.0007760545340715908, 0.005810373855638318, 0.016249700049229432, 0.03342591419641394, 0.04987952653755201, 0.06666081849107286, 0.08310965217242483, 0.09998105601698626, 0.11653160691639641, 0.1333436188288033, 0.1496265647074324, 0.16671403229702264, 0.1829771808697842, 0.20004928846901748, 0.21620389317104127, 0.23341424061072757, 0.249565090649412, 0.2668406326774857, 0.28292799479095265, 0.3001144489244325, 0.31624038166046375, 0.33350977969530504, 0.349562325856823, 0.3668324065511115, 0.382920110001578, 0.40006492151587736, 0.416503515210934, 0.4332732018447132, 0.44976060614862945, 0.4667258765475708, 0.48530701701383805, 0.49998808747477597, 0.5190535793663003, 0.5334564634977141, 0.5523779128925526, 0.5666756664722925, 0.5838119446707424, 0.6000662185833789, 0.6169243104450288, 0.6334366320515983, 0.6496321967060794, 0.6664766352478182, 0.6845805922857835, 0.6997917527769459, 0.719226225563034, 0.7328723745886236, 0.7513285872119013, 0.766313102642016, 0.7856687275198055, 0.7997668013413204, 0.8175847213860834, 0.8331153695035027, 0.8501079465349903, 0.8664530150053906, 0.8834210160712246, 0.8997828098581522, 0.9167617335697287, 0.9331839432852576, 0.9502058749494608, 0.966287434406695, 0.9833882139791967, 0.9998257836705307, 1.0166756835387787]
11	animate/a40.jpg	animate	inanimate	left	1.139	[0.0, 0.0, 0.0, 0.0, 0.0, 0.0, 0.0, 0.0, 0.0, 0.0, 1.0, 1.0, 1.0, 1.0, 1.0, 1.0, 1.0, 1.0, 1.0, 1.0, 1.0, 1.0, 1.0, 1.0, 1.0, 1.0, 1.0, 1.0, 1.0, 1.0, 1.0, 1.0, 1.0, 1.0, 1.0, 1.0, 1.0, 1.0, 1.0, 1.0, 1.0, 1.0, 1.0, 1.0, 1.0, 1.0, 1.0, 1.0, 1.0, 1.0, 1.0, 0.0, -8.0, -20.0, -36.0, -80.0, -125.0, -179.0, -252.0, -338.0, -444.0, -571.0, -673.0, -733.0, -769.0, -784.0, -790.0, -791.0, -791.0]	[-490.0, -490.0, -490.0, -490.0, -490.0, -490.0, -490.0, -490.0, -490.0, -490.0, -490.0, -490.0, -490.0, -490.0, -490.0, -489.0, -489.0, -487.0, -486.0, -486.0, -484.0, -483.0, -483.0, -483.0, -483.0, -483.0, -483.0, -483.0, -483.0, -483.0, -483.0, -483.0, -483.0, -483.0, -483.0, -483.0, -483.0, -483.0, -483.0, -483.0, -483.0, -483.0, -483.0, -483.0, -483.0, -483.0, -483.0, -483.0, -483.0, -483.0, -481.0, -475.0, -463.0, -445.0, -422.0, -361.0, -298.0, -217.0, -109.0, -2.0, 121.0, 262.0, 349.0, 392.0, 418.0, 429.0, 435.0, 437.0, 437.0]	[0.001091446159989573, 0.007077743008267134, 0.017157645634142682, 0.033753252479073126, 0.05094448527233908, 0.06709362864785362, 0.08427905877761077, 0.10041420750349062, 0.11760748829692602, 0.1337856449681567, 0.1510017950713518, 0.16712943447055295, 0.1843595792161068, 0.20054353855084628, 0.21763510213349946, 0.2339651519578183, 0.250925302359974, 0.2672717361638206, 0.2842936678280239, 0.3012626928903046, 0.31763302000035765, 0.3341313469572924, 0.35085358831565827, 0.37008496800262947, 0.38422058845026186, 0.4032014297772548, 0.41758758858486544, 0.43463989888550714, 0.45097097270627273, 0.46713240406825207, 0.48395226663706126, 0.50322119295015, 0.517322338768281, 0.5367690995408338, 0.550710842886474, 0.5675167108056485, 0.5840457577287452, 0.6018520724537666, 0.6173584859279799, 0.6347354038371122, 0.650712174079672, 0.6675528579653474, 0.6840982888606959, 0.7009041567871463, 0.7173850757608307, 0.734262964935624, 0.750588918759604, 0.7677043756484636, 0.784023502819764, 0.8009123146402999, 0.8173727536413935, 0.8343175440677442, 0.850733268460317, 0.8675681496752077, 0.8840521406527841, 0.900805101970036, 0.9171614344304544, 0.9342560700097238, 0.9507421089801937, 0.9676240941480501, 0.9840381118701771, 1.0009306783540524, 1.0173880453585298, 1.034236238563608, 1.0507847414628486, 1.067522001467296, 1.0838288406521315, 1.1009361055475892, 1.1171019742323551]
12	inanimate/n78.jpg	inanimate	animate	left	1.001	[0.0, 0.0, 0.0, 0.0, 0.0, 0.0, 0.0, 0.0, 0.0, 0.0, 0.0, 0.0, 0.0, 1.0, 3.0, 5.0, 6.0, 6.0, 7.0, 7.0, 7.0, 7.0, 7.0, 7.0, 7.0, 7.0, 7.0, 7.0, 7.0, 7.0, 7.0, 7.0, 7.0, 7.0, 7.0, 7.0, 7.0, 8.0, 8.0, 8.0, 8.0, 8.0, 8.0, 4.0, -2.0, -6.0, -19.0, -26.0, -73.0, -122.0, -189.0, -283.0, -412.0, -550.0, -665.0, -757.0, -821.0, -848.0, -854.0, -854.0]	[-490.0, -490.0, -490.0, -490.0, -490.0, -490.0, -490.0, -490.0, -490.0, -490.0, -490.0, -490.0, -490.0, -490.0, -490.0, -490.0, -490.0, -490.0, -490.0, -490.0, -490.0, -490.0, -490.0, -490.0, -490.0, -490.0, -490.0, -490.0, -490.0, -490.0, -490.0, -490.0, -490.0, -490.0, -490.0, -490.0, -490.0, -490.0, -490.0, -487.0, -486.0, -481.0, -476.0, -466.0, -445.0, -436.0, -409.0, -399.0, -357.0, -313.0, -242.0, -137.0, 1.0, 123.0, 226.0, 303.0, 360.0, 387.0, 398.0, 398.0]	[0.002640073638758622, 0.011632489564362913, 0.02028835122473538, 0.0371952536952449, 0.05431821990350727, 0.070492280581675, 0.08769614269112935, 0.103791014131275, 0.12097098294179887, 0.1371296836368856, 0.15440624966140604, 0.1704997557681054, 0.1876800659156288, 0.2037920039947494, 0.22093169551953906, 0.23717026811937103, 0.2543389729471528, 0.27047787632909603, 0.28768378643871984, 0.3039315750284004, 0.32089479743444826, 0.3372432792384643, 0.3542935415316606, 0.3705809247403522, 0.3876898962989799, 0.4063819699731539, 0.42098419252579333, 0.44011590300215175, 0.4542180728240055, 0.47348563380364794, 0.48756903030880494, 0.5066952794659301, 0.520872542525467, 0.5400882208996336, 0.5542112120310776, 0.5730036375825875, 0.5875747988393414, 0.6046612424252089, 0.621046929518343, 0.6371274649718544, 0.6540449487656588, 0.6735452987995814, 0.687399319584074, 0.7074365863081766, 0.7207919196880539, 0.7402038645013818, 0.7540807545883581, 0.7732377236970933, 0.7872678722706041, 0.8064890119785559, 0.8207181576435687, 0.8400014199432917, 0.8537738621525932, 0.872142693544447, 0.8871538329403847, 0.9053434645466041, 0.9206904755410505, 0.9386845233821077, 0.9540759076553513, 0.9712712364489562]
13	animate/a44.jpg	inanimate	animate	right	1.549	[0.0, 0.0, 0.0, 0.0, 0.0, 0.0, 0.0, 0.0, 0.0, 0.0, 0.0, 0.0, 0.0, 0.0, 0.0, 0.0, 0.0, 0.0, 0.0, 0.0, 0.0, 0.0, 0.0, 0.0, 0.0, 0.0, 0.0, 0.0, -3.0, -4.0, -4.0, -4.0, -4.0, -4.0, 2.0, 7.0, 12.0, 14.0, 14.0, 8.0, 1.0, -9.0, -31.0, -64.0, -120.0, -199.0, -292.0, -396.0, -497.0, -596.0, -688.0, -711.0, -714.0, -714.0, -709.0, -633.0, -490.0, -304.0, -85.0, 137.0, 344.0, 504.0, 616.0, 656.0, 659.0, 659.0, 659.0, 659.0, 659.0, 659.0, 659.0, 659.0, 659.0, 644.0, 616.0, 571.0, 518.0, 469.0, 464.0, 465.0, 478.0, 498.0, 522.0, 545.0, 568.0, 591.0, 621.0, 665.0, 682.0, 733.0, 743.0, 766.0, 769.0]	[-490.0, -490.0, -490.0, -490.0, -490.0, -490.0, -490.0, -490.0, -490.0, -490.0, -490.0, -490.0, -490.0, -490.0, -490.0, -490.0, -490.0, -490.0, -490.0, -490.0, -490.0, -490.0, -490.0, -490.0, -490.0, -490.0, -490.0, -490.0, -503.0, -505.0, -515.0, -515.0, -515.0, -515.0, -524.0, -532.0, -532.0, -531.0, -527.0, -516.0, -493.0, -458.0, -391.0, -326.0, -225.0, -98.0, 22.0, 130.0, 231.0, 337.0, 418.0, 441.0, 442.0, 443.0, 447.0, 449.0, 449.0, 449.0, 459.0, 493.0, 522.0, 540.0, 540.0, 540.0, 540.0, 540.0, 540.0, 540.0, 540.0, 540.0, 540.0, 540.0, 538.0, 523.0, 487.0, 434.0, 358.0, 259.0, 237.0, 204.0, 199.0, 193.0, 184.0, 178.0, 176.0, 176.0, 194.0, 249.0, 276.0, 373.0, 404.0, 458.0, 463.0]	[0.012837326525186654, 0.01853280772047583, 0.024020417164138053, 0.04083993840322364, 0.05787893671367783, 0.07708608177199494, 0.09122238487907453, 0.10779136775090592, 0.12456378505157772, 0.1434179918578593, 0.1579806197914877, 0.17677168000955135, 0.19115715615771478, 0.20998132567183347, 0.22448968167009298, 0.24177921834780136, 0.2579519136925228, 0.27418434229912236, 0.29134075914043933, 0.30750901715509826, 0.324316250414995, 0.3437008885885007, 0.35763717060763156, 0.37470006221701624, 0.39074919504491845, 0.4082773234404158, 0.424438072135672, 0.44192387524526566, 0.4576047098453273, 0.47467579344811384, 0.4910150592622813, 0.507898409756308, 0.5240752011013683, 0.5412360552654718, 0.5578528247497161, 0.5745245488287765, 0.5909880598264863, 0.6077580877899891, 0.6242434441010118, 0.6411759465336218, 0.6576636921745376, 0.6745135920427856, 0.6910491242888384, 0.7078638668681378, 0.7243161138758296, 0.7412056083703646, 0.757660586044949, 0.774411840699031, 0.7910897087713238, 0.8079092300104094, 0.8242211891920306, 0.84112979832571, 0.8577090211838367, 0.8745005531236529, 0.8910961599685834, 0.9077842680271715, 0.9240812085554353, 0.9411806227944908, 0.9575209126123809, 0.9744445403921418, 0.990703934301564, 1.007853865812649, 1.0240470411299611, 1.041303809848614, 1.0574771878600586, 1.0744748848883319, 1.0909701398486504, 1.1077585997918504, 1.126761627754604, 1.141143349239428, 1.160027252015425, 1.1745898799490533, 1.1908898924812092, 1.2078681335260626, 1.2242872712449753, 1.2412047550387797, 1.2600791004879284, 1.2744638939693687, 1.2935553271599929, 1.3078203127879533, 1.3254665423737606, 1.3412296382084605, 1.3581897886106162, 1.3746010756731266, 1.3906915097832098, 1.4075188816786977, 1.4272909327264642, 1.4409609750582604, 1.4602459440211533, 1.474170962050266, 1.4910782058504992, 1.507611348766659, 1.525804393699218]
14	inanimate/n80.jpg	inanimate	animate	left	1.531	[0.0, 0.0, 0.0, 0.0, 0.0, 0.0, 0.0, 0.0, 0.0, 0.0, 0.0, 0.0, 0.0, 0.0, 0.0, 0.0, 0.0, 0.0, 0.0, 0.0, 0.0, 0.0, 0.0, 0.0, 0.0, 0.0, 0.0, 0.0, 0.0, 0.0, 0.0, 0.0, 0.0, 0.0, -1.0, -2.0, -2.0, -3.0, -3.0, -5.0, -6.0, -6.0, -9.0, -10.0, -17.0, -34.0, -74.0, -106.0, -156.0, -196.0, -217.0, -223.0, -219.0, -175.0, -85.0, 66.0, 249.0, 426.0, 579.0, 721.0, 744.0, 744.0, 744.0, 679.0, 537.0, 355.0, 171.0, 5.0, -149.0, -276.0, -423.0, -487.0, -521.0, -533.0, -534.0, -534.0, -534.0, -534.0, -534.0, -534.0, -534.0, -534.0, -529.0, -523.0, -521.0, -521.0, -525.0, -564.0, -654.0, -768.0, -873.0, -937.0]	[-490.0, -490.0, -490.0, -490.0, -490.0, -490.0, -490.0, -490.0, -490.0, -490.0, -490.0, -490.0, -490.0, -490.0, -490.0, -490.0, -490.0, -490.0, -490.0, -490.0, -490.0, -490.0, -490.0, -490.0, -490.0, -490.0, -490.0, -490.0, -490.0, -490.0, -490.0, -490.0, -490.0, -490.0, -490.0, -490.0, -489.0, -486.0, -484.0, -481.0, -477.0, -474.0, -470.0, -458.0, -435.0, -397.0, -332.0, -286.0, -217.0, -167.0, -130.0, -88.0, -35.0, 32.0, 96.0, 164.0, 240.0, 314.0, 373.0, 438.0, 447.0, 447.0, 447.0, 441.0, 411.0, 376.0, 340.0, 329.0, 329.0, 329.0, 347.0, 361.0, 367.0, 368.0, 368.0, 368.0, 368.0, 368.0, 368.0, 368.0, 368.0, 368.0, 367.0, 364.0, 362.0, 361.0, 360.0, 360.0, 372.0, 390.0, 402.0, 408.0]	[0.0005989027486066334, 0.005355377063096967, 0.017553250494529493, 0.033051471975340974, 0.05191045744868461, 0.06639355481456732, 0.08359536893112818, 0.09978615491854725, 0.11595134094386594, 0.1326988409346086, 0.15201726052328013, 0.16611055568500888, 0.18575563088234048, 0.19927480406477116, 0.21629844239214435, 0.23285991593729705, 0.2520769596521859, 0.2659954923510668, 0.28534702123579336, 0.2993324551935075, 0.31712409260944696, 0.33285237248492194, 0.3502426023769658, 0.36590841832367005, 0.38394069545029197, 0.3995798874311731, 0.4175882712515886, 0.43278646109683905, 0.4518888169404818, 0.46591828284726944, 0.4846161591776763, 0.4994491227917024, 0.516846862003149, 0.5328413815659587, 0.5502927100460511, 0.5661486484386842, 0.5831077748443931, 0.5995395418794942, 0.61656591087376, 0.6326170916945557, 0.6498649857603596, 0.6662045929042506, 0.6831432393373689, 0.699544286406308, 0.7164378768939059, 0.7328460919598001, 0.7496000772734988, 0.7661820307985181, 0.7830735732859466, 0.7995968175455346, 0.8165713039343245, 0.8325750394797069, 0.8496870830349508, 0.8660997354309075, 0.8830278005407308, 0.8994831195450388, 0.916443611284194, 0.9328760609860183, 0.9497536088238121, 0.9662027838421636, 0.9830721396865556, 0.9992936456401367, 1.0166214116034098, 1.0325633658940205, 1.049616700191109, 1.0659136407193728, 1.0830966815265128, 1.0992553822215996, 1.116455148337991, 1.1325971237238264, 1.1497057539454545, 1.1661675582799944, 1.1831174686958548, 1.1994710704966565, 1.2166872205925756, 1.235294985031942, 1.2496965038226335, 1.2660879935792764, 1.2831802398213767, 1.3021027132199379, 1.3163199122354854, 1.3353697028069291, 1.349722410996037, 1.3662064019663376, 1.383121496430249, 1.401889687338553, 1.4165304805137566, 1.435290138106211, 1.4496797102474375, 1.4688605726623791, 1.4830607050316758, 1.5022934500593692]
15	animate/a53.jpg	animate	inanimate	left	1.199	[0.0, -1.0, -1.0, -1.0, -1.0, -1.0, -1.0, -1.0, -1.0, -1.0, -1.0, -1.0, -1.0, -1.0, -1.0, -1.0, -1.0, -1.0, -1.0, 0.0, 0.0, 0.0, 0.0, 0.0, 0.0, 0.0, 0.0, 0.0, 0.0, 0.0, 0.0, 0.0, 0.0, 0.0, 0.0, 0.0, -1.0, -4.0, -16.0, -43.0, -75.0, -102.0, -119.0, -132.0, -148.0, -186.0, -234.0, -313.0, -386.0, -485.0, -565.0, -625.0, -665.0, -679.0, -679.0, -679.0, -679.0, -679.0, -679.0, -679.0, -679.0, -679.0, -679.0, -679.0, -679.0, -679.0, -679.0, -689.0, -699.0, -711.0, -720.0, -720.0]	[-490.0, -490.0, -490.0, -490.0, -490.0, -490.0, -490.0, -490.0, -490.0, -490.0, -490.0, -490.0, -490.0, -489.0, -487.0, -484.0, -484.0, -481.0, -479.0, -475.0, -473.0, -469.0, -465.0, -462.0, -459.0, -455.0, -453.0, -449.0, -445.0, -442.0, -438.0, -436.0, -432.0, -430.0, -427.0, -425.0, -423.0, -419.0, -404.0, -382.0, -355.0, -329.0, -311.0, -289.0, -261.0, -213.0, -155.0, -64.0, 29.0, 132.0, 214.0, 272.0, 311.0, 324.0, 324.0, 324.0, 324.0, 324.0, 324.0, 324.0, 324.0, 324.0, 324.0, 324.0, 327.0, 330.0, 334.0, 348.0, 360.0, 377.0, 389.0, 389.0]	[0.015204129034827929, 0.021437892253743485, 0.031814071859116666, 0.045660241979931016, 0.06384236425947165, 0.07913203132920898, 0.09659325846587308, 0.11247001816809643, 0.12974009886966087, 0.14581824499327922, 0.1626855528447777, 0.17891252012486802, 0.19606211029895348, 0.21222524832410272, 0.22939975580811733, 0.24583186418021796, 0.2626397800995619, 0.27916200035542715, 0.2959992709074868, 0.31265665900718886, 0.32935056973656174, 0.34561508363549365, 0.36268650857527973, 0.3789469264811487, 0.39608627667621477, 0.41238628920109477, 0.42938808222243097, 0.44555087891058065, 0.4626857917755842, 0.4788868177565746, 0.4959940826520324, 0.5123398337891558, 0.5292569762459607, 0.5456662153083016, 0.5626546963467263, 0.5791919352559489, 0.5961316056855139, 0.6148888739407994, 0.629342958010966, 0.648339159313764, 0.6626761661900673, 0.6799397615613998, 0.6960694489607704, 0.71227593626827, 0.7290329935785849, 0.7457467016138253, 0.7624590443156194, 0.7791246244014474, 0.7958147804674809, 0.8124622699106112, 0.8290496847621398, 0.8457808007733547, 0.8626720019237837, 0.879109230285394, 0.8956952798034763, 0.9125233343729633, 0.9290619386083563, 0.9459579184258473, 0.9624774080220959, 0.9793580278565059, 0.9958508934869315, 1.0126670013996772, 1.0292141389654716, 1.046087249473203, 1.0624896618755884, 1.0792996257951017, 1.0956071476466605, 1.1126819859127863, 1.1288959825396887, 1.1459107462142128, 1.1621759427871439, 1.1793941408832325]
16	inanimate/n27.jpg	animate	inanimate	right	1.079	[0.0, 0.0, 0.0, 0.0, -1.0, -1.0, -1.0, -1.0, -2.0, -2.0, -2.0, -2.0, -2.0, -2.0, 0.0, 2.0, 10.0, 10.0, 10.0, 10.0, 10.0, 10.0, 12.0, 18.0, 19.0, 20.0, 20.0, 22.0, 22.0, 18.0, 14.0, 1.0, -2.0, -8.0, -15.0, -26.0, -41.0, -68.0, -106.0, -153.0, -209.0, -306.0, -337.0, -402.0, -409.0, -410.0, -410.0, -402.0, -391.0, -380.0, -374.0, -373.0, -373.0, -374.0, -374.0, -374.0, -368.0, -267.0, -119.0, 51.0, 263.0, 491.0, 696.0, 820.0]	[-490.0, -490.0, -490.0, -490.0, -490.0, -490.0, -490.0, -490.0, -491.0, -491.0, -491.0, -491.0, -490.0, -487.0, -483.0, -484.0, -495.0, -501.0, -501.0, -501.0, -501.0, -501.0, -502.0, -510.0, -511.0, -513.0, -513.0, -513.0, -513.0, -504.0, -501.0, -480.0, -466.0, -454.0, -445.0, -433.0, -413.0, -381.0, -340.0, -294.0, -247.0, -160.0, -131.0, -81.0, -74.0, -69.0, -61.0, -49.0, -37.0, -21.0, -7.0, 6.0, 16.0, 25.0, 28.0, 48.0, 59.0, 122.0, 210.0, 293.0, 388.0, 467.0, 526.0, 540.0]	[0.003596488502807915, 0.008600087858212646, 0.022511793904413935, 0.039052104810252786, 0.05604263384884689, 0.07236995300627314, 0.08941236465034308, 0.10572056916862493, 0.12272884751291713, 0.13885580424539512, 0.15593576250830665, 0.17241565748554422, 0.18927136001730105, 0.20570483371557202, 0.22268546409759438, 0.23904794055124512, 0.25603334959305357, 0.2723808073933469, 0.28942765636747936, 0.3056972902631969, 0.32274789389339276, 0.33902947443857556, 0.35610055804863805, 0.3724012532402412, 0.3894358142206329, 0.40572388009604765, 0.4227898437093245, 0.4388451205304591, 0.4563831475752522, 0.47238893112080405, 0.48956036660820246, 0.5057426192724961, 0.5228621721544187, 0.539054323475284, 0.5562612575886305, 0.5724906141986139, 0.5895244925122824, 0.6057442918026936, 0.6255112228536746, 0.6388057989752269, 0.6585484953902778, 0.6721762124434463, 0.691458109402447, 0.7055882685235702, 0.7255350820269086, 0.738912943379546, 0.7585484612573055, 0.7722253302490572, 0.7919605173374293, 0.8057510501967045, 0.8239324898095219, 0.838997559811105, 0.8582825287739979, 0.8723713866056642, 0.8917918647421175, 0.9057564773902413, 0.923257640482916, 0.9391122135421028, 0.956302422338922, 0.9724938909930643, 0.9893734868310275, 1.0058653284577304, 1.0226425244181883, 1.0391568940176512]
17	inanimate/n13.jpg	inanimate	animate	left	0.998	[0.0, 0.0, 0.0, 0.0, 0.0, 0.0, 0.0, 0.0, 0.0, 0.0, 0.0, 0.0, 1.0, 3.0, 3.0, 4.0, 4.0, 6.0, 13.0, 17.0, 20.0, 21.0, 21.0, 23.0, 23.0, 23.0, 23.0, 22.0, 16.0, 12.0, 9.0, 9.0, 7.0, 5.0, 1.0, -6.0, -20.0, -49.0, -87.0, -137.0, -193.0, -250.0, -302.0, -332.0, -343.0, -345.0, -345.0, -345.0, -347.0, -353.0, -361.0, -381.0, -423.0, -480.0, -551.0, -636.0, -766.0, -812.0, -823.0, -823.0]	[-490.0, -490.0, -490.0, -490.0, -490.0, -490.0, -490.0, -490.0, -490.0, -490.0, -490.0, -490.0, -490.0, -490.0, -490.0, -490.0, -490.0, -489.0, -487.0, -487.0, -487.0, -494.0, -494.0, -502.0, -503.0, -503.0, -503.0, -508.0, -514.0, -517.0, -516.0, -516.0, -506.0, -496.0, -484.0, -466.0, -439.0, -393.0, -343.0, -284.0, -217.0, -153.0, -106.0, -79.0, -61.0, -54.0, -47.0, -41.0, -31.0, -13.0, 11.0, 47.0, 102.0, 166.0, 231.0, 316.0, 429.0, 461.0, 470.0, 470.0]	[0.0016942401125561446, 0.0086004291952122, 0.018435596117342357, 0.035148621478583664, 0.05228012101724744, 0.06843677371216472, 0.08558943589014234, 0.10178807253396371, 0.11892674006230664, 0.13510489673353732, 0.15231012417643797, 0.16862379002122907, 0.18568292697455036, 0.20179213440133026, 0.2189925831844448, 0.23513558256672695, 0.25230121539061656, 0.2684769827319542, 0.2855193943687482, 0.3019794920401182, 0.318990501051303, 0.33525399095378816, 0.35231449324055575, 0.36864966306166025, 0.3857490773007157, 0.40463844139594585, 0.41885564041149337, 0.4378859750140691, 0.45221274189680116, 0.47122703384957276, 0.48554868073551916, 0.504735004484246, 0.5189566408225801, 0.5377668156870641, 0.5522113424303825, 0.5700651024308172, 0.5855558145922259, 0.6043502881439053, 0.6188507934857626, 0.635934847741737, 0.6522375909335096, 0.668927064325544, 0.6853431300478405, 0.7018090303754434, 0.7186701942337095, 0.7354016515819239, 0.7520057917427039, 0.7687515850702766, 0.7854086318402551, 0.8019441640863079, 0.8186203254954307, 0.8365744373804773, 0.8520559335520375, 0.8689027614236693, 0.8853386244518333, 0.9023608974530362, 0.9187076725866063, 0.9355452844756655, 0.9521798032656079, 0.9689556338926195]
18	inanimate/n62.jpg	animate	inanimate	right	1.465	[0.0, 0.0, 0.0, 0.0, 0.0, 0.0, 0.0, 0.0, 0.0, 0.0, 0.0, 0.0, 0.0, 0.0, 0.0, 0.0, 0.0, 0.0, 0.0, 0.0, 0.0, 0.0, 0.0, -1.0, -1.0, -1.0, -1.0, -1.0, -1.0, -1.0, -1.0, -1.0, -1.0, -1.0, -1.0, -1.0, -1.0, -4.0, -4.0, -4.0, -4.0, -4.0, -3.0, 2.0, 3.0, 5.0, 5.0, 2.0, -6.0, -11.0, -16.0, -25.0, -36.0, -54.0, -88.0, -156.0, -184.0, -265.0, -319.0, -373.0, -427.0, -478.0, -521.0, -551.0, -566.0, -571.0, -567.0, -539.0, -470.0, -289.0, -136.0, 39.0, 207.0, 375.0, 505.0, 610.0, 663.0, 686.0, 693.0, 695.0, 699.0, 705.0, 712.0, 724.0, 728.0, 730.0, 730.0, 730.0]	[-490.0, -490.0, -490.0, -490.0, -490.0, -490.0, -490.0, -490.0, -490.0, -490.0, -490.0, -490.0, -490.0, -490.0, -490.0, -490.0, -490.0, -490.0, -490.0, -490.0, -484.0, -476.0, -475.0, -474.0, -474.0, -474.0, -474.0, -474.0, -474.0, -474.0, -474.0, -474.0, -474.0, -474.0, -472.0, -471.0, -470.0, -470.0, -470.0, -470.0, -470.0, -470.0, -474.0, -481.0, -482.0, -484.0, -483.0, -479.0, -472.0, -466.0, -457.0, -445.0, -428.0, -404.0, -357.0, -266.0, -232.0, -142.0, -95.0, -48.0, 1.0, 53.0, 94.0, 121.0, 143.0, 164.0, 179.0, 190.0, 219.0, 268.0, 303.0, 329.0, 355.0, 379.0, 404.0, 428.0, 440.0, 449.0, 453.0, 455.0, 457.0, 461.0, 464.0, 473.0, 477.0, 479.0, 479.0, 479.0]	[0.015759477697429247, 0.0213211563823279, 0.030031972644792404, 0.04677059798268601, 0.06338566079648444, 0.08028437128086807, 0.09652430920687038, 0.11368106737791095, 0.13008859977708198, 0.14713613141066162, 0.16342283195263008, 0.18040312100492883, 0.19675228546839207, 0.21382507574162446, 0.23003565904218704, 0.247001270770852, 0.26323028605111176, 0.28028703367454, 0.29684714189352235, 0.31362365517998114, 0.3298758810997242, 0.3470159139542375, 0.36315481734345667, 0.38035765545646427, 0.3965890600666171, 0.4137826821897761, 0.4298584389835014, 0.44714695166476304, 0.46321007914229995, 0.480520095792599, 0.4965385086616152, 0.5137174534684164, 0.5298706928369938, 0.5470230136779719, 0.5632090210128808, 0.5803384725440992, 0.5965671464946354, 0.6136945500329603, 0.6298808986903168, 0.6469577849566122, 0.6634021813151776, 0.6803309290917241, 0.6967807867695228, 0.7137457158387406, 0.7301126296151779, 0.7470830200109049, 0.7659501974703744, 0.7803476202680031, 0.7993335815845057, 0.8137234950627317, 0.8327292536923778, 0.8470014073027414, 0.8660453952179523, 0.8802892182065989, 0.899259478210297, 0.9136681649979437, 0.9306662033559405, 0.9469931811836432, 0.9634682975010946, 0.980041376365989, 0.9966008019182482, 1.0133923338580644, 1.032689590807422, 1.0468156539282063, 1.0641055319356383, 1.0801580780971562, 1.0977438917543623, 1.11347797428607, 1.1309228174504824, 1.1467838758326252, 1.164500078666606, 1.1800887533754576, 1.1974346099887043, 1.2133861215988873, 1.2304636905319057, 1.2467507324035978, 1.2637054214865202, 1.2801177325454773, 1.2969406671109027, 1.3134055434420588, 1.3303124459125684, 1.3467677649168763, 1.363655211411242, 1.3801675330178114, 1.3970481528522214, 1.4133901493260055, 1.430512091537821, 1.4466339282807894]
19	animate/a54.jpg	inanimate	animate	right	1.134	[0.0, 0.0, 0.0, 0.0, 0.0, 0.0, 0.0, 0.0, 0.0, 0.0, 0.0, 0.0, 0.0, 0.0, 0.0, 0.0, 0.0, 0.0, 0.0, 0.0, 0.0, 0.0, 0.0, 1.0, 1.0, 2.0, 2.0, 2.0, 2.0, 3.0, 3.0, 3.0, 3.0, 3.0, 3.0, -4.0, -9.0, -19.0, -32.0, -49.0, -66.0, -80.0, -100.0, -121.0, -148.0, -181.0, -241.0, -275.0, -305.0, -331.0, -378.0, -426.0, -463.0, -501.0, -527.0, -537.0, -540.0, -540.0, -506.0, -401.0, -238.0, -28.0, 197.0, 426.0, 653.0, 831.0, 945.0, 959.0]	[-490.0, -490.0, -490.0, -490.0, -490.0, -490.0, -490.0, -490.0, -490.0, -490.0, -490.0, -490.0, -490.0, -490.0, -490.0, -490.0, -490.0, -490.0, -490.0, -490.0, -490.0, -490.0, -489.0, -488.0, -487.0, -486.0, -486.0, -485.0, -483.0, -482.0, -482.0, -482.0, -481.0, -479.0, -477.0, -454.0, -446.0, -435.0, -424.0, -411.0, -399.0, -385.0, -366.0, -348.0, -323.0, -285.0, -221.0, -181.0, -144.0, -106.0, -30.0, 35.0, 87.0, 128.0, 151.0, 164.0, 173.0, 184.0, 208.0, 237.0, 268.0, 297.0, 334.0, 368.0, 402.0, 429.0, 445.0, 451.0]	[0.0013795311460853554, 0.007948483296786435, 0.017845772810687777, 0.03453012620593654, 0.05167493772751186, 0.06783773441566154, 0.0850211165525252, 0.10115182794834254, 0.11835876206168905, 0.13459323866845807, 0.1517414635163732, 0.16784794026898453, 0.18502551974961534, 0.20119650843116688, 0.21844440248969477, 0.23454132193000987, 0.2517622506857151, 0.26787896743189776, 0.28492069640924456, 0.30142448469268857, 0.3183040805233759, 0.3347436982221552, 0.35170487262075767, 0.3707119965838501, 0.38497288621147163, 0.4041564792933059, 0.4183108730503591, 0.43733199166308623, 0.4516348652396118, 0.4704341174510773, 0.4849295027961489, 0.5017766720047803, 0.5181405137918773, 0.5345760354903177, 0.5514040900525288, 0.5680962941114558, 0.5848216074591619, 0.6014619289126131, 0.6181476476485841, 0.6347330144999432, 0.6514426265348447, 0.6680860199849121, 0.6849284105337574, 0.7012297883920837, 0.7180257576619624, 0.7349882973940112, 0.751447712398658, 0.7682836176172714, 0.7849276937340619, 0.8016803137215902, 0.8179199103178689, 0.8349333086589468, 0.851236393180443, 0.8684757539231214, 0.8844880227916292, 0.901483671819733, 0.9179082708651549, 0.9349558024987346, 0.9511421511633671, 0.9683279226301238, 0.9845262179442216, 1.0016993600947899, 1.017826999493991, 1.0349441630460205, 1.0511878556426382, 1.068402640412387, 1.0845169678214006, 1.1017218539345777]
20	inanimate/n37.jpg	animate	inanimate	right	1.015	[0.0, 0.0, 0.0, 0.0, 0.0, 0.0, 0.0, 0.0, 0.0, 0.0, 0.0, 0.0, 0.0, 0.0, 0.0, 0.0, 0.0, 0.0, 2.0, 2.0, 2.0, 2.0, 2.0, 2.0, 2.0, 2.0, 2.0, 3.0, 0.0, -4.0, -9.0, -19.0, -33.0, -47.0, -55.0, -68.0, -85.0, -114.0, -150.0, -194.0, -245.0, -287.0, -309.0, -321.0, -323.0, -323.0, -323.0, -323.0, -323.0, -312.0, -294.0, -276.0, -251.0, -149.0, -92.0, 121.0, 291.0, 461.0, 634.0, 761.0, 837.0]	[-490.0, -490.0, -490.0, -490.0, -490.0, -490.0, -490.0, -490.0, -490.0, -490.0, -490.0, -490.0, -490.0, -490.0, -490.0, -490.0, -490.0, -490.0, -484.0, -484.0, -484.0, -484.0, -484.0, -484.0, -484.0, -484.0, -484.0, -484.0, -484.0, -485.0, -484.0, -468.0, -456.0, -442.0, -425.0, -405.0, -381.0, -328.0, -283.0, -222.0, -161.0, -110.0, -81.0, -55.0, -39.0, -19.0, 2.0, 25.0, 47.0, 76.0, 122.0, 182.0, 220.0, 272.0, 288.0, 341.0, 365.0, 389.0, 413.0, 432.0, 442.0]	[0.01592536550015211, 0.021721539909776766, 0.029906020798080135, 0.04712968022067798, 0.06325800228660228, 0.0803908671514364, 0.09663046375499107, 0.11377800593618304, 0.12993636529427022, 0.14714295807789313, 0.16326854947692482, 0.1805256595253013, 0.1966276989551261, 0.21389607299352065, 0.229974219117139, 0.24708080134587362, 0.2632848993234802, 0.28050378008629195, 0.29661674216913525, 0.31388784686714644, 0.3299608730012551, 0.34719374841370154, 0.36328623052395415, 0.38056211388175143, 0.39662831335590454, 0.41378302352677565, 0.4300072601472493, 0.4471766476344783, 0.46336436162528116, 0.48044500255491585, 0.4968719909302308, 0.5136577202138142, 0.5302447937283432, 0.5470114083655062, 0.5634834526863415, 0.5806388455239357, 0.5970504739161697, 0.6137457499717129, 0.6321115093669505, 0.6470130808957038, 0.6633779466792475, 0.6804575636051595, 0.6987663204054115, 0.7137532251654193, 0.732899271621136, 0.7469703801471042, 0.7643609513688716, 0.7805309160539764, 0.7967848486368894, 0.8137746950087603, 0.8300081476118066, 0.8467665702555678, 0.8661396031166078, 0.8802025196491741, 0.8981283008979517, 0.9136074077396188, 0.9315191943387617, 0.9468614266806981, 0.9660648170683999, 0.9802089708391577, 0.9980050455778837]
21	inanimate/n70.jpg	inanimate	animate	left	0.911	[0.0, 0.0, 0.0, 0.0, 9.0, 29.0, 33.0, 36.0, 36.0, 37.0, 37.0, 37.0, 37.0, 37.0, 37.0, 37.0, 37.0, 37.0, 37.0, 37.0, 37.0, 37.0, 37.0, 37.0, 37.0, 37.0, 37.0, 36.0, 28.0, 26.0, 21.0, 16.0, 13.0, 12.0, 9.0, 5.0, -3.0, -11.0, -21.0, -39.0, -69.0, -111.0, -157.0, -272.0, -360.0, -440.0, -524.0, -610.0, -693.0, -774.0, -844.0, -895.0, -919.0, -923.0, -923.0]	[-490.0, -498.0, -504.0, -510.0, -526.0, -539.0, -539.0, -539.0, -539.0, -539.0, -539.0, -539.0, -539.0, -539.0, -539.0, -539.0, -539.0, -539.0, -539.0, -539.0, -539.0, -538.0, -537.0, -536.0, -536.0, -536.0, -535.0, -523.0, -508.0, -502.0, -497.0, -493.0, -491.0, -490.0, -487.0, -480.0, -468.0, -453.0, -434.0, -404.0, -361.0, -306.0, -245.0, -112.0, -24.0, 47.0, 120.0, 194.0, 266.0, 337.0, 395.0, 439.0, 458.0, 461.0, 461.0]	[0.01581033630645834, 0.020926234195940197, 0.02956502920278581, 0.04678971262910636, 0.06314843441941775, 0.08008947017515311, 0.09651167989068199, 0.1134650036401581, 0.12992271197435912, 0.1469862862577429, 0.16323714684403967, 0.18028809181123506, 0.19931194108357886, 0.21346531083690934, 0.23262910661287606, 0.24682616698555648, 0.2645300818330725, 0.2802931776677724, 0.2967000274002203, 0.3132659382754355, 0.3329540214253939, 0.34640834134916076, 0.36602474458049983, 0.3801313517251401, 0.3974454643757781, 0.4132269921901752, 0.43078481654811185, 0.44663358694378985, 0.463948382261151, 0.47994392582040746, 0.49698121746769175, 0.513394211193372, 0.5301048472247203, 0.5466680274403188, 0.5636189618526259, 0.5800118169354391, 0.5966934396783472, 0.613296897172404, 0.6301287063979544, 0.646626350688166, 0.6635066291928524, 0.6796960498468252, 0.6968538320143125, 0.7132784310597344, 0.7301310615948751, 0.7466805884905625, 0.763635277566209, 0.7802510230540065, 0.7969183098102803, 0.8133490528416587, 0.8302371820027474, 0.8463962240275578, 0.8635543475320446, 0.8797106588972383, 0.8968442064287956]
22	animate/a62.jpg	animate	inanimate	left	1.662	[0.0, 0.0, 0.0, 0.0, 0.0, 0.0, 0.0, 0.0, 0.0, 0.0, 0.0, 0.0, 0.0, 0.0, 0.0, 0.0, 0.0, 0.0, 0.0, 0.0, 0.0, 0.0, 0.0, 0.0, 0.0, 0.0, 0.0, 0.0, 0.0, 0.0, 0.0, 0.0, 0.0, 0.0, 0.0, 0.0, 0.0, -2.0, -7.0, -14.0, -16.0, -24.0, -36.0, -52.0, -66.0, -85.0, -95.0, -100.0, -112.0, -135.0, -163.0, -236.0, -316.0, -414.0, -528.0, -647.0, -769.0, -876.0, -943.0, -960.0, -960.0, -960.0, -960.0, -960.0, -960.0, -960.0, -958.0, -943.0, -911.0, -857.0, -771.0, -666.0, -556.0, -430.0, -322.0, -168.0, -83.0, -15.0, 30.0, 48.0, 57.0, 64.0, 67.0, 68.0, 69.0, 69.0, 69.0, 69.0, 68.0, 47.0, -2.0, -76.0, -175.0, -294.0, -441.0, -580.0, -678.0, -718.0, -722.0, -722.0]	[-490.0, -490.0, -490.0, -490.0, -490.0, -490.0, -490.0, -490.0, -490.0, -490.0, -490.0, -490.0, -490.0, -490.0, -490.0, -490.0, -490.0, -490.0, -490.0, -490.0, -490.0, -490.0, -490.0, -490.0, -488.0, -488.0, -488.0, -488.0, -488.0, -488.0, -488.0, -488.0, -488.0, -488.0, -488.0, -488.0, -487.0, -481.0, -472.0, -458.0, -452.0, -438.0, -417.0, -396.0, -372.0, -346.0, -323.0, -285.0, -227.0, -170.0, -106.0, 0.0, 71.0, 140.0, 218.0, 281.0, 333.0, 380.0, 408.0, 417.0, 417.0, 417.0, 417.0, 417.0, 417.0, 417.0, 411.0, 395.0, 367.0, 321.0, 247.0, 157.0, 66.0, -48.0, -143.0, -295.0, -394.0, -472.0, -535.0, -539.0, -539.0, -539.0, -539.0, -539.0, -539.0, -539.0, -539.0, -539.0, -528.0, -474.0, -371.0, -227.0, -53.0, 122.0, 271.0, 382.0, 453.0, 476.0, 479.0, 479.0]	[0.01573892945452826, 0.019995692367956508, 0.029975584446219727, 0.04718968654196942, 0.06333370992797427, 0.08059901196247665, 0.09668091274943436, 0.1137233243935043, 0.13012812612578273, 0.14723436702479376, 0.16590698471554788, 0.18056859920034185, 0.1993873073879513, 0.21380862349178642, 0.23009464136703173, 0.24691074927977752, 0.2667749602114782, 0.28013677891431144, 0.29975011015631026, 0.31362017358333105, 0.33048918809799943, 0.3468496165514807, 0.36635372124874266, 0.3802674752951134, 0.4000576169855776, 0.41360682746744715, 0.43298293231782736, 0.44691648367006565, 0.46476068635092815, 0.480379057029495, 0.4974784712685505, 0.5135760733683128, 0.530654666297778, 0.5468659322650637, 0.5638182320108172, 0.5802435137229622, 0.5971807948226342, 0.6135780872355099, 0.6304597310663667, 0.64678295423073, 0.6637082886809367, 0.6801636076852446, 0.6970926967915148, 0.7133585760311689, 0.7304644755931804, 0.7469976185093401, 0.7637731077993521, 0.7815906865143916, 0.797064673359273, 0.813487565741525, 0.8304146068549016, 0.846711888712889, 0.8637310897174757, 0.8799990169500234, 0.8971936630769051, 0.9133154998125974, 0.9304978579530143, 0.9467005905971746, 0.9638512047749828, 0.9799802095076302, 0.9970953250594903, 1.013337310985662, 1.030563359738153, 1.0466585725152981, 1.06389998125087, 1.079987343364337, 1.097333882637031, 1.1133137248834828, 1.1305708349318593, 1.146665706372005, 1.1638702511481824, 1.1799917465541512, 1.1972536352695897, 1.2133061814238317, 1.230542470162618, 1.2466673789022025, 1.2639005956443725, 1.2800616856766283, 1.2972249291706248, 1.3135706803077483, 1.3304018068665755, 1.3468782885174733, 1.3638336602598429, 1.3828349815594265, 1.3970436472518486, 1.4157002223000745, 1.430499735281046, 1.449152214336209, 1.4637530715554021, 1.4807302886110847, 1.4971268983499613, 1.5133344096539076, 1.5302611094375607, 1.5468966522312257, 1.5635666696471162, 1.580209721760184, 1.5969746297341771, 1.6135412232761155, 1.630218408688961, 1.6467181009720662]
23	inanimate/n15.jpg	animate	inanimate	right	0.976	[0.0, 0.0, 0.0, 0.0, 0.0, 0.0, 0.0, 0.0, 0.0, 0.0, 0.0, 0.0, -1.0, -1.0, -1.0, -1.0, 0.0, 0.0, 1.0, 3.0, 9.0, 9.0, 9.0, 9.0, 9.0, 12.0, 22.0, 29.0, 30.0, 31.0, 31.0, 32.0, 32.0, 30.0, 26.0, 20.0, 13.0, 3.0, -15.0, -40.0, -75.0, -123.0, -174.0, -256.0, -297.0, -319.0, -326.0, -326.0, -302.0, -239.0, -147.0, -30.0, 131.0, 309.0, 484.0, 716.0, 771.0, 863.0, 868.0]	[-490.0, -490.0, -490.0, -490.0, -490.0, -490.0, -490.0, -490.0, -490.0, -490.0, -490.0, -490.0, -490.0, -489.0, -488.0, -487.0, -484.0, -484.0, -484.0, -488.0, -494.0, -494.0, -494.0, -494.0, -494.0, -498.0, -506.0, -515.0, -516.0, -516.0, -516.0, -516.0, -514.0, -511.0, -504.0, -495.0, -486.0, -474.0, -452.0, -423.0, -387.0, -347.0, -303.0, -233.0, -196.0, -167.0, -144.0, -120.0, -81.0, -26.0, 40.0, 127.0, 228.0, 307.0, 383.0, 477.0, 502.0, 540.0, 540.0]	[0.007050436375720892, 0.015692986045905855, 0.02784307286492549, 0.04497491373331286, 0.06117081971751759, 0.0785866495789378, 0.09444804929808015, 0.1114232183463173, 0.12752901243948145, 0.14469430393364746, 0.16115610826818738, 0.1780708613950992, 0.19444016450142954, 0.21136584028135985, 0.22776757002429804, 0.24459972057957202, 0.26108132222725544, 0.27809267256816383, 0.2944336450455012, 0.31131494754663436, 0.3278907570784213, 0.3446607850419241, 0.36115945332858246, 0.3779373319557635, 0.3944414615689311, 0.4113568973625661, 0.42756782199285226, 0.44464231892925454, 0.4608668968794518, 0.47802877504727803, 0.49417552908562357, 0.5113500365696382, 0.5275384332271642, 0.544786327292968, 0.5608706174098188, 0.5780748208562727, 0.594277553500433, 0.6113540984297288, 0.6280722437950317, 0.6447067625849741, 0.6610013137833448, 0.6779075335871312, 0.6948127293944708, 0.7112745337290107, 0.7276001462232671, 0.74467088849633, 0.7608859091269551, 0.7780634886003099, 0.7942136559722712, 0.8113229688678985, 0.8275345761649078, 0.8447223956318339, 0.8610350374801783, 0.8780313691750052, 0.8943423043529037, 0.911373110677232, 0.9276994058382115, 0.9447667347776587, 0.963707640155917]
24	animate/a63.jpg	animate	inanimate	left	0.935	[0.0, 0.0, 0.0, 0.0, 0.0, 0.0, 0.0, 0.0, 0.0, 0.0, 0.0, 0.0, 0.0, 0.0, 0.0, 0.0, 0.0, 0.0, 0.0, 0.0, 0.0, 0.0, 0.0, 0.0, 0.0, 0.0, 0.0, 1.0, 1.0, 3.0, 3.0, 3.0, 3.0, 3.0, 3.0, 3.0, 3.0, 5.0, 5.0, 5.0, 5.0, 1.0, -4.0, -6.0, -15.0, -36.0, -85.0, -162.0, -258.0, -365.0, -486.0, -615.0, -732.0, -811.0, -821.0, -822.0]	[-490.0, -490.0, -490.0, -490.0, -490.0, -490.0, -490.0, -490.0, -490.0, -490.0, -490.0, -490.0, -490.0, -490.0, -490.0, -490.0, -490.0, -490.0, -490.0, -490.0, -490.0, -490.0, -490.0, -490.0, -490.0, -490.0, -490.0, -488.0, -488.0, -488.0, -488.0, -488.0, -488.0, -488.0, -488.0, -488.0, -488.0, -489.0, -489.0, -489.0, -489.0, -479.0, -463.0, -440.0, -407.0, -353.0, -263.0, -159.0, -44.0, 67.0, 199.0, 357.0, 447.0, 516.0, 526.0, 527.0]	[0.0012163740102550946, 0.006791023355617654, 0.01729110680753365, 0.03405362545163371, 0.05046798450348433, 0.06724961779400473, 0.0868414450524142, 0.1007111671497114, 0.11767165888886666, 0.13407372996152844, 0.15157182105758693, 0.16740045281039784, 0.18576484687218908, 0.20058518117002677, 0.21913252967351582, 0.2340245438826969, 0.2533129261719296, 0.2672966534664738, 0.28687585140869487, 0.3007138295433833, 0.3191871088129119, 0.3337982060184004, 0.3522926479272428, 0.3673433819494676, 0.38575726927956566, 0.40058067557401955, 0.4188095604622504, 0.43407874755212106, 0.4512290204002056, 0.4671095347584924, 0.48420553567120805, 0.5007048866245896, 0.5175882371186162, 0.5341189907048829, 0.550936463943799, 0.5673422896798002, 0.5842386108270148, 0.6007150924779125, 0.6176530562443077, 0.6338230209221365, 0.651036440358439, 0.6671572531049605, 0.6841682621161453, 0.700466909307579, 0.7175919235160109, 0.7337646188607323, 0.7509142090420937, 0.7674292613082798, 0.7842829158398672, 0.8006037496816134, 0.8175973507095478, 0.8338468459623982, 0.8509636681847041, 0.8671367048591492, 0.8842603537341347, 0.9004170064363279]
25	animate/a37.jpg	animate	inanimate	left	0.996	[0.0, 0.0, 0.0, 0.0, 0.0, 0.0, 2.0, 3.0, 3.0, 4.0, 5.0, 5.0, 5.0, 5.0, 5.0, 5.0, 5.0, 5.0, 5.0, 5.0, 5.0, 5.0, 5.0, 5.0, 5.0, 5.0, 5.0, 5.0, 5.0, 5.0, 5.0, 5.0, 5.0, 5.0, 5.0, 5.0, 5.0, 4.0, 2.0, -4.0, -14.0, -30.0, -57.0, -93.0, -150.0, -236.0, -333.0, -445.0, -538.0, -630.0, -704.0, -771.0, -803.0, -829.0, -848.0, -863.0, -877.0, -886.0, -890.0, -890.0, -890.0]	[-490.0, -490.0, -490.0, -490.0, -490.0, -490.0, -490.0, -489.0, -489.0, -489.0, -488.0, -488.0, -488.0, -488.0, -488.0, -488.0, -488.0, -488.0, -488.0, -488.0, -487.0, -484.0, -482.0, -478.0, -475.0, -472.0, -468.0, -465.0, -463.0, -462.0, -461.0, -460.0, -459.0, -459.0, -458.0, -456.0, -456.0, -453.0, -451.0, -439.0, -423.0, -397.0, -356.0, -309.0, -246.0, -172.0, -67.0, 31.0, 102.0, 162.0, 213.0, 265.0, 294.0, 323.0, 346.0, 365.0, 379.0, 392.0, 398.0, 399.0, 399.0]	[0.013999633411003742, 0.01956472542951815, 0.028934655572811607, 0.04198859197640559, 0.059035440943262074, 0.07537504808715312, 0.09234304915298708, 0.10894206932425732, 0.12565236402588198, 0.1421216776871006, 0.15908763074548915, 0.17545556852564914, 0.1923665669892216, 0.2087682967321598, 0.22589945493382402, 0.2418632545231958, 0.2591814631668967, 0.27529476658673957, 0.29242251145478804, 0.30860749478597427, 0.32570178903552005, 0.3421390173971304, 0.35899915725167375, 0.3752162258824683, 0.39237503204640234, 0.4088702870067209, 0.42572257621213794, 0.44212601261097006, 0.4590991336663137, 0.47568415918794926, 0.492309461995319, 0.508561005241063, 0.5257798860038747, 0.5418969440870569, 0.5590997822000645, 0.5755045839323429, 0.5923903237635386, 0.6088111681456212, 0.6256358093814924, 0.6419293365834164, 0.6590543507918483, 0.675259131428902, 0.6923302150316886, 0.7085906329448335, 0.7257443191192579, 0.741854209205485, 0.759010626039526, 0.7751956093707122, 0.7923537328751991, 0.8086673987199902, 0.8257494049757952, 0.841891039024631, 0.859032095882867, 0.875214007217437, 0.892416504000721, 0.9085547247159411, 0.9257749708121992, 0.9419736074632965, 0.9590709737021825, 0.975456319458317, 0.9923048540003947]
26	inanimate/n17.jpg	inanimate	animate	left	0.925	[0.0, 0.0, 0.0, 0.0, 0.0, -1.0, -2.0, -2.0, -2.0, -3.0, -3.0, -3.0, -3.0, 0.0, 6.0, 7.0, 7.0, 7.0, 7.0, 7.0, 7.0, 8.0, 9.0, 9.0, 9.0, 9.0, 9.0, 9.0, 9.0, 10.0, 13.0, 16.0, 17.0, 20.0, 21.0, 21.0, 21.0, 21.0, 18.0, 15.0, 11.0, 5.0, -10.0, -32.0, -64.0, -117.0, -231.0, -365.0, -555.0, -678.0, -793.0, -885.0, -933.0, -948.0, -950.0, -950.0]	[-490.0, -490.0, -490.0, -490.0, -490.0, -490.0, -491.0, -491.0, -491.0, -491.0, -491.0, -491.0, -491.0, -487.0, -485.0, -485.0, -485.0, -485.0, -485.0, -485.0, -485.0, -483.0, -476.0, -474.0, -474.0, -474.0, -474.0, -474.0, -474.0, -471.0, -462.0, -452.0, -440.0, -428.0, -422.0, -421.0, -414.0, -413.0, -404.0, -400.0, -390.0, -378.0, -357.0, -328.0, -293.0, -231.0, -121.0, -11.0, 150.0, 258.0, 343.0, 409.0, 449.0, 465.0, 468.0, 468.0]	[0.0025977483674068935, 0.011847187983221374, 0.0204300043915282, 0.037194912365521304, 0.05441720645467285, 0.07046668061957462, 0.08751318824943155, 0.10639709102542838, 0.12074672721792012, 0.13750480853195768, 0.15397412218590034, 0.17166882104356773, 0.1875298794329865, 0.2038425212740549, 0.22053847999632126, 0.24014669124153443, 0.2539665787262493, 0.2731460758150206, 0.28725165896321414, 0.30543890123954043, 0.32059647246205714, 0.33979030553018674, 0.3538958886783803, 0.3717844646453159, 0.38702634510264033, 0.4051941313955467, 0.4203646732712514, 0.43884307253028965, 0.4539381798313116, 0.4709031088932534, 0.4871966360951774, 0.5040362959771301, 0.5205670495633967, 0.5374783893566928, 0.5540777508649626, 0.5707655175938271, 0.5873102658297285, 0.6040260218578624, 0.6206294793519191, 0.6374548032545135, 0.6538944209460169, 0.6707999580830801, 0.6872409411080298, 0.7041174649493769, 0.7206280798927764, 0.7373766038799658, 0.7539681147245574, 0.7707893426340888, 0.7870767258427804, 0.8041153828162351, 0.8204136886779452, 0.8373888577334583, 0.8537718141596997, 0.8707968178205192, 0.8869664411686244, 0.9041658659552922]
27	inanimate/n41.jpg	animate	inanimate	right	0.958	[0.0, 0.0, 0.0, 0.0, 0.0, 0.0, 0.0, 0.0, 0.0, 0.0, 0.0, 0.0, 0.0, 0.0, 0.0, 0.0, 0.0, 0.0, 0.0, 0.0, -3.0, -4.0, -10.0, -15.0, -21.0, -27.0, -34.0, -43.0, -53.0, -63.0, -74.0, -87.0, -93.0, -94.0, -94.0, -94.0, -94.0, -94.0, -90.0, -89.0, -87.0, -87.0, -87.0, -87.0, -87.0, -92.0, -102.0, -101.0, -72.0, -17.0, 63.0, 169.0, 300.0, 445.0, 594.0, 711.0, 784.0, 801.0]	[-490.0, -490.0, -490.0, -490.0, -490.0, -490.0, -490.0, -490.0, -490.0, -490.0, -490.0, -490.0, -490.0, -490.0, -490.0, -490.0, -490.0, -490.0, -490.0, -490.0, -482.0, -477.0, -455.0, -437.0, -417.0, -395.0, -372.0, -351.0, -331.0, -317.0, -305.0, -297.0, -293.0, -293.0, -293.0, -293.0, -293.0, -294.0, -314.0, -324.0, -325.0, -327.0, -329.0, -331.0, -332.0, -322.0, -291.0, -255.0, -195.0, -123.0, -46.0, 56.0, 166.0, 256.0, 333.0, 393.0, 424.0, 431.0]	[0.0017826453331508674, 0.010740927966253366, 0.018759521051833872, 0.035390967852436006, 0.05253851003362797, 0.0687330506843864, 0.08595944077387685, 0.10209732015937334, 0.11936501153104473, 0.13540492836909834, 0.15257158519671066, 0.1687415498745395, 0.18596281996724429, 0.20209045936644543, 0.21913082301034592, 0.235577950028528, 0.25261421767936554, 0.2689132062077988, 0.2859801938175224, 0.3045534836273873, 0.31917072483338416, 0.33800308633362874, 0.35251007699844195, 0.36955009931261884, 0.38590165310597513, 0.4022115642874269, 0.4189372189794085, 0.4359420839973609, 0.4520615314031602, 0.47146426022663945, 0.48572071252419846, 0.5028078387767891, 0.5190187634143513, 0.5359434151905589, 0.5523704035658739, 0.5692124527777196, 0.5857281877179048, 0.6029016711981967, 0.6188009588731802, 0.6358740904761362, 0.6523000548550044, 0.6691188934273669, 0.6856141483876854, 0.7025473334870185, 0.7190808177401777, 0.735942664257891, 0.75206074633752, 0.7691553819167893, 0.7857660074078012, 0.8027036298371968, 0.8187189707023208, 0.8358743635399151, 0.8521545787589275, 0.8693014382733963, 0.8856813227030216, 0.902528491911653, 0.9188329417665955, 0.9358900307197473]
28	animate/a5.jpg	animate	inanimate	left	0.897	[0.0, 0.0, 0.0, 0.0, 0.0, 0.0, 0.0, 0.0, 0.0, 0.0, 0.0, 0.0, 0.0, 0.0, 0.0, 0.0, 0.0, 0.0, 0.0, 0.0, 0.0, 1.0, 0.0, 0.0, 0.0, 0.0, 0.0, 0.0, 0.0, 0.0, -1.0, -3.0, -8.0, -18.0, -29.0, -40.0, -48.0, -69.0, -77.0, -97.0, -108.0, -121.0, -141.0, -174.0, -240.0, -335.0, -446.0, -625.0, -678.0, -831.0, -869.0, -921.0, -923.0, -923.0]	[-490.0, -490.0, -490.0, -490.0, -490.0, -490.0, -490.0, -490.0, -490.0, -490.0, -490.0, -490.0, -490.0, -490.0, -490.0, -490.0, -490.0, -490.0, -490.0, -490.0, -490.0, -487.0, -484.0, -483.0, -483.0, -483.0, -483.0, -483.0, -483.0, -483.0, -483.0, -480.0, -470.0, -452.0, -435.0, -422.0, -414.0, -403.0, -396.0, -381.0, -370.0, -352.0, -322.0, -271.0, -166.0, -43.0, 83.0, 243.0, 289.0, 409.0, 438.0, 484.0, 486.0, 486.0]	[0.015014689262898173, 0.019622683757916093, 0.028069990999938454, 0.04495675482030492, 0.06173804677382577, 0.07858828797907336, 0.0954177078747307, 0.11177506433159579, 0.1286420308460947, 0.14514138179947622, 0.1619899163415539, 0.17841929404676193, 0.1950671248268918, 0.2117047156134504, 0.2286457513764617, 0.24506830242171418, 0.2617741598005523, 0.27872919020592235, 0.2948936935645179, 0.31201461177988676, 0.3282047151005827, 0.34501263101992663, 0.3620792772999266, 0.3782652846275596, 0.39517286976479227, 0.411684167374915, 0.4282896728691412, 0.4449965542444261, 0.46161059306177776, 0.47862945272936486, 0.4950451771146618, 0.5117902877755114, 0.5282746200828115, 0.5450419173866976, 0.5615856416261522, 0.5783700055690133, 0.5952246841043234, 0.6115335712820524, 0.628445252412348, 0.6449046674169949, 0.6641694977370207, 0.6784460886774468, 0.6953236365152407, 0.7116803103126585, 0.7311164897546405, 0.7452268515698961, 0.7644694952468853, 0.7782900653983233, 0.7977596954733599, 0.811642388223845, 0.8294493856155896, 0.8452885986916954, 0.8616756511182757, 0.8783722924999893]
29	animate/a60.jpg	inanimate	animate	right	1.065	[0.0, 0.0, 0.0, 0.0, 0.0, 3.0, 6.0, 9.0, 12.0, 15.0, 19.0, 27.0, 37.0, 44.0, 48.0, 48.0, 48.0, 48.0, 48.0, 48.0, 48.0, 48.0, 48.0, 49.0, 49.0, 49.0, 47.0, 43.0, 43.0, 43.0, 43.0, 40.0, 35.0, 27.0, 12.0, -5.0, -28.0, -61.0, -100.0, -142.0, -187.0, -249.0, -279.0, -298.0, -316.0, -330.0, -343.0, -357.0, -372.0, -392.0, -412.0, -429.0, -438.0, -443.0, -444.0, -444.0, -398.0, -274.0, -107.0, 69.0, 268.0, 530.0, 594.0, 679.0]	[-490.0, -490.0, -490.0, -490.0, -491.0, -492.0, -492.0, -492.0, -492.0, -490.0, -489.0, -486.0, -485.0, -485.0, -485.0, -485.0, -485.0, -485.0, -485.0, -485.0, -485.0, -485.0, -485.0, -486.0, -487.0, -491.0, -492.0, -491.0, -490.0, -490.0, -487.0, -483.0, -475.0, -462.0, -443.0, -419.0, -388.0, -346.0, -293.0, -240.0, -187.0, -116.0, -83.0, -64.0, -48.0, -37.0, -27.0, -17.0, -5.0, 12.0, 33.0, 52.0, 61.0, 73.0, 88.0, 110.0, 149.0, 211.0, 277.0, 337.0, 392.0, 467.0, 484.0, 508.0]	[0.005021894801757298, 0.013717351073864847, 0.02343680613557808, 0.04268900713213952, 0.05704273931769421, 0.07423943343746942, 0.09060225122811971, 0.1076228175588767, 0.12387470214162022, 0.13990335499693174, 0.1566109190316638, 0.1755801550389151, 0.19016974827536615, 0.2096414263432962, 0.22330020469235023, 0.24304904510063352, 0.2568416259600781, 0.27452335416455753, 0.2901198795370874, 0.307824135714327, 0.3234855143382447, 0.3403425822034478, 0.3568429571532761, 0.37375668628374115, 0.3901502240332775, 0.40706736649008235, 0.4234967441952904, 0.4403480093969847, 0.4565712220137357, 0.4737488014943665, 0.4900641740023275, 0.5069932631085976, 0.5234120594977867, 0.5402790260122856, 0.5567838382921764, 0.573691423429409, 0.5902764489510446, 0.6069300823874073, 0.6232707135277451, 0.639979984232923, 0.6570995371148456, 0.6734753255514079, 0.6904815559028066, 0.7068191150538041, 0.7239140919627971, 0.7399075875218841, 0.757017241747235, 0.7731834517690004, 0.790386289882008, 0.8067791449648212, 0.8238311139284633, 0.8401219104634947, 0.8570882048661588, 0.8734431719931308, 0.890418341041368, 0.9067722841718933, 0.9238495117751881, 0.9399037645926, 0.9571021653828211, 0.973465324495919, 0.9904193309121183, 1.006796484674851, 1.0238313869922422, 1.0401675808097934]
30	inanimate/n26.jpg	inanimate	animate	left	0.928	[0.0, 0.0, 0.0, 0.0, -1.0, -1.0, -1.0, -1.0, -1.0, -1.0, -1.0, -1.0, -1.0, -1.0, -2.0, -2.0, -2.0, -2.0, -2.0, -2.0, -2.0, -2.0, -2.0, -2.0, -2.0, -2.0, -2.0, -2.0, -2.0, -2.0, -2.0, -8.0, -9.0, -10.0, -11.0, -11.0, -12.0, -12.0, -16.0, -19.0, -25.0, -36.0, -50.0, -71.0, -105.0, -153.0, -211.0, -293.0, -439.0, -542.0, -655.0, -740.0, -812.0, -853.0, -859.0]	[-490.0, -490.0, -490.0, -490.0, -491.0, -491.0, -491.0, -491.0, -491.0, -491.0, -491.0, -491.0, -491.0, -491.0, -491.0, -491.0, -490.0, -489.0, -488.0, -488.0, -488.0, -488.0, -488.0, -488.0, -488.0, -488.0, -488.0, -488.0, -488.0, -488.0, -483.0, -470.0, -466.0, -466.0, -464.0, -464.0, -463.0, -463.0, -457.0, -452.0, -445.0, -434.0, -416.0, -389.0, -340.0, -274.0, -190.0, -96.0, 80.0, 218.0, 335.0, 422.0, 486.0, 521.0, 526.0]	[0.0015546349386568181, 0.00639337049506139, 0.01788058876991272, 0.035184461434255354, 0.05125612223491771, 0.06829000054858625, 0.08479583683219971, 0.10174916057439987, 0.11809252238163026, 0.1351042140595382, 0.15141378391126636, 0.16840909160964657, 0.18446163776388858, 0.20164058257068973, 0.21819932545622578, 0.23632034914044198, 0.2512208966727485, 0.2685135053470731, 0.28472374731791206, 0.30204605195467593, 0.31803920618403936, 0.3353423961743829, 0.3513492037236574, 0.3685243938671192, 0.3845308600793942, 0.4019347432840732, 0.41807262267684564, 0.43528774877631804, 0.4514092441822868, 0.4711546712569543, 0.4845369699396542, 0.5050015854940284, 0.5179384447037592, 0.5373910081325448, 0.5512474182396545, 0.5711979864063323, 0.584721255581826, 0.6023398372053634, 0.6181049810329569, 0.6360857168911025, 0.6513426159945084, 0.6691769200187991, 0.6847328267685953, 0.7015383533580462, 0.7180455549751059, 0.7349370974625344, 0.7513883204737795, 0.7682259323555627, 0.7847071926662466, 0.801668367072125, 0.8180366461820086, 0.834954129975813, 0.8511804145891801, 0.8682033702498302, 0.8847081825369969]
31	inanimate/n74.jpg	animate	inanimate	right	2.334	[0.0, 0.0, 0.0, 0.0, 0.0, 0.0, 0.0, 0.0, 0.0, 0.0, 0.0, 0.0, 0.0, 0.0, 0.0, 4.0, 13.0, 20.0, 28.0, 37.0, 45.0, 51.0, 52.0, 52.0, 52.0, 52.0, 52.0, 52.0, 52.0, 53.0, 54.0, 54.0, 54.0, 54.0, 54.0, 54.0, 54.0, 50.0, 44.0, 29.0, 23.0, -17.0, -38.0, -55.0, -81.0, -115.0, -150.0, -180.0, -205.0, -240.0, -253.0, -284.0, -300.0, -313.0, -327.0, -343.0, -357.0, -372.0, -387.0, -398.0, -404.0, -405.0, -407.0, -407.0, -405.0, -380.0, -314.0, -183.0, -29.0, 149.0, 346.0, 519.0, 670.0, 794.0, 873.0, 920.0, 926.0, 926.0, 926.0, 926.0, 926.0, 926.0, 926.0, 926.0, 926.0, 926.0, 924.0, 918.0, 906.0, 881.0, 865.0, 857.0, 854.0, 854.0, 854.0, 854.0, 854.0, 854.0, 854.0, 854.0, 854.0, 854.0, 854.0, 854.0, 854.0, 854.0, 854.0, 854.0, 854.0, 854.0, 854.0, 854.0, 854.0, 854.0, 854.0, 854.0, 854.0, 854.0, 854.0, 854.0, 854.0, 854.0, 854.0, 854.0, 854.0, 854.0, 854.0, 854.0, 854.0, 854.0, 854.0, 854.0, 854.0, 854.0, 854.0, 851.0, 832.0, 821.0, 819.0, 819.0]	[-490.0, -490.0, -490.0, -490.0, -490.0, -489.0, -489.0, -489.0, -489.0, -489.0, -489.0, -489.0, -489.0, -489.0, -489.0, -487.0, -483.0, -479.0, -475.0, -471.0, -465.0, -461.0, -461.0, -461.0, -461.0, -461.0, -461.0, -461.0, -461.0, -461.0, -462.0, -462.0, -462.0, -462.0, -462.0, -459.0, -456.0, -449.0, -440.0, -417.0, -407.0, -355.0, -329.0, -309.0, -286.0, -259.0, -229.0, -201.0, -179.0, -146.0, -131.0, -94.0, -77.0, -61.0, -49.0, -36.0, -19.0, 0.0, 23.0, 42.0, 54.0, 64.0, 76.0, 85.0, 92.0, 104.0, 125.0, 151.0, 173.0, 197.0, 222.0, 252.0, 293.0, 326.0, 352.0, 374.0, 378.0, 378.0, 380.0, 380.0, 380.0, 381.0, 382.0, 383.0, 383.0, 384.0, 384.0, 387.0, 387.0, 392.0, 392.0, 392.0, 392.0, 392.0, 392.0, 392.0, 392.0, 392.0, 392.0, 392.0, 392.0, 392.0, 392.0, 392.0, 392.0, 392.0, 392.0, 392.0, 392.0, 392.0, 392.0, 392.0, 392.0, 392.0, 392.0, 392.0, 392.0, 392.0, 392.0, 392.0, 392.0, 392.0, 392.0, 392.0, 392.0, 392.0, 392.0, 392.0, 392.0, 392.0, 392.0, 392.0, 392.0, 392.0, 392.0, 395.0, 405.0, 410.0, 412.0, 412.0]	[0.012293583175051026, 0.01773750200663926, 0.022581698882277124, 0.03987840355694061, 0.056093765517289285, 0.07314436914748512, 0.08945632832910633, 0.10653116659523221, 0.12272707257943694, 0.1398916814068798, 0.15605243010213599, 0.1732163562628557, 0.18941055558389053, 0.20656867908110144, 0.22276560906902887, 0.2398844792842283, 0.2560653666150756, 0.27316717018402414, 0.289422809430107, 0.30673111942451214, 0.3228140442079166, 0.33990902111690957, 0.35607762046856806, 0.37314426674856804, 0.38946612457948504, 0.40665018938307185, 0.4230433858028846, 0.43992332297057146, 0.4562021728561376, 0.4731486699383822, 0.49184245027572615, 0.5064784647911438, 0.5255514660020708, 0.5398601422421052, 0.5565755569405155, 0.5732070037411177, 0.5895879121671896, 0.6065770758723374, 0.6234344850672642, 0.6399741133063799, 0.6586924696093774, 0.673150649672607, 0.6910361536356504, 0.7066784176204237, 0.7234399122608011, 0.7399136632448062, 0.7562146997734089, 0.7730099863765645, 0.7924495791521622, 0.8063097439226112, 0.825454083722434, 0.8396634320815792, 0.8578110797316185, 0.8730174615629949, 0.8921553160325857, 0.9063919710242772, 0.9232732735254103, 0.9396579366220976, 0.9563064500616747, 0.9730136727666832, 0.9897744847476133, 1.00630523833388, 1.0231493355386192, 1.0397111504207714, 1.0564115464731003, 1.0729894039977808, 1.089938631746918, 1.1063772254419746, 1.123224394650606, 1.139684492321976, 1.156599928115611, 1.1731996309463284, 1.1898058191072778, 1.2063478366762865, 1.2231984192185337, 1.2397090341546573, 1.2564794034551596, 1.272787949303165, 1.2898914595425595, 1.30635121587693, 1.3233734888708568, 1.3394294483587146, 1.3565606065603788, 1.3727681178643252, 1.3899453560079564, 1.406046030104335, 1.4232283882447518, 1.4393864062731154, 1.4566011910428642, 1.4727503344183788, 1.4899692151811905, 1.5061821878116461, 1.5232563434110489, 1.539537582626508, 1.5566093489032937, 1.5728475801661261, 1.5898858958098572, 1.6086656920451787, 1.6232180799925118, 1.6420716041320702, 1.656537634851702, 1.67357526782871, 1.6898018937790766, 1.706666129633959, 1.7229658008291153, 1.7394962130783824, 1.7562263050931506, 1.7729536664410261, 1.789687171782134, 1.8071886762118083, 1.8227476549509447, 1.8410700650638319, 1.8562924895450124, 1.873598751539248, 1.889614092404372, 1.9065715121469111, 1.9229507139098132, 1.9398559097171528, 1.9562736821026192, 1.9732611391373212, 1.9895986982883187, 2.0065230087348027, 2.022780695981055, 2.0398695288968156, 2.0560432482452597, 2.0731665557905217, 2.0894239016997744, 2.1065335559251253, 2.1229861442698166, 2.1398548174474854, 2.1562988724690513, 2.173194169619819, 2.1896426619714475, 2.2066260230130865, 2.2231089899869403, 2.2398165540289483, 2.256437760835979, 2.2731821888373815, 2.289431684090232, 2.3067731033734162]
32	animate/a39.jpg	inanimate	animate	right	1.085	[0.0, 0.0, 0.0, 0.0, 0.0, 0.0, 0.0, 0.0, 0.0, 0.0, 0.0, 0.0, 1.0, 1.0, 1.0, 2.0, 4.0, 4.0, 4.0, 7.0, 7.0, 6.0, 6.0, 6.0, 6.0, 6.0, 6.0, 6.0, 6.0, 6.0, 6.0, 0.0, -7.0, -14.0, -24.0, -35.0, -52.0, -81.0, -116.0, -178.0, -233.0, -292.0, -343.0, -385.0, -413.0, -431.0, -450.0, -469.0, -487.0, -498.0, -502.0, -502.0, -486.0, -387.0, -269.0, -126.0, 60.0, 264.0, 439.0, 576.0, 665.0, 697.0, 701.0, 701.0, 701.0]	[-490.0, -490.0, -490.0, -490.0, -490.0, -490.0, -490.0, -490.0, -490.0, -490.0, -490.0, -490.0, -490.0, -488.0, -485.0, -482.0, -477.0, -474.0, -473.0, -480.0, -491.0, -494.0, -494.0, -494.0, -494.0, -502.0, -502.0, -503.0, -504.0, -504.0, -503.0, -495.0, -484.0, -470.0, -453.0, -437.0, -420.0, -394.0, -363.0, -302.0, -249.0, -199.0, -154.0, -123.0, -100.0, -85.0, -68.0, -51.0, -32.0, -15.0, 0.0, 18.0, 43.0, 132.0, 208.0, 271.0, 325.0, 372.0, 414.0, 450.0, 477.0, 486.0, 489.0, 489.0, 489.0]	[0.006929536248208024, 0.013033251620072406, 0.02817512152978452, 0.04505710669764085, 0.06146395643008873, 0.07854425602272386, 0.09460294617019827, 0.11186278688546736, 0.12857786024687812, 0.1451867790747201, 0.16142330367438262, 0.17852510724333115, 0.19524359393835766, 0.21255907192244194, 0.22810234934877371, 0.24524067554011708, 0.2617103305310593, 0.2783643053044216, 0.2949694694689242, 0.3119449798541609, 0.3281849177874392, 0.34507475360442186, 0.3639992749958765, 0.37850046300445683, 0.39760384285182226, 0.41179885522433324, 0.42901978398731444, 0.4452307086176006, 0.4615921610748046, 0.4780911706984625, 0.4976454513380304, 0.5117237278536777, 0.5311896032653749, 0.5449733094646945, 0.5641425665598945, 0.5783181229562615, 0.595218540103815, 0.6113919181152596, 0.6295696030647377, 0.6450060432907776, 0.66210306819994, 0.678418440707901, 0.6952178233041195, 0.7117386782338144, 0.7285189461836126, 0.7448807399705402, 0.7619180316178245, 0.7783006467143423, 0.7952078905145754, 0.8115946016041562, 0.8285059414047282, 0.8449612604090362, 0.8618531442261883, 0.8782163033465622, 0.8951631417658064, 0.9116679540529731, 0.9284902059516753, 0.944957812949724, 0.9618165874708211, 0.9782961411183351, 0.9952163555717561, 1.0116573385967058, 1.028565265063662, 1.0447468350685085, 1.0618476146337343]
33	inanimate/n4.jpg	inanimate	animate	left	0.899	[0.0, 0.0, 0.0, 0.0, 0.0, 0.0, 0.0, 1.0, 3.0, 3.0, 7.0, 10.0, 10.0, 10.0, 10.0, 10.0, 10.0, 10.0, 10.0, 10.0, 13.0, 13.0, 13.0, 13.0, 11.0, 5.0, 2.0, 0.0, -6.0, -16.0, -28.0, -45.0, -68.0, -94.0, -125.0, -155.0, -207.0, -239.0, -266.0, -289.0, -305.0, -323.0, -340.0, -360.0, -382.0, -410.0, -446.0, -493.0, -548.0, -637.0, -691.0, -725.0, -727.0, -727.0]	[-490.0, -490.0, -490.0, -490.0, -490.0, -490.0, -489.0, -488.0, -488.0, -487.0, -483.0, -476.0, -475.0, -475.0, -475.0, -475.0, -475.0, -475.0, -475.0, -475.0, -477.0, -477.0, -476.0, -476.0, -476.0, -472.0, -467.0, -461.0, -450.0, -431.0, -407.0, -369.0, -332.0, -293.0, -251.0, -214.0, -169.0, -143.0, -112.0, -91.0, -78.0, -66.0, -55.0, -45.0, -33.0, -16.0, 17.0, 69.0, 133.0, 239.0, 308.0, 355.0, 358.0, 358.0]	[0.01635442099359352, 0.022268696593528148, 0.029402213403955102, 0.049005645989382174, 0.06334777285519522, 0.08204257718898589, 0.09645092263963306, 0.11544166261592181, 0.12972712821647292, 0.1462019032042008, 0.16304736574966228, 0.18019934525364079, 0.19657479236047948, 0.21296286878350656, 0.2295175156687037, 0.24652579402027186, 0.262944590402185, 0.2825725989532657, 0.2962911105641979, 0.3158232045607292, 0.3296130547532812, 0.3491260341106681, 0.3629370469425339, 0.38252921553794295, 0.39629517242428847, 0.41569653591432143, 0.42974375113408314, 0.44877101373276673, 0.4627881916530896, 0.48107817513664486, 0.4959947653187555, 0.5137177948126919, 0.5296338077969267, 0.5467137660598382, 0.5629263973605703, 0.5799855343138915, 0.5962561922060559, 0.6132088332888088, 0.6296610802965006, 0.646554329447099, 0.6629396752105094, 0.6799052869391744, 0.6961923288181424, 0.7130439353495603, 0.7296122355546686, 0.7465570259810193, 0.7630021049990319, 0.7797106930374866, 0.7964322517291293, 0.8131923810360604, 0.8294661109321169, 0.8465225172185455, 0.8627440231721266, 0.8797239708874258]
34	inanimate/n30.jpg	animate	inanimate	right	2.163	[0.0, 0.0, 0.0, 0.0, 0.0, 0.0, 0.0, 0.0, 0.0, 0.0, 0.0, 3.0, 8.0, 11.0, 15.0, 18.0, 26.0, 32.0, 32.0, 32.0, 32.0, 32.0, 32.0, 32.0, 33.0, 37.0, 37.0, 34.0, 26.0, 15.0, 7.0, 1.0, -7.0, -19.0, -38.0, -66.0, -102.0, -172.0, -203.0, -265.0, -350.0, -401.0, -436.0, -464.0, -487.0, -508.0, -525.0, -538.0, -546.0, -553.0, -555.0, -561.0, -567.0, -567.0, -567.0, -567.0, -567.0, -567.0, -567.0, -567.0, -567.0, -567.0, -567.0, -567.0, -567.0, -567.0, -567.0, -567.0, -567.0, -567.0, -567.0, -567.0, -567.0, -567.0, -567.0, -567.0, -567.0, -565.0, -562.0, -552.0, -549.0, -549.0, -549.0, -549.0, -549.0, -549.0, -549.0, -549.0, -549.0, -529.0, -517.0, -505.0, -498.0, -495.0, -494.0, -494.0, -494.0, -494.0, -493.0, -489.0, -472.0, -374.0, -240.0, -100.0, 75.0, 245.0, 406.0, 526.0, 602.0, 626.0, 632.0, 632.0, 632.0, 632.0, 632.0, 632.0, 632.0, 632.0, 632.0, 632.0, 628.0, 622.0, 619.0, 619.0, 619.0, 635.0, 657.0, 679.0, 696.0, 706.0]	[-490.0, -490.0, -490.0, -490.0, -490.0, -490.0, -490.0, -490.0, -489.0, -488.0, -486.0, -485.0, -484.0, -484.0, -483.0, -482.0, -481.0, -489.0, -490.0, -490.0, -490.0, -490.0, -490.0, -490.0, -494.0, -501.0, -504.0, -507.0, -502.0, -492.0, -478.0, -462.0, -444.0, -415.0, -378.0, -337.0, -287.0, -214.0, -185.0, -134.0, -71.0, -42.0, -18.0, 1.0, 17.0, 33.0, 46.0, 58.0, 66.0, 73.0, 76.0, 85.0, 94.0, 94.0, 94.0, 94.0, 94.0, 94.0, 94.0, 94.0, 94.0, 94.0, 94.0, 94.0, 94.0, 94.0, 94.0, 94.0, 94.0, 94.0, 94.0, 94.0, 94.0, 94.0, 94.0, 95.0, 95.0, 96.0, 97.0, 92.0, 89.0, 89.0, 89.0, 89.0, 89.0, 89.0, 89.0, 89.0, 89.0, 69.0, 61.0, 57.0, 52.0, 50.0, 50.0, 50.0, 50.0, 50.0, 50.0, 50.0, 58.0, 80.0, 108.0, 146.0, 199.0, 246.0, 287.0, 328.0, 359.0, 371.0, 373.0, 373.0, 373.0, 373.0, 373.0, 373.0, 373.0, 373.0, 373.0, 373.0, 373.0, 371.0, 369.0, 369.0, 369.0, 371.0, 379.0, 389.0, 396.0, 401.0]	[0.012526713566330727, 0.018321863979508635, 0.02300938904954819, 0.04038152829161845, 0.05667949282360496, 0.0737164431338897, 0.09019121812161757, 0.10707729928253684, 0.12337560514424695, 0.1403709128353512, 0.1568388611631235, 0.17358772648731247, 0.18994440028473036, 0.20700387856777525, 0.2232967231029761, 0.24036746537603904, 0.25656200602679746, 0.27371398553805193, 0.28994539014820475, 0.3070489003803232, 0.3232195477321511, 0.3404630044606165, 0.3565496839073603, 0.37371395140507957, 0.38993204403232085, 0.40705398624413647, 0.423290510843799, 0.44026499723258894, 0.45656774042436155, 0.47374600256443955, 0.4899258659061161, 0.5072229119032272, 0.5234239378842176, 0.5404216349124908, 0.5566810288219131, 0.5737251471218769, 0.5902794526846264, 0.606984968726465, 0.6235461009418941, 0.640550624622847, 0.6594983566537849, 0.6736947343597421, 0.692850338142307, 0.7070992811204633, 0.7258172960937372, 0.7403345267521217, 0.757456810293661, 0.773831233396777, 0.7904971548196045, 0.8070214230829151, 0.8236136165942298, 0.840278172683611, 0.8566672731030849, 0.8733741544783697, 0.8927741526349564, 0.9066667440347373, 0.9243389149269206, 0.939985957564204, 0.9573205501874327, 0.973464232236438, 0.9910855445195921, 1.0067418031467241, 1.0237019535488798, 1.04015863789391, 1.057067588357313, 1.0735645499808015, 1.0902751860194257, 1.1068049156019697, 1.123787935313885, 1.1401582624239381, 1.1570160129558644, 1.1732822335179662, 1.1903550237911986, 1.2066335323470412, 1.2236660453272634, 1.2399527458692319, 1.2570132481559995, 1.273197890157462, 1.290385026957665, 1.3065894662649953, 1.3236619152012281, 1.339894002478104, 1.3571388245400158, 1.3732319893169915, 1.3904157127835788, 1.406616056097846, 1.4237301476532593, 1.4398922616746859, 1.4570814464750583, 1.4732186431938317, 1.4903887133477838, 1.5065791580054793, 1.5237116815405898, 1.5398867662152043, 1.5570831190052559, 1.5732240703873686, 1.5903992605381063, 1.6065859505324624, 1.623801759298658, 1.6398990200686967, 1.6571298474809737, 1.673240420233924, 1.6903954717417946, 1.7065992283824016, 1.7237467705635936, 1.7399112739221891, 1.757079978742695, 1.7732284394514863, 1.7904015816020546, 1.8067681540487683, 1.823638533896883, 1.840224924744689, 1.8570144086916116, 1.8759085514466278, 1.890315190241381, 1.9068674477966852, 1.9238747021445306, 1.94015423469682, 1.957050214514311, 1.9738994317158358, 1.990386836019752, 2.0090727656934178, 2.023709121545835, 2.04015693123074, 2.0569692844728706, 2.074241754504328, 2.0905018310804735, 2.106892979500117, 2.12377428200125, 2.140123446464713]
35	animate/a29.jpg	inanimate	animate	right	1.331	[0.0, 0.0, 0.0, 0.0, 0.0, 0.0, 0.0, 0.0, -1.0, -2.0, -2.0, -4.0, -4.0, -5.0, -5.0, -5.0, -5.0, -5.0, -5.0, -6.0, -6.0, -6.0, -7.0, -8.0, -4.0, 0.0, 0.0, 0.0, 0.0, 0.0, 0.0, 0.0, 0.0, 0.0, 0.0, -8.0, -20.0, -23.0, -34.0, -57.0, -104.0, -166.0, -240.0, -323.0, -457.0, -504.0, -602.0, -614.0, -627.0, -622.0, -586.0, -495.0, -350.0, -173.0, 31.0, 240.0, 408.0, 544.0, 619.0, 633.0, 633.0, 633.0, 633.0, 633.0, 633.0, 633.0, 633.0, 633.0, 633.0, 633.0, 633.0, 633.0, 633.0, 633.0, 638.0, 650.0, 666.0, 679.0, 687.0]	[-490.0, -490.0, -490.0, -490.0, -490.0, -490.0, -490.0, -490.0, -490.0, -490.0, -490.0, -489.0, -488.0, -486.0, -485.0, -485.0, -485.0, -481.0, -472.0, -469.0, -469.0, -469.0, -469.0, -469.0, -475.0, -477.0, -477.0, -477.0, -477.0, -477.0, -477.0, -477.0, -477.0, -477.0, -477.0, -474.0, -458.0, -434.0, -394.0, -352.0, -289.0, -219.0, -151.0, -76.0, 48.0, 87.0, 170.0, 184.0, 223.0, 244.0, 265.0, 295.0, 334.0, 378.0, 428.0, 466.0, 497.0, 520.0, 529.0, 532.0, 532.0, 532.0, 532.0, 532.0, 532.0, 532.0, 532.0, 532.0, 532.0, 532.0, 532.0, 532.0, 532.0, 532.0, 527.0, 510.0, 496.0, 485.0, 479.0]	[0.016456138204375748, 0.02444674199068686, 0.031122190011956263, 0.04786627667635912, 0.06481516309577273, 0.08110869029769674, 0.09812311263522133, 0.11433608526567696, 0.13153209672600497, 0.1477099120602361, 0.16480727830639808, 0.1810670135455439, 0.1982261610464775, 0.2143626750985277, 0.2316034011746524, 0.2476887152879499, 0.2648557134452858, 0.28102670212683734, 0.29815956699167145, 0.31436537163244793, 0.33150438049051445, 0.3478798275900772, 0.36477990340063116, 0.38385426995228045, 0.39820970880100504, 0.41732264596794266, 0.4314609970751917, 0.4505957795481663, 0.46481434389716014, 0.48294458357122494, 0.4982072853381396, 0.5171864199946867, 0.5315295708569465, 0.5490204939633259, 0.5649170509714168, 0.5811866848671343, 0.5977874117015745, 0.617769723830861, 0.6311318838706939, 0.6507759350643028, 0.6644667987129651, 0.6842269031039905, 0.6979597507015569, 0.7173297115587047, 0.7313605427916627, 0.7503625467579695, 0.7646111484064022, 0.7819539330230327, 0.7979423085853341, 0.815148901361681, 0.8313932766250218, 0.8481097153198789, 0.8645831249741605, 0.8815436167133157, 0.897886295853823, 0.91520928315731, 0.9312225760295405, 0.9481895530916518, 0.9646151761335204, 0.9814357213690528, 0.9979203950133524, 1.014908193385054, 1.031145059321716, 1.0481512896658387, 1.0643263743477291, 1.0814848391819396, 1.0979483501796494, 1.1148784632823663, 1.1312276277531055, 1.1481939221484936, 1.1645700519220554, 1.181434970436385, 1.197886876121629, 1.214828253214364, 1.231361054793524, 1.2481222081041778, 1.2645372498300276, 1.281447565626877, 1.2977421168252476]
36	inanimate/n38.jpg	animate	inanimate	right	1.012	[0.0, 0.0, 0.0, 0.0, 0.0, 2.0, 3.0, 4.0, 4.0, 4.0, 4.0, 5.0, 5.0, 5.0, 5.0, 5.0, 5.0, 5.0, 10.0, 12.0, 13.0, 14.0, 14.0, 13.0, 10.0, 9.0, 0.0, -6.0, -16.0, -34.0, -58.0, -92.0, -135.0, -178.0, -223.0, -274.0, -320.0, -358.0, -382.0, -404.0, -419.0, -436.0, -448.0, -457.0, -458.0, -450.0, -432.0, -415.0, -384.0, -321.0, -130.0, 48.0, 236.0, 424.0, 609.0, 781.0, 918.0, 959.0, 959.0, 959.0, 959.0]	[-490.0, -490.0, -490.0, -490.0, -490.0, -490.0, -490.0, -488.0, -486.0, -482.0, -480.0, -479.0, -479.0, -479.0, -479.0, -479.0, -479.0, -479.0, -481.0, -483.0, -489.0, -490.0, -490.0, -489.0, -482.0, -480.0, -463.0, -447.0, -426.0, -402.0, -370.0, -336.0, -300.0, -265.0, -228.0, -185.0, -144.0, -111.0, -91.0, -67.0, -48.0, -25.0, -6.0, 19.0, 35.0, 46.0, 64.0, 81.0, 104.0, 126.0, 176.0, 222.0, 267.0, 312.0, 354.0, 400.0, 449.0, 486.0, 508.0, 513.0, 513.0]	[0.0018328212754568085, 0.008367640133656096, 0.018534582653956022, 0.03552647702599643, 0.0526340832511778, 0.0687562613238697, 0.0859171154879732, 0.10204953354696045, 0.11914007313316688, 0.13534758443711326, 0.15252891858108342, 0.16868932593934005, 0.18587816940271296, 0.2020273127782275, 0.2191990895953495, 0.2353663236135617, 0.25260227102262434, 0.26877667303051567, 0.2859467431844678, 0.3020651666010963, 0.3193171566526871, 0.3354140760930022, 0.35246945838298416, 0.3689729053294286, 0.3858589864903479, 0.4022112229577033, 0.4192631919213454, 0.43797335623094114, 0.45248444289609324, 0.4690558150978177, 0.48594940558541566, 0.5042025251095765, 0.5192331204889342, 0.538096884622064, 0.552447886140726, 0.569407012546435, 0.5858691582106985, 0.6021213841304416, 0.6189743559953058, 0.635619456115819, 0.652291521524603, 0.6687195339036407, 0.6855974230711581, 0.7022548111708602, 0.7190828657330712, 0.7356122539858916, 0.7524194872385124, 0.7689225928625092, 0.7856383488906431, 0.8022974436535151, 0.8190920475899475, 0.835615633186535, 0.8524508557384252, 0.8691430597973522, 0.8857396906387294, 0.902324716153089, 0.9190278428650345, 0.9356459776827251, 0.9523241870920174, 0.9689580232152366, 0.9855440727333189]
37	animate/a10.jpg	animate	inanimate	left	1.666	[0.0, 0.0, 0.0, 0.0, 0.0, 0.0, 0.0, 0.0, 0.0, 0.0, 0.0, 0.0, 0.0, 0.0, 0.0, 0.0, 0.0, 0.0, 3.0, 5.0, 6.0, 6.0, 2.0, -5.0, -14.0, -25.0, -37.0, -37.0, -37.0, -37.0, -37.0, -37.0, -37.0, -37.0, -37.0, -36.0, -35.0, -32.0, -32.0, -32.0, -35.0, -37.0, -44.0, -53.0, -68.0, -95.0, -143.0, -240.0, -322.0, -401.0, -480.0, -535.0, -560.0, -570.0, -570.0, -566.0, -551.0, -529.0, -507.0, -477.0, -477.0, -477.0, -477.0, -477.0, -477.0, -477.0, -477.0, -477.0, -478.0, -478.0, -478.0, -480.0, -481.0, -481.0, -481.0, -478.0, -476.0, -476.0, -476.0, -476.0, -475.0, -474.0, -474.0, -474.0, -474.0, -474.0, -474.0, -474.0, -474.0, -474.0, -474.0, -474.0, -473.0, -486.0, -496.0, -562.0, -622.0, -697.0, -745.0, -759.0]	[-490.0, -490.0, -490.0, -490.0, -490.0, -490.0, -490.0, -490.0, -490.0, -490.0, -490.0, -490.0, -490.0, -489.0, -488.0, -484.0, -477.0, -465.0, -446.0, -419.0, -395.0, -370.0, -347.0, -326.0, -317.0, -317.0, -330.0, -330.0, -330.0, -330.0, -330.0, -330.0, -330.0, -330.0, -330.0, -333.0, -334.0, -334.0, -331.0, -321.0, -308.0, -294.0, -278.0, -257.0, -228.0, -185.0, -128.0, -51.0, -7.0, 30.0, 58.0, 74.0, 87.0, 93.0, 93.0, 95.0, 95.0, 95.0, 95.0, 84.0, 83.0, 83.0, 83.0, 83.0, 83.0, 83.0, 83.0, 83.0, 82.0, 82.0, 82.0, 82.0, 83.0, 85.0, 87.0, 87.0, 88.0, 88.0, 89.0, 90.0, 90.0, 91.0, 91.0, 91.0, 91.0, 91.0, 91.0, 91.0, 91.0, 91.0, 91.0, 91.0, 94.0, 128.0, 158.0, 288.0, 394.0, 493.0, 540.0, 540.0]	[0.0001346899662166834, 0.005103814692120068, 0.013754897692706436, 0.03135607133299345, 0.047422953466593754, 0.06362944077409338, 0.0805336125777103, 0.09994419205759186, 0.1138739887464908, 0.13145604774763342, 0.14706554376607528, 0.16539990052842768, 0.18033697068312904, 0.19748826752766035, 0.21401697311375756, 0.23173931994097074, 0.24721364811557578, 0.26511826673231553, 0.2805611922813114, 0.2975073480338324, 0.31389269378996687, 0.33081871090689674, 0.3470822008093819, 0.36416659640235594, 0.3805874407844385, 0.397452359298768, 0.41386808369134087, 0.4307736208284041, 0.4472555638058111, 0.46417304759233957, 0.48032150830113096, 0.49715195219323505, 0.5138100229596603, 0.5308613092565793, 0.5469657380162971, 0.5640982615441317, 0.5806088764875312, 0.597475160342583, 0.6139588099831599, 0.6307930085386033, 0.6472432075534016, 0.6640630701222108, 0.680362058650644, 0.6974130036105635, 0.7136338269046973, 0.730484068102669, 0.7474251038656803, 0.7637295537206228, 0.7808900665550027, 0.7973662068689009, 0.814240341380355, 0.8304109887249069, 0.8475622855694382, 0.8638667354243807, 0.8807674939016579, 0.8971729783006595, 0.9141942272981396, 0.9305365651089232, 0.9474499529023888, 0.9638643119615153, 0.980870542312914, 0.9971753334975801, 1.0142628010871704, 1.0304969363569398, 1.0475734812862356, 1.0638332165326574, 1.0809537934110267, 1.0972780405718368, 1.1145027239981573, 1.130376070366765, 1.1477973615546944, 1.1638598063655081, 1.1812251189548988, 1.1970288334050565, 1.2143818580079824, 1.2305426067032386, 1.2476512369321426, 1.263882982872019, 1.281065341012436, 1.2972103883876116, 1.3170664073331864, 1.3303565461246762, 1.3504474021247006, 1.3638505221097148, 1.3839563967558206, 1.3972554102001595, 1.4168055948466645, 1.4305896423757076, 1.4499101099645486, 1.4638958852592623, 1.4816725040218444, 1.4972342134278733, 1.5151951519728755, 1.530297085926577, 1.5476333852202515, 1.5640422829455929, 1.5806959163819556, 1.597251928607875, 1.6142178816735395, 1.630561926147493]
38	inanimate/n68.jpg	animate	inanimate	right	1.031	[0.0, 0.0, 0.0, 0.0, 0.0, 0.0, 0.0, -1.0, -1.0, -1.0, -1.0, -1.0, -1.0, -2.0, -2.0, -3.0, -3.0, -3.0, -3.0, -3.0, -3.0, -3.0, -3.0, -3.0, -4.0, -4.0, -4.0, -4.0, -4.0, -4.0, -5.0, -5.0, -6.0, -10.0, -13.0, -24.0, -29.0, -52.0, -70.0, -94.0, -115.0, -138.0, -147.0, -150.0, -146.0, -117.0, -73.0, 1.0, 172.0, 297.0, 407.0, 498.0, 584.0, 669.0, 747.0, 830.0, 915.0, 959.0, 959.0, 959.0, 959.0, 959.0]	[-490.0, -490.0, -490.0, -490.0, -490.0, -490.0, -490.0, -490.0, -490.0, -490.0, -489.0, -488.0, -485.0, -481.0, -477.0, -475.0, -473.0, -472.0, -471.0, -469.0, -467.0, -466.0, -464.0, -463.0, -461.0, -460.0, -458.0, -457.0, -456.0, -455.0, -454.0, -453.0, -451.0, -440.0, -434.0, -417.0, -411.0, -392.0, -379.0, -361.0, -344.0, -321.0, -304.0, -284.0, -260.0, -218.0, -170.0, -96.0, 59.0, 127.0, 189.0, 228.0, 264.0, 294.0, 324.0, 358.0, 390.0, 441.0, 453.0, 475.0, 477.0, 478.0]	[0.005617179427645169, 0.01281418416328961, 0.025592664896976203, 0.04266238317359239, 0.0591617341269739, 0.07601811931817792, 0.09245056902000215, 0.1094591887012939, 0.1258250784885604, 0.14266098370717373, 0.15913985468796454, 0.1760853277737624, 0.19253552678856067, 0.20922841351421084, 0.2255632419983158, 0.2427288748222054, 0.25892751147330273, 0.27599825374636566, 0.29222761035634903, 0.30942908313591033, 0.32555706387211103, 0.3427383980160812, 0.35894590932002757, 0.376062390198058, 0.3922504455258604, 0.4093648784182733, 0.4255502030791831, 0.4428025344677735, 0.4590141417720588, 0.4761459826331702, 0.49225450739322696, 0.5095187854312826, 0.5256071715484723, 0.542604527239746, 0.5590369769415702, 0.576133660513733, 0.5923346864947234, 0.6094074767679558, 0.6257839478639653, 0.6429250047222013, 0.6617215262667742, 0.6759848052242887, 0.694859492010437, 0.7093323493900243, 0.7280978096387116, 0.7426676055620192, 0.7592369297708501, 0.7760404083601316, 0.7922707889738376, 0.8090851902161376, 0.8256319864522084, 0.8424084997386672, 0.8619969136707368, 0.8758342091387021, 0.8951509220642038, 0.9091486440083827, 0.9284305409746594, 0.9423767216430861, 0.9605960492117447, 0.9758406603359617, 0.9930380371224601, 1.0092219964499236]
39	inanimate/n3.jpg	inanimate	animate	left	1.012	[0.0, 0.0, 0.0, 0.0, 0.0, 0.0, 0.0, 0.0, 0.0, 0.0, 0.0, 0.0, 1.0, 3.0, 4.0, 6.0, 12.0, 16.0, 21.0, 21.0, 21.0, 21.0, 21.0, 22.0, 22.0, 22.0, 25.0, 26.0, 26.0, 23.0, 17.0, 11.0, 1.0, -11.0, -34.0, -88.0, -143.0, -198.0, -254.0, -311.0, -364.0, -412.0, -437.0, -452.0, -463.0, -468.0, -473.0, -473.0, -464.0, -448.0, -435.0, -426.0, -425.0, -432.0, -460.0, -516.0, -592.0, -675.0, -763.0, -775.0, -775.0]	[-490.0, -490.0, -490.0, -490.0, -490.0, -490.0, -490.0, -490.0, -490.0, -490.0, -490.0, -490.0, -488.0, -486.0, -486.0, -485.0, -483.0, -482.0, -486.0, -486.0, -486.0, -486.0, -486.0, -491.0, -491.0, -495.0, -497.0, -498.0, -498.0, -491.0, -481.0, -464.0, -435.0, -407.0, -362.0, -283.0, -219.0, -166.0, -120.0, -78.0, -49.0, -22.0, -5.0, 7.0, 27.0, 38.0, 58.0, 66.0, 84.0, 112.0, 139.0, 161.0, 182.0, 204.0, 240.0, 290.0, 341.0, 387.0, 439.0, 445.0, 445.0]	[0.016682441942975856, 0.0216423506863066, 0.031746146611112636, 0.048752376962511335, 0.06510836809320608, 0.08188931870972738, 0.09882898913929239, 0.11526587617117912, 0.1322789331752574, 0.14860386301006656, 0.16556537874566857, 0.18197734846762614, 0.19878253372735344, 0.21548122310923645, 0.23216011518525193, 0.2486335248395335, 0.26546157940174453, 0.28172575197095284, 0.2988186808870523, 0.3150702241327963, 0.33219284901133506, 0.3483283390669385, 0.36559329977899324, 0.3816789552292903, 0.39881762275035726, 0.4150459553638939, 0.4322713214496616, 0.4483443475837703, 0.46551544173416914, 0.4816799450927647, 0.49884318858676124, 0.5150466038976447, 0.5321818580923718, 0.548379812076746, 0.5655167729346431, 0.581676156296453, 0.598847933113575, 0.6150008311524289, 0.6322128852552851, 0.6485238204331836, 0.6655792027304415, 0.6818570286122849, 0.6987571044228389, 0.7151854581316002, 0.7321312725543976, 0.7485241276372108, 0.765578485930746, 0.7819525676968624, 0.7988847288070247, 0.817840994161088, 0.8322141823227867, 0.8509605279250536, 0.8654296306413016, 0.8829219190738513, 0.8987829774632701, 0.9160445248344331, 0.9321097003121395, 0.9487640164152253, 0.9655111750762444, 0.9820391979956185, 0.998689759435365]
