trialIndex	stimulus	isAnimate	left_option	right_option	response	response_time	xTrajectory	yTrajectory	tTrajectory
0	鲨鱼	True	animate	inanimate	left	1.629	[0.0, 0.0, 0.0, 0.0, 0.0, 0.0, 0.0, 0.0, 0.0, 0.0, 0.0, 0.0, 0.0, 0.0, 0.0, 0.0, 0.0, 0.0, 0.0, 0.0, 0.0, 0.0, 0.0, 0.0, 0.0, 0.0, 0.0, 0.0, 0.0, 0.0, 0.0, 0.0, 0.0, 0.0, 0.0, 0.0, 0.0, 0.0, 0.0, 0.0, 0.0, 0.0, 0.0, 0.0, 0.0, 0.0, 0.0, 0.0, 0.0, 0.0, 0.0, 0.0, 0.0, 0.0, 0.0, 0.0, 0.0, 0.0, 0.0, 0.0, 44.0, 116.0, 195.0, 282.0, 360.0, 434.0, 468.0, 479.0, 468.0, 451.0, 323.0, 191.0, 36.0, -163.0, -381.0, -598.0, -756.0, -871.0, -941.0, -960.0, -960.0, -960.0, -960.0, -960.0, -960.0, -960.0, -960.0, -960.0, -960.0, -960.0, -943.0, -903.0, -888.0, -870.0, -857.0, -856.0, -856.0]	[-490.0, -490.0, -490.0, -490.0, -490.0, -490.0, -490.0, -490.0, -490.0, -490.0, -490.0, -490.0, -490.0, -490.0, -490.0, -490.0, -490.0, -490.0, -490.0, -490.0, -490.0, -490.0, -490.0, -490.0, -490.0, -490.0, -490.0, -490.0, -490.0, -490.0, -490.0, -490.0, -490.0, -490.0, -490.0, -490.0, -490.0, -490.0, -490.0, -490.0, -490.0, -490.0, -490.0, -490.0, -490.0, -490.0, -490.0, -490.0, -490.0, -490.0, -490.0, -490.0, -490.0, -490.0, -490.0, -490.0, -490.0, -490.0, -490.0, -484.0, -444.0, -381.0, -309.0, -226.0, -132.0, -46.0, 13.0, 44.0, 77.0, 93.0, 144.0, 182.0, 205.0, 230.0, 257.0, 273.0, 279.0, 289.0, 298.0, 305.0, 307.0, 308.0, 308.0, 308.0, 308.0, 308.0, 308.0, 308.0, 308.0, 316.0, 332.0, 364.0, 371.0, 386.0, 400.0, 402.0, 402.0]	[0.005488568916916847, 0.011068000720115378, 0.026694915373809636, 0.04424967971863225, 0.06134159630164504, 0.07627731133834459, 0.09460656062583439, 0.11112981615588069, 0.1266041549097281, 0.14428077518823557, 0.16129418514901772, 0.17621931881876662, 0.19453832812723704, 0.21110390897956677, 0.22651885575032793, 0.24445864389417693, 0.2613276699266862, 0.276040835713502, 0.2945209542522207, 0.31112920175655745, 0.3265175245469436, 0.3442678728024475, 0.36123281344771385, 0.37674026150489226, 0.3945824283582624, 0.41115039854776114, 0.4265155106841121, 0.44441331483540125, 0.4612591302138753, 0.4762856398592703, 0.49454355050693266, 0.5110405234154314, 0.5264977954793721, 0.5444113009725697, 0.5612840816902462, 0.5762638286687434, 0.594558603304904, 0.6111091655038763, 0.6265097762807272, 0.64444649242796, 0.6612984517996665, 0.6763212067889981, 0.69455044544884, 0.7109317063877825, 0.7265029837435577, 0.744540051848162, 0.761289952613879, 0.776755758037325, 0.7946163568703923, 0.8110914844437502, 0.8265501218556892, 0.8444451953691896, 0.8613480133644771, 0.8763410723768175, 0.894515015068464, 0.91117548654438, 0.9265754146617837, 0.9442448669287842, 0.9613234715361614, 0.9763452025072183, 0.9945495238353033, 1.0111366086930502, 1.0265259554726072, 1.0444879302813206, 1.061161031073425, 1.0763288526504766, 1.0944870940002147, 1.1110410695255268, 1.1264887842989992, 1.1443213938327972, 1.1612631238240283, 1.1767637452285271, 1.194466648157686, 1.2109823943756055, 1.22653182639624, 1.2443381532793865, 1.2611436913430225, 1.2763780728855636, 1.2944393756333739, 1.3109793564944994, 1.3265646285144612, 1.3443214620929211, 1.3612341787666082, 1.3762603470822796, 1.3944776390853804, 1.410870846681064, 1.426504246686818, 1.444455298827961, 1.461235236900393, 1.475987656012876, 1.4944111132645048, 1.5109920540999155, 1.5265206648036838, 1.5440907891606912, 1.5611567644227762, 1.576779924420407, 1.5945217393164057]
1	信封	False	inanimate	animate	left	1.399	[0.0, 0.0, 0.0, 0.0, 0.0, 0.0, 0.0, 0.0, 0.0, 0.0, 0.0, 0.0, 0.0, 1.0, 1.0, 1.0, 1.0, 1.0, 2.0, 2.0, 2.0, 2.0, 2.0, 2.0, 2.0, 2.0, 2.0, 2.0, 2.0, 2.0, 2.0, 2.0, 2.0, 2.0, 2.0, 3.0, 3.0, 7.0, 18.0, 36.0, 63.0, 82.0, 98.0, 127.0, 162.0, 187.0, 261.0, 304.0, 346.0, 388.0, 438.0, 491.0, 534.0, 568.0, 596.0, 611.0, 614.0, 614.0, 580.0, 512.0, 390.0, 226.0, 16.0, -209.0, -435.0, -603.0, -741.0, -846.0, -857.0, -857.0, -857.0, -857.0, -857.0, -857.0, -859.0, -860.0, -860.0, -860.0, -860.0, -860.0, -859.0, -859.0, -859.0, -859.0]	[-490.0, -490.0, -490.0, -490.0, -490.0, -490.0, -490.0, -490.0, -490.0, -490.0, -490.0, -490.0, -490.0, -490.0, -490.0, -490.0, -490.0, -490.0, -490.0, -490.0, -490.0, -490.0, -489.0, -488.0, -488.0, -488.0, -487.0, -487.0, -487.0, -487.0, -486.0, -485.0, -484.0, -484.0, -482.0, -480.0, -478.0, -470.0, -454.0, -429.0, -395.0, -377.0, -367.0, -345.0, -316.0, -296.0, -230.0, -194.0, -145.0, -94.0, -35.0, 26.0, 80.0, 129.0, 179.0, 223.0, 269.0, 281.0, 324.0, 358.0, 397.0, 436.0, 463.0, 502.0, 537.0, 540.0, 540.0, 540.0, 540.0, 540.0, 540.0, 540.0, 540.0, 540.0, 540.0, 536.0, 530.0, 523.0, 512.0, 496.0, 491.0, 490.0, 490.0, 490.0]	[0.0008273233252111822, 0.005505976936547086, 0.016430344665423036, 0.03500432983855717, 0.05139992677140981, 0.06683296419214457, 0.08479937634547241, 0.10156429576454684, 0.11633070951211266, 0.1346807801455725, 0.1514661795226857, 0.16686542498064227, 0.18474309050361626, 0.2015476045489777, 0.2166201941727195, 0.23485557685489766, 0.2512822350836359, 0.2667736404982861, 0.2848042232799344, 0.3015845026820898, 0.31657414833898656, 0.33487472563865595, 0.35137135718832724, 0.366805077297613, 0.3847097081306856, 0.4015777101449203, 0.4165707691281568, 0.4348406264616642, 0.4513785593153443, 0.4668621140590403, 0.4847466062346939, 0.5015077709686011, 0.5167281578469556, 0.5348171085934155, 0.5514540280855726, 0.5667491669009905, 0.5845292111334857, 0.6016231757239439, 0.6163407788553741, 0.6347860814130399, 0.651257112971507, 0.6667707050219178, 0.6845879545726348, 0.7014795085997321, 0.7165490262268577, 0.7347990862035658, 0.7511943418066949, 0.7668349097948521, 0.7846490873489529, 0.8015324493753724, 0.816626201645704, 0.8347028643765952, 0.8512749305809848, 0.8667677013145294, 0.8846252281509805, 0.901517464837525, 0.9163873025681823, 0.9346991438651457, 0.9513316260126885, 0.9668206420610659, 0.984629699611105, 1.0015680162759963, 1.0163419393938966, 1.0347237539826892, 1.051362721453188, 1.0668367188773118, 1.0846259790996555, 1.1014557518064976, 1.1163450455060229, 1.1346114895131905, 1.1510343930858653, 1.1667596117185894, 1.1846372772124596, 1.2015527245530393, 1.216330402327003, 1.234765123546822, 1.2513330937363207, 1.2668009471381083, 1.2849192525318358, 1.3016107853327412, 1.3166707456111908, 1.3348132856772281, 1.3510866853175685, 1.3668054186273366]
2	钢笔	False	animate	inanimate	right	1.035	[0.0, 0.0, 0.0, 0.0, 0.0, 0.0, 0.0, 0.0, 0.0, 0.0, 0.0, 0.0, 0.0, 0.0, 0.0, 0.0, 0.0, 0.0, 0.0, 1.0, 1.0, 4.0, 8.0, 10.0, 13.0, 16.0, 19.0, 22.0, 32.0, 43.0, 60.0, 76.0, 90.0, 109.0, 158.0, 178.0, 225.0, 293.0, 334.0, 358.0, 441.0, 489.0, 540.0, 591.0, 638.0, 671.0, 699.0, 704.0, 707.0, 707.0, 697.0, 692.0, 672.0, 664.0, 663.0, 664.0, 673.0, 685.0, 699.0, 709.0, 712.0, 712.0]	[-490.0, -490.0, -490.0, -490.0, -490.0, -490.0, -489.0, -488.0, -486.0, -485.0, -485.0, -485.0, -485.0, -483.0, -482.0, -480.0, -479.0, -477.0, -475.0, -473.0, -468.0, -462.0, -451.0, -446.0, -442.0, -433.0, -425.0, -421.0, -398.0, -379.0, -357.0, -335.0, -317.0, -296.0, -244.0, -225.0, -182.0, -123.0, -87.0, -69.0, -11.0, 29.0, 73.0, 116.0, 153.0, 181.0, 215.0, 225.0, 241.0, 269.0, 293.0, 304.0, 341.0, 360.0, 378.0, 394.0, 409.0, 422.0, 433.0, 439.0, 442.0, 442.0]	[0.016708326380467042, 0.021755619789473712, 0.03166110804886557, 0.05014259190647863, 0.06651088219950907, 0.08189271966693923, 0.09993866243166849, 0.11674624847364612, 0.13178299812716432, 0.14994943147758022, 0.16655870297108777, 0.18193712711217813, 0.19970215266221203, 0.21673979729530402, 0.23148777906317264, 0.24982453769189306, 0.2666430464014411, 0.2819245319114998, 0.2996991148102097, 0.31668726610951126, 0.3315007838536985, 0.3500273237004876, 0.36657140057650395, 0.3819484593695961, 0.3998643541999627, 0.41670095355948433, 0.43178958585485816, 0.44994100055191666, 0.4665311574062798, 0.48188876020140015, 0.49983059635269456, 0.516729318362195, 0.5314517001679633, 0.5499464960303158, 0.5665110528643709, 0.5819478449702729, 0.5998002518317662, 0.6165719979035202, 0.6313722036720719, 0.6496215809893329, 0.6664462336921133, 0.6818703964818269, 0.6995671554177534, 0.7166426879994106, 0.7314077364571858, 0.7496888577588834, 0.7664575318340212, 0.781913097249344, 0.7997736961115152, 0.8165215488697868, 0.8316610397887416, 0.8498670677945483, 0.8661991767585278, 0.8819291740364861, 0.899690786289284, 0.9166376362845767, 0.9314101940544788, 0.9497104299953207, 0.9664381440961733, 0.981967096158769, 0.9997208577406127, 1.0166069504339248]
3	腰带	False	inanimate	animate	left	2.27	[0.0, -1.0, -1.0, -1.0, -1.0, -1.0, -1.0, -1.0, -1.0, -1.0, -1.0, -1.0, -1.0, -1.0, -1.0, -1.0, -1.0, -4.0, -20.0, -43.0, -67.0, -81.0, -83.0, -83.0, -83.0, -83.0, -83.0, -83.0, -83.0, -83.0, -83.0, -83.0, -83.0, -83.0, -83.0, -83.0, -83.0, -83.0, -83.0, -83.0, -83.0, -83.0, -83.0, -83.0, -83.0, -83.0, -83.0, -83.0, -83.0, -83.0, -83.0, -83.0, -83.0, -83.0, -83.0, -83.0, -83.0, -83.0, -83.0, -83.0, -83.0, -83.0, -83.0, -83.0, -83.0, -83.0, -83.0, -83.0, -83.0, -83.0, -83.0, -83.0, -83.0, -83.0, -83.0, -83.0, -83.0, -83.0, -83.0, -83.0, -83.0, -83.0, -83.0, -83.0, -83.0, -83.0, -83.0, -83.0, -83.0, -83.0, -83.0, -83.0, -83.0, -83.0, -83.0, -83.0, -83.0, -83.0, -83.0, -83.0, -83.0, -83.0, -83.0, -83.0, -83.0, -83.0, -83.0, -83.0, -83.0, -83.0, -89.0, -106.0, -216.0, -336.0, -472.0, -598.0, -697.0, -799.0, -878.0, -935.0, -960.0, -960.0, -960.0, -960.0, -960.0, -960.0, -960.0, -958.0, -942.0, -920.0, -901.0, -891.0, -886.0, -885.0, -885.0, -885.0, -885.0]	[-490.0, -490.0, -490.0, -490.0, -490.0, -490.0, -490.0, -490.0, -490.0, -490.0, -490.0, -490.0, -490.0, -490.0, -490.0, -490.0, -490.0, -490.0, -490.0, -491.0, -491.0, -491.0, -492.0, -492.0, -492.0, -492.0, -492.0, -492.0, -492.0, -492.0, -492.0, -492.0, -492.0, -492.0, -492.0, -492.0, -492.0, -492.0, -492.0, -492.0, -492.0, -492.0, -492.0, -492.0, -492.0, -492.0, -492.0, -492.0, -492.0, -492.0, -492.0, -492.0, -492.0, -492.0, -492.0, -492.0, -492.0, -492.0, -492.0, -492.0, -492.0, -492.0, -492.0, -492.0, -492.0, -492.0, -492.0, -492.0, -492.0, -492.0, -492.0, -492.0, -492.0, -492.0, -492.0, -492.0, -492.0, -492.0, -492.0, -492.0, -492.0, -492.0, -520.0, -520.0, -520.0, -520.0, -520.0, -520.0, -520.0, -520.0, -520.0, -520.0, -520.0, -520.0, -520.0, -520.0, -520.0, -520.0, -520.0, -520.0, -520.0, -520.0, -520.0, -520.0, -520.0, -520.0, -520.0, -520.0, -520.0, -510.0, -465.0, -426.0, -298.0, -204.0, -105.0, 6.0, 109.0, 199.0, 269.0, 321.0, 351.0, 368.0, 378.0, 379.0, 381.0, 381.0, 381.0, 386.0, 402.0, 437.0, 469.0, 488.0, 497.0, 499.0, 499.0, 500.0, 500.0]	[0.0069655175029765815, 0.011901877645868808, 0.0173761788464617, 0.030787158641032875, 0.04706601964426227, 0.06277485427563079, 0.08060780513915233, 0.09745600985479541, 0.11221320764161646, 0.13051992893451825, 0.14725822434411384, 0.16277522974996828, 0.18066893791547045, 0.19743453999399208, 0.21246958296978846, 0.230712816293817, 0.24706847724155523, 0.26281144519452937, 0.28067340937559493, 0.2975461900641676, 0.3121996225672774, 0.33056266384664923, 0.34733236191095784, 0.3627135167189408, 0.3806365795317106, 0.397441093577072, 0.4122170647024177, 0.4305999032803811, 0.4470869775104802, 0.46269307084730826, 0.48060589368105866, 0.4974325943912845, 0.5122447468165774, 0.530538838764187, 0.5473139981913846, 0.5627753662702162, 0.5806656611093786, 0.5974514018453192, 0.6122352236125153, 0.6306771128438413, 0.6471833017130848, 0.6627535550796892, 0.6806493112526368, 0.6974377826554701, 0.7122195564152207, 0.7306293603323866, 0.7470877625746652, 0.7627460798830725, 0.7806612920539919, 0.797417678142665, 0.8122018412395846, 0.830529042519629, 0.8472028259711806, 0.8627717140188906, 0.8806353848485742, 0.8974204429250676, 0.9122076780186035, 0.9306881379161496, 0.9473049187217839, 0.9626512575487141, 0.9806500963168219, 0.9974395917379297, 1.0122343361435924, 1.0305130681372248, 1.0473315768467728, 1.0627857769432012, 1.0805965411418583, 1.0974710285081528, 1.1124436075042468, 1.1306561208621133, 1.147288603009656, 1.162675560452044, 1.1806286606006324, 1.1974195213406347, 1.2124214549839962, 1.2306206563371234, 1.2470978318888228, 1.2626813972601667, 1.2807232440100051, 1.2974315021419898, 1.312204742571339, 1.330692711751908, 1.3472490766143892, 1.3627653993316926, 1.3806376035208814, 1.3974230029270984, 1.4122109207091853, 1.430558943306096, 1.4473235213954467, 1.462769870820921, 1.4806683576316573, 1.4974493197223637, 1.5122058348206338, 1.5306767373695038, 1.5473518861690536, 1.562868208886357, 1.580420925252838, 1.597415220545372, 1.6125065834785346, 1.6307269474782515, 1.647291845671134, 1.662727955088485, 1.6809114551288076, 1.6974695266399067, 1.7121908844274003, 1.7306464269931894, 1.7471918691881, 1.7627464212127961, 1.7805947320885025, 1.797406414145371, 1.8122096919105388, 1.8306594317837153, 1.8471608420077246, 1.8627143700432498, 1.8805640462378506, 1.897451504250057, 1.9122247446794063, 1.9305877859587781, 1.9471946681151167, 1.9627775507979095, 1.9804930830723606, 1.9974102370615583, 2.01219269350986, 2.030619905417552, 2.0472312248894013, 2.0626669930061325, 2.0805381731770467, 2.097441673860885, 2.1122640662651975, 2.130666019511409, 2.147177669714438, 2.1627209577709436, 2.180463796685217, 2.1973437453852966, 2.2125279509346, 2.2307083789492026, 2.2471957945090253]
4	冰块	False	animate	inanimate	right	1.274	[0.0, 0.0, 0.0, 0.0, 0.0, 0.0, 0.0, 0.0, 0.0, 0.0, 0.0, 0.0, 1.0, 1.0, -7.0, -15.0, -18.0, -18.0, -18.0, -18.0, -18.0, -18.0, -18.0, -18.0, -18.0, -18.0, -18.0, -18.0, -18.0, -18.0, -18.0, -18.0, -18.0, -18.0, -18.0, -18.0, -18.0, -18.0, -18.0, -18.0, -19.0, -19.0, -15.0, -12.0, -6.0, 6.0, 34.0, 44.0, 76.0, 165.0, 248.0, 334.0, 414.0, 489.0, 556.0, 610.0, 656.0, 701.0, 739.0, 764.0, 767.0, 769.0, 769.0, 772.0, 773.0, 781.0, 791.0, 802.0, 804.0, 806.0, 806.0, 806.0, 804.0, 802.0, 800.0, 800.0]	[-490.0, -490.0, -490.0, -490.0, -490.0, -490.0, -490.0, -490.0, -490.0, -489.0, -489.0, -489.0, -489.0, -489.0, -501.0, -525.0, -539.0, -539.0, -539.0, -539.0, -539.0, -539.0, -539.0, -539.0, -539.0, -539.0, -539.0, -539.0, -539.0, -539.0, -539.0, -539.0, -539.0, -539.0, -539.0, -539.0, -539.0, -539.0, -539.0, -539.0, -539.0, -539.0, -539.0, -539.0, -539.0, -539.0, -539.0, -539.0, -519.0, -462.0, -409.0, -333.0, -239.0, -128.0, -33.0, 63.0, 143.0, 208.0, 263.0, 298.0, 301.0, 304.0, 305.0, 308.0, 310.0, 313.0, 317.0, 321.0, 323.0, 325.0, 331.0, 348.0, 364.0, 378.0, 382.0, 384.0]	[0.006848098884802312, 0.011428789875935763, 0.015148638631217182, 0.0318903473962564, 0.047102883603656664, 0.0624625344062224, 0.08025691463262774, 0.09726315658190288, 0.11228557021240704, 0.1305748835147824, 0.14710121107054874, 0.16248543784604408, 0.1804050873615779, 0.19721540407044813, 0.21219992972328328, 0.2305629710026551, 0.24711182652390562, 0.2625667092797812, 0.28032286019879393, 0.29729940617107786, 0.3122808598272968, 0.3305401358229574, 0.3471224419772625, 0.3625578687642701, 0.38042427026084624, 0.39727110965759493, 0.41363223193911836, 0.4306121912377421, 0.4469494202057831, 0.46258759885677136, 0.48063763763639145, 0.4973407757352106, 0.5122437227691989, 0.5305535160587169, 0.5470979342644569, 0.562535409029806, 0.580510695814155, 0.5972807352372911, 0.612260482244892, 0.6305381902202498, 0.6471310777124017, 0.6626060991256963, 0.6802451727562584, 0.6973022733582184, 0.7122710976982489, 0.7304986297094729, 0.7471464718400966, 0.7625702932709828, 0.7802404282265343, 0.7972149262204766, 0.8123213078069966, 0.8304536078649107, 0.846970378072001, 0.8626276713912375, 0.8804329742561094, 0.8971825336921029, 0.91216535269632, 0.930448522005463, 0.9469990841753315, 0.9624546495906543, 0.9802500538353343, 0.9971443385002203, 1.012198496144265, 1.0305134094378445, 1.047142819588771, 1.0625710783351678, 1.0804374798608478, 1.0972764685866423, 1.1122469995752908, 1.1305561102053616, 1.1469933498010505, 1.162472467200132, 1.1802996154001448, 1.1971208547765855, 1.2122507883759681, 1.2305206456803717]
5	椅子	False	inanimate	animate	left	1.331	[0.0, 0.0, 0.0, 0.0, 0.0, 0.0, 0.0, 0.0, 0.0, 0.0, 0.0, 0.0, 0.0, 0.0, 0.0, 0.0, 0.0, 0.0, 0.0, 0.0, 0.0, 0.0, 0.0, 0.0, 0.0, 1.0, 4.0, 6.0, 12.0, 18.0, 24.0, 30.0, 36.0, 47.0, 59.0, 75.0, 90.0, 119.0, 141.0, 151.0, 195.0, 241.0, 293.0, 344.0, 388.0, 425.0, 478.0, 488.0, 504.0, 536.0, 561.0, 568.0, 574.0, 555.0, 508.0, 421.0, 289.0, 110.0, -103.0, -324.0, -554.0, -819.0, -960.0, -960.0, -960.0, -960.0, -960.0, -960.0, -960.0, -960.0, -960.0, -960.0, -960.0, -948.0, -933.0, -927.0, -912.0, -908.0, -906.0, -906.0]	[-490.0, -490.0, -490.0, -490.0, -490.0, -490.0, -490.0, -490.0, -490.0, -490.0, -490.0, -490.0, -490.0, -490.0, -490.0, -490.0, -490.0, -490.0, -490.0, -490.0, -490.0, -490.0, -490.0, -490.0, -490.0, -487.0, -483.0, -479.0, -465.0, -457.0, -449.0, -437.0, -425.0, -406.0, -386.0, -365.0, -347.0, -315.0, -288.0, -278.0, -225.0, -169.0, -110.0, -46.0, 10.0, 64.0, 139.0, 153.0, 174.0, 219.0, 266.0, 286.0, 324.0, 345.0, 368.0, 394.0, 411.0, 439.0, 466.0, 505.0, 540.0, 540.0, 540.0, 540.0, 540.0, 540.0, 540.0, 540.0, 540.0, 540.0, 540.0, 540.0, 540.0, 525.0, 514.0, 508.0, 498.0, 495.0, 493.0, 493.0]	[0.007076792098814622, 0.011907338950550184, 0.01565176370786503, 0.031079681153642014, 0.047485176735790446, 0.0628526782093104, 0.08084912766935304, 0.09763725774246268, 0.11267639670404606, 0.13087150204228237, 0.14734219227102585, 0.16286875499645248, 0.1808320951240603, 0.19761305721476674, 0.2124272576184012, 0.2307059896120336, 0.24752381566213444, 0.2629800637369044, 0.2808812812436372, 0.297656440641731, 0.3126215103256982, 0.3308159330044873, 0.3474883511371445, 0.3629852178564761, 0.38078676609438844, 0.3975892321614083, 0.4126959550776519, 0.43091529508819804, 0.4473924706398975, 0.4630272359936498, 0.48085097086732276, 0.4976698209065944, 0.512786101171514, 0.5308740278996993, 0.5475027553911787, 0.5629630994808394, 0.5807547490403522, 0.5975555084296502, 0.6126226367196068, 0.6308358327369206, 0.6474044855858665, 0.6628740456653759, 0.6805793379317038, 0.6975951372296549, 0.7123622336657718, 0.7306269709661137, 0.7473983757081442, 0.7629911570693366, 0.7807073720032349, 0.797543630033033, 0.8124598890717607, 0.8307792396808509, 0.8474246925034095, 0.8630017725226935, 0.880705699470127, 0.8975880374782719, 0.9127814590465277, 0.9307748365099542, 0.9473165240196977, 0.9628533267241437, 0.9804842083831318, 0.9975245836540125, 1.0124002240481786, 1.0305536867526826, 1.0474534327513538, 1.0628420968714636, 1.0807603810389992, 1.0975795724370982, 1.1127600233303383, 1.130845219391631, 1.1474265015567653, 1.1629346323024947, 1.1810778549988754, 1.1976751798356418, 1.2124613909400068, 1.2308746081835125, 1.247140498511726, 1.2629322771099396, 1.2807416759897023, 1.297645859332988]
6	绳子	False	animate	inanimate	right	1.251	[0.0, 0.0, 0.0, 0.0, 0.0, 0.0, 0.0, 0.0, 0.0, 0.0, 0.0, 0.0, 0.0, 0.0, 0.0, 0.0, 0.0, 0.0, 0.0, 0.0, 0.0, 0.0, 0.0, 0.0, 0.0, 0.0, 0.0, 1.0, 2.0, 5.0, 9.0, 15.0, 19.0, 23.0, 31.0, 39.0, 43.0, 51.0, 56.0, 61.0, 68.0, 76.0, 86.0, 99.0, 119.0, 141.0, 175.0, 248.0, 283.0, 364.0, 393.0, 405.0, 405.0, 405.0, 405.0, 409.0, 423.0, 455.0, 548.0, 622.0, 654.0, 745.0, 807.0, 868.0, 908.0, 934.0, 941.0, 949.0, 950.0, 952.0, 952.0, 953.0, 953.0, 953.0, 953.0]	[-490.0, -490.0, -490.0, -490.0, -490.0, -490.0, -490.0, -490.0, -490.0, -490.0, -490.0, -490.0, -490.0, -490.0, -490.0, -490.0, -490.0, -490.0, -490.0, -490.0, -490.0, -490.0, -490.0, -490.0, -490.0, -490.0, -487.0, -484.0, -480.0, -475.0, -466.0, -450.0, -443.0, -434.0, -414.0, -399.0, -394.0, -382.0, -375.0, -369.0, -359.0, -349.0, -335.0, -317.0, -295.0, -264.0, -218.0, -128.0, -94.0, 6.0, 54.0, 88.0, 116.0, 147.0, 170.0, 190.0, 207.0, 225.0, 262.0, 291.0, 307.0, 350.0, 376.0, 398.0, 408.0, 415.0, 420.0, 424.0, 426.0, 429.0, 430.0, 433.0, 433.0, 433.0, 433.0]	[0.0036098712298553437, 0.008571831334847957, 0.022512901545269415, 0.040836348169250414, 0.05763437689165585, 0.07235846534604207, 0.09087681319215335, 0.10738914608373307, 0.12287201816798188, 0.14058652642415836, 0.1575541977363173, 0.17231788084609434, 0.19070993541390635, 0.20745744684245437, 0.22286966294632293, 0.24077190447133034, 0.25754638120997697, 0.2723438562825322, 0.29068983090110123, 0.30745099566411227, 0.3228393184544984, 0.3407337092794478, 0.35753344467957504, 0.37258248231955804, 0.3908806702820584, 0.40747014444787055, 0.42279566192883067, 0.4406289541220758, 0.45758740944438614, 0.4723394872271456, 0.49081858177669346, 0.5072022320528049, 0.5227902347396594, 0.54082388948882, 0.5576096302247606, 0.5723487373616081, 0.590860941214487, 0.6074476847134065, 0.6227322422200814, 0.6406488197098952, 0.6575472003896721, 0.6723624248115811, 0.6907804207294248, 0.7073818415519781, 0.7227756256761495, 0.7407024431740865, 0.7574441519100219, 0.7723412963096052, 0.7906766895612236, 0.8072098437696695, 0.822777707799105, 0.8406676613085438, 0.857521327357972, 0.8723365517507773, 0.8906234757450875, 0.9073354885040317, 0.9228893578692805, 0.9406332208018284, 0.9574558255262673, 0.9723632098757662, 0.9907873497868422, 1.0072914906777442, 1.0240895194001496, 1.0405847856309265, 1.0575678169261664, 1.0723325240251143, 1.090708535950398, 1.1073888047540095, 1.122846076847054, 1.1407285210152622, 1.1574910510971677, 1.172568760724971, 1.1908355460327584, 1.2073861082317308, 1.2227539510058705]
7	绵羊	True	inanimate	animate	right	1.066	[0.0, 0.0, 0.0, 0.0, 0.0, 0.0, 0.0, 0.0, 0.0, 0.0, 0.0, 0.0, 0.0, 0.0, 0.0, 0.0, 0.0, 0.0, 0.0, 0.0, 0.0, 0.0, 0.0, 0.0, 0.0, 0.0, 0.0, 1.0, 6.0, 10.0, 17.0, 28.0, 40.0, 56.0, 83.0, 124.0, 164.0, 196.0, 220.0, 253.0, 307.0, 399.0, 423.0, 457.0, 467.0, 476.0, 481.0, 484.0, 487.0, 487.0, 487.0, 489.0, 498.0, 526.0, 541.0, 594.0, 625.0, 662.0, 696.0, 721.0, 739.0, 752.0, 761.0, 765.0, 765.0]	[-490.0, -490.0, -490.0, -490.0, -490.0, -490.0, -490.0, -490.0, -490.0, -490.0, -490.0, -490.0, -490.0, -490.0, -490.0, -490.0, -490.0, -490.0, -490.0, -490.0, -490.0, -490.0, -490.0, -490.0, -490.0, -490.0, -487.0, -482.0, -472.0, -468.0, -459.0, -446.0, -430.0, -414.0, -386.0, -350.0, -314.0, -288.0, -268.0, -238.0, -193.0, -115.0, -91.0, -45.0, -25.0, -6.0, 19.0, 43.0, 69.0, 96.0, 136.0, 149.0, 171.0, 213.0, 229.0, 274.0, 298.0, 324.0, 345.0, 360.0, 374.0, 386.0, 397.0, 402.0, 402.0]	[0.006954594835406169, 0.011772512370953336, 0.01804894648375921, 0.03074927063426003, 0.04728856883593835, 0.0626625556324143, 0.08043270121561363, 0.09742938584531657, 0.11240571949747391, 0.13065816881135106, 0.1470025657908991, 0.16260968314600177, 0.18038836203049868, 0.19728947337716818, 0.21236138031235896, 0.23066707761608995, 0.2472647437825799, 0.2626994878810365, 0.28036313751363195, 0.2974243341013789, 0.31238735577790067, 0.33071182639105245, 0.3472770659136586, 0.36262101540341973, 0.3806703714944888, 0.39734244826831855, 0.41238158725900576, 0.4306927458674181, 0.4471955214103218, 0.4626278762007132, 0.4803898297541309, 0.49731312776566483, 0.5124140480183996, 0.5306391906924546, 0.5471621049218811, 0.5626378089946229, 0.580339687934611, 0.5972974605683703, 0.6124318314832635, 0.6306129421864171, 0.6471594083704986, 0.6626723177614622, 0.68028886342654, 0.6972906680312008, 0.712445860292064, 0.7305409550317563, 0.7471140451962128, 0.762636170577025, 0.7802848015562631, 0.7972838755231351, 0.8123998144292273, 0.8305921891296748, 0.8470690233516507, 0.8625839807500597, 0.8802336357184686, 0.8973228216345888, 0.9121643287071493, 0.9305823245958891, 0.9470690574962646, 0.9626987028168514, 0.980213189846836, 0.9972740451048594, 1.0124207040353213, 1.0305850894073956, 1.0470875236205757]
8	楼梯	False	animate	inanimate	right	0.973	[0.0, 0.0, 0.0, 0.0, 0.0, 0.0, 2.0, 3.0, 7.0, 8.0, 9.0, 9.0, 9.0, 9.0, 9.0, 9.0, 9.0, 9.0, 9.0, 9.0, 9.0, 9.0, 9.0, 9.0, 9.0, 9.0, 9.0, 9.0, 9.0, 9.0, 9.0, 15.0, 25.0, 31.0, 54.0, 81.0, 115.0, 159.0, 203.0, 248.0, 293.0, 337.0, 382.0, 441.0, 486.0, 511.0, 570.0, 598.0, 613.0, 623.0, 634.0, 649.0, 660.0, 669.0, 680.0, 705.0, 716.0, 722.0]	[-490.0, -490.0, -490.0, -490.0, -490.0, -490.0, -490.0, -490.0, -493.0, -498.0, -499.0, -499.0, -500.0, -500.0, -500.0, -500.0, -500.0, -500.0, -500.0, -500.0, -500.0, -500.0, -500.0, -500.0, -500.0, -498.0, -498.0, -495.0, -491.0, -488.0, -484.0, -475.0, -461.0, -452.0, -419.0, -382.0, -335.0, -277.0, -226.0, -173.0, -121.0, -70.0, -14.0, 63.0, 117.0, 145.0, 220.0, 266.0, 299.0, 324.0, 347.0, 371.0, 392.0, 405.0, 419.0, 440.0, 448.0, 452.0]	[0.016434577148174867, 0.021492110536200926, 0.030891743081156164, 0.049618645483860746, 0.06599342109984718, 0.08143874653615057, 0.0992136707645841, 0.11609703279100358, 0.13127202235045843, 0.1493893037259113, 0.16602042055455968, 0.181364370015217, 0.19929835552466102, 0.2161847895476967, 0.23090546467574313, 0.24947910849004984, 0.26579654013039544, 0.2815575987333432, 0.2993041923036799, 0.31610392770380713, 0.33124034662614577, 0.34947641196777113, 0.365973384847166, 0.3813729716348462, 0.39928818377666175, 0.41615584449027665, 0.43091304224799387, 0.44939418480498716, 0.4660126722883433, 0.48137710176524706, 0.4993551192164887, 0.5161074093193747, 0.5312144735653419, 0.5494140162481926, 0.5658010798506439, 0.5813788425584789, 0.5993370626820251, 0.6161924354091752, 0.6309308598574717, 0.6493222317658365, 0.6657734659966081, 0.6814089140098076, 0.6992370861989912, 0.716073344257893, 0.7311189685424324, 0.7494311511691194, 0.7658902360708453, 0.7813751561625395, 0.7991657817037776, 0.816162807692308, 0.8309309281175956, 0.8493550680286717, 0.8656670383352321, 0.881450624903664, 0.8992006318294443, 0.9160269912099466, 0.9309125302534085, 0.9493465688137803]
9	鸡蛋	False	inanimate	animate	right	1.173	[0.0, 0.0, 0.0, 0.0, 0.0, 0.0, 0.0, 0.0, 0.0, 0.0, 0.0, 0.0, 0.0, 0.0, 0.0, 0.0, 0.0, 0.0, 0.0, 0.0, 0.0, 0.0, 0.0, 0.0, 0.0, 0.0, 1.0, 2.0, 11.0, 21.0, 36.0, 64.0, 111.0, 179.0, 246.0, 319.0, 362.0, 405.0, 428.0, 443.0, 480.0, 505.0, 521.0, 531.0, 533.0, 533.0, 525.0, 498.0, 450.0, 395.0, 389.0, 389.0, 409.0, 455.0, 523.0, 593.0, 652.0, 685.0, 712.0, 718.0, 721.0, 721.0, 721.0, 721.0, 733.0, 745.0, 757.0, 766.0, 772.0, 776.0, 777.0]	[-490.0, -490.0, -490.0, -490.0, -490.0, -490.0, -490.0, -490.0, -490.0, -490.0, -490.0, -490.0, -490.0, -490.0, -490.0, -490.0, -490.0, -490.0, -490.0, -490.0, -488.0, -482.0, -475.0, -468.0, -461.0, -447.0, -432.0, -425.0, -406.0, -387.0, -365.0, -333.0, -297.0, -255.0, -225.0, -194.0, -176.0, -158.0, -148.0, -141.0, -118.0, -101.0, -85.0, -73.0, -60.0, -40.0, -12.0, 28.0, 78.0, 126.0, 135.0, 138.0, 163.0, 189.0, 221.0, 252.0, 277.0, 291.0, 309.0, 313.0, 315.0, 315.0, 315.0, 315.0, 334.0, 355.0, 374.0, 388.0, 400.0, 409.0, 412.0]	[0.016365969204343855, 0.021233038714854047, 0.030689673876622692, 0.04941828295704909, 0.06586883452837355, 0.08132201060652733, 0.0989737135823816, 0.11592909690807573, 0.13107370780198835, 0.14926232781726867, 0.1658118660270702, 0.18120053014717996, 0.19916660094168037, 0.2159502936701756, 0.23075323010561988, 0.24922481531393714, 0.2657804975169711, 0.28117189230397344, 0.29913625642075203, 0.3159916291187983, 0.33076862423331477, 0.3492408921010792, 0.365837875608122, 0.38123780372552574, 0.3991117145633325, 0.41596947659854777, 0.43072087172186, 0.44905558234313503, 0.46577817643992603, 0.48126412052079104, 0.499141103355214, 0.5159207000979222, 0.5308035084744915, 0.5491365124180447, 0.5657765039068181, 0.5812378719856497, 0.5990670681931078, 0.6158391555945855, 0.631117569108028, 0.6491908185416833, 0.6657772207108792, 0.6811686154978815, 0.6990790489944629, 0.7159320323553402, 0.7307199501083232, 0.7491502340126317, 0.7657226415467449, 0.7811788896215148, 0.7990490458032582, 0.8158279598865192, 0.8307520695670974, 0.8489901828870643, 0.8656950276927091, 0.8811823370924685, 0.8990473732701503, 0.9159655512776226, 0.9307398157252464, 0.949083059647819, 0.9657254404737614, 0.9812612191890366, 0.999083930044435, 1.0158522627898492, 1.0307692044880241, 1.0490496431302745, 1.0656090799893718, 1.0813196212693583, 1.0990372015512548, 1.1159598168742377, 1.130697558663087, 1.1491776772018056, 1.165741892735241]
10	毛驴	True	animate	inanimate	left	1.183	[0.0, 0.0, 0.0, 0.0, 0.0, 0.0, 0.0, 0.0, 0.0, 0.0, 0.0, 0.0, 0.0, 0.0, 0.0, 0.0, 0.0, 0.0, 0.0, 0.0, 0.0, 0.0, 0.0, 0.0, 0.0, 0.0, 0.0, 0.0, 2.0, 7.0, 19.0, 42.0, 62.0, 72.0, 121.0, 163.0, 210.0, 273.0, 351.0, 429.0, 492.0, 528.0, 553.0, 578.0, 587.0, 591.0, 597.0, 599.0, 599.0, 589.0, 576.0, 557.0, 541.0, 525.0, 500.0, 395.0, 294.0, 235.0, 26.0, -136.0, -290.0, -429.0, -527.0, -599.0, -641.0, -667.0, -684.0, -691.0, -691.0, -691.0, -691.0]	[-490.0, -490.0, -490.0, -490.0, -490.0, -490.0, -490.0, -490.0, -490.0, -490.0, -490.0, -490.0, -490.0, -490.0, -490.0, -490.0, -490.0, -490.0, -490.0, -490.0, -490.0, -490.0, -490.0, -490.0, -490.0, -490.0, -490.0, -490.0, -490.0, -487.0, -479.0, -462.0, -447.0, -438.0, -396.0, -354.0, -297.0, -240.0, -172.0, -106.0, -45.0, -2.0, 34.0, 69.0, 85.0, 93.0, 118.0, 137.0, 160.0, 180.0, 195.0, 210.0, 220.0, 233.0, 246.0, 283.0, 304.0, 314.0, 344.0, 363.0, 384.0, 399.0, 414.0, 427.0, 437.0, 444.0, 451.0, 454.0, 454.0, 454.0, 454.0]	[0.0007361873576883227, 0.00589612071053125, 0.016179464786546305, 0.03477563659544103, 0.051131297543179244, 0.06663635626318865, 0.0846345124009531, 0.1013806584815029, 0.11618803223245777, 0.13459442282328382, 0.1512743502680678, 0.16666164906928316, 0.18461338386987336, 0.20141789794433862, 0.21653895685449243, 0.23472450487315655, 0.251128976495238, 0.26672448849421926, 0.28461819665972143, 0.3013732174295001, 0.31618912451085635, 0.3345907364273444, 0.35110272796009667, 0.3666596693219617, 0.3846045774698723, 0.40137427556328475, 0.4162116866209544, 0.43462285585701466, 0.45129698066739365, 0.46674606075976044, 0.4845810596307274, 0.5014296056469902, 0.516310366045218, 0.5346208419941831, 0.5512714148208033, 0.5666658816044219, 0.5843793658423238, 0.6013436238281429, 0.6161632855946664, 0.6344700068875682, 0.6511840676539578, 0.6666229077382013, 0.6845009145908989, 0.7012917753309011, 0.7162097410182469, 0.7344608250132296, 0.751100816502003, 0.7666604885307606, 0.7844896847382188, 0.8013856760808267, 0.8161299031926319, 0.8343755258538295, 0.8512971171876416, 0.8665871360281017, 0.8846320548036601, 0.901164526323555, 0.9166446677409112, 0.9344707919517532, 0.95127735400456, 0.9665335808531381, 0.9845638223050628, 1.000917093915632, 1.0166399232111871, 1.034329855494434, 1.0512889934761915, 1.0661864791763946, 1.0846662563853897, 1.101117831945885, 1.1166088960308116, 1.1341954043600708, 1.1513470542267896]
11	骑兵	True	animate	inanimate	left	1.151	[0.0, 0.0, 0.0, 0.0, 0.0, 0.0, 0.0, 0.0, 0.0, 0.0, 0.0, 0.0, 0.0, 0.0, 0.0, 0.0, 0.0, 0.0, 0.0, 0.0, 0.0, 0.0, 0.0, 0.0, 0.0, 1.0, 8.0, 9.0, 23.0, 40.0, 58.0, 76.0, 91.0, 106.0, 120.0, 135.0, 148.0, 165.0, 197.0, 212.0, 266.0, 302.0, 341.0, 378.0, 413.0, 453.0, 480.0, 498.0, 507.0, 504.0, 477.0, 403.0, 282.0, 127.0, -63.0, -273.0, -476.0, -643.0, -767.0, -844.0, -863.0, -863.0, -863.0, -863.0, -863.0, -863.0, -863.0, -863.0, -863.0, -863.0]	[-490.0, -490.0, -490.0, -490.0, -490.0, -490.0, -490.0, -490.0, -490.0, -490.0, -490.0, -487.0, -485.0, -481.0, -481.0, -481.0, -481.0, -481.0, -481.0, -481.0, -478.0, -475.0, -471.0, -467.0, -460.0, -454.0, -440.0, -437.0, -417.0, -393.0, -364.0, -339.0, -320.0, -304.0, -287.0, -269.0, -250.0, -222.0, -175.0, -158.0, -99.0, -56.0, -13.0, 24.0, 55.0, 87.0, 112.0, 137.0, 155.0, 172.0, 190.0, 213.0, 244.0, 281.0, 309.0, 339.0, 370.0, 394.0, 409.0, 423.0, 425.0, 425.0, 425.0, 425.0, 425.0, 425.0, 425.0, 425.0, 425.0, 425.0]	[0.01376862867618911, 0.01852339957258664, 0.02557022264227271, 0.04378137065214105, 0.060787612601416185, 0.07574619693332352, 0.09402083291206509, 0.11061610977048986, 0.1259853178926278, 0.1439479753607884, 0.16073303343728185, 0.17555440185242333, 0.19402769370935857, 0.21061238922993653, 0.22612222662428394, 0.2439637108182069, 0.26077402755618095, 0.275544195988914, 0.2939365918864496, 0.31072199129266664, 0.326069012779044, 0.34394736096146517, 0.3607791816757526, 0.37589580327039585, 0.39406360196880996, 0.41059914548532106, 0.42600828962167725, 0.44393886177567765, 0.4607976478000637, 0.47595761870616116, 0.4940018547931686, 0.5106616436096374, 0.5260639610351063, 0.5439487945695873, 0.5607007433136459, 0.5758801702177152, 0.5939861875958741, 0.610524120478658, 0.6259885605541058, 0.6436959008278791, 0.6606912201095838, 0.6755170258693397, 0.6938377418264281, 0.7105565812671557, 0.7260879226378165, 0.7437997002271004, 0.7606260596076027, 0.7755177426734008, 0.793989327881718, 0.8103559114970267, 0.826114922092529, 0.8438031476980541, 0.860716888360912, 0.8759144059149548, 0.8939524980087299, 0.9105334388732444, 0.9260866255790461, 0.9436871285724919, 0.9606578718812671, 0.975538632250391, 0.9938671988784336, 1.0105276703252457, 1.0261784783215262, 1.043863631930435, 1.060652444662992, 1.0755734823760577, 1.0941252808552235, 1.110570029792143, 1.1260324218601454, 1.1437940341129433]
12	黑板	False	animate	inanimate	right	1.111	[0.0, -1.0, -1.0, -1.0, -1.0, -1.0, -1.0, -1.0, -1.0, -1.0, -1.0, -1.0, -1.0, -1.0, -1.0, -1.0, -1.0, -1.0, -1.0, -1.0, -1.0, -1.0, -1.0, 1.0, 5.0, 11.0, 23.0, 35.0, 54.0, 66.0, 72.0, 94.0, 106.0, 118.0, 133.0, 151.0, 168.0, 191.0, 219.0, 264.0, 331.0, 428.0, 454.0, 500.0, 507.0, 513.0, 516.0, 521.0, 529.0, 544.0, 560.0, 578.0, 595.0, 609.0, 609.0, 609.0, 609.0, 613.0, 618.0, 621.0, 627.0, 633.0, 640.0, 648.0, 662.0, 674.0, 686.0, 699.0]	[-490.0, -491.0, -491.0, -491.0, -491.0, -491.0, -491.0, -491.0, -492.0, -492.0, -493.0, -493.0, -493.0, -493.0, -493.0, -493.0, -493.0, -493.0, -493.0, -493.0, -493.0, -493.0, -493.0, -493.0, -491.0, -485.0, -478.0, -469.0, -458.0, -453.0, -449.0, -434.0, -424.0, -412.0, -401.0, -392.0, -387.0, -382.0, -380.0, -380.0, -380.0, -377.0, -371.0, -347.0, -327.0, -305.0, -282.0, -243.0, -185.0, -129.0, -72.0, -17.0, 36.0, 99.0, 118.0, 166.0, 188.0, 215.0, 248.0, 283.0, 316.0, 353.0, 376.0, 393.0, 407.0, 417.0, 424.0, 432.0]	[0.008387989306356758, 0.012724627071293071, 0.02281750724068843, 0.03338586448808201, 0.049660288175800815, 0.06524999751127325, 0.08313892703154124, 0.1000041983788833, 0.11509283067425713, 0.1334009172860533, 0.14980504754930735, 0.165396122232778, 0.1831321344943717, 0.19992231257492676, 0.21484061959199607, 0.23330776748480275, 0.24981088435743004, 0.26535041772876866, 0.2831451392848976, 0.29993634135462344, 0.31480071775149554, 0.3332255403220188, 0.3501331369916443, 0.3652835505781695, 0.38315029340446927, 0.3999025835073553, 0.4147748105460778, 0.433179494459182, 0.44990345390397124, 0.46519244875526056, 0.48317149019567296, 0.499901252303971, 0.5148827059601899, 0.5332457472395618, 0.5498137174290605, 0.5651532295742072, 0.5831237376842182, 0.5999207424174529, 0.6151295239687897, 0.6332372480537742, 0.6497833729081322, 0.6651996849977877, 0.6831244544882793, 0.6999494485498872, 0.715102592803305, 0.7332656128273811, 0.7498977536452003, 0.7654304603638593, 0.7829504087276291, 0.7998419627256226, 0.8147995230683591, 0.8331523243396077, 0.8497284865297843, 0.8651717639586423, 0.8830518187896814, 0.8998392662033439, 0.914743919915054, 0.9331591851369012, 0.9495964247325901, 0.9655028912529815, 0.9830033836187795, 0.999929412297206, 1.0147378100373317, 1.0331291819748003, 1.0498026240966283, 1.0651967495505232, 1.0830071724194568, 1.099927739764098]
13	大象	True	inanimate	animate	right	1.139	[0.0, 0.0, 0.0, 0.0, -1.0, -1.0, -1.0, -2.0, -2.0, -2.0, -2.0, -2.0, -2.0, -2.0, -2.0, -2.0, -5.0, -8.0, -10.0, -15.0, -17.0, -21.0, -23.0, -23.0, -23.0, -23.0, -23.0, -20.0, -13.0, -5.0, 5.0, 11.0, 16.0, 21.0, 26.0, 35.0, 47.0, 61.0, 70.0, 73.0, 73.0, 62.0, 42.0, 11.0, -35.0, -64.0, -66.0, -26.0, 75.0, 264.0, 385.0, 500.0, 594.0, 660.0, 703.0, 732.0, 752.0, 771.0, 791.0, 806.0, 821.0, 830.0, 833.0, 834.0, 834.0, 834.0, 834.0]	[-490.0, -490.0, -490.0, -490.0, -482.0, -478.0, -476.0, -475.0, -475.0, -475.0, -475.0, -475.0, -475.0, -475.0, -475.0, -475.0, -470.0, -464.0, -457.0, -446.0, -433.0, -417.0, -398.0, -382.0, -367.0, -348.0, -333.0, -319.0, -305.0, -289.0, -272.0, -259.0, -248.0, -237.0, -227.0, -215.0, -199.0, -174.0, -153.0, -142.0, -115.0, -105.0, -98.0, -83.0, -63.0, -42.0, -23.0, 8.0, 56.0, 132.0, 167.0, 208.0, 247.0, 283.0, 317.0, 343.0, 369.0, 395.0, 420.0, 443.0, 462.0, 477.0, 482.0, 484.0, 484.0, 484.0, 484.0]	[0.016152636002516374, 0.020908772246912122, 0.03057157262810506, 0.04896942985942587, 0.06520733088837005, 0.08074345093336888, 0.0987204443954397, 0.11547717181383632, 0.1305422520963475, 0.14872233881033026, 0.16527221832075156, 0.18074723973404616, 0.19873413184541278, 0.2154874459374696, 0.230518392927479, 0.24881180221564136, 0.2653179911139887, 0.2808605964819435, 0.2987870726210531, 0.31556462138541974, 0.3305423203855753, 0.3487551750440616, 0.36518592928769067, 0.3807500386610627, 0.3986522801569663, 0.41544177557807416, 0.430567613162566, 0.4487582811852917, 0.4652166834275704, 0.4807657741184812, 0.4986598236428108, 0.5154796976712532, 0.5305311246484052, 0.5486685446812771, 0.5651132936181966, 0.5807617122482043, 0.5986397191009019, 0.6153995185159147, 0.6305717774084769, 0.6487580081156921, 0.6652542983356398, 0.6807552610698622, 0.6985148253152147, 0.715410475328099, 0.7305083235842176, 0.7486935302731581, 0.7650764978898223, 0.780700681876624, 0.7985708380874712, 0.815406413457822, 0.8304588644241448, 0.8487536390603054, 0.8650901853397954, 0.8807386039989069, 0.8985862321860623, 0.9154501382436138, 0.9305042958585545, 0.9487151025386993, 0.9649939635419287, 0.980692558165174, 0.9985033223638311, 1.0154460763733368, 1.0305616739497054, 1.0487489286460914, 1.0650137949851342, 1.0807502775860485, 1.0985999537806492]
14	蝴蝶	True	inanimate	animate	right	1.288	[0.0, 0.0, 0.0, 0.0, 0.0, 0.0, 0.0, 0.0, 0.0, 0.0, 0.0, 0.0, 0.0, 0.0, 0.0, 0.0, 0.0, 0.0, 0.0, 1.0, 3.0, 5.0, 9.0, 15.0, 24.0, 30.0, 38.0, 45.0, 53.0, 58.0, 59.0, 61.0, 62.0, 62.0, 62.0, 63.0, 64.0, 65.0, 66.0, 66.0, 67.0, 67.0, 67.0, 67.0, 68.0, 69.0, 72.0, 73.0, 75.0, 77.0, 78.0, 81.0, 99.0, 134.0, 157.0, 245.0, 323.0, 393.0, 467.0, 526.0, 571.0, 603.0, 629.0, 646.0, 667.0, 675.0, 678.0, 678.0, 679.0, 682.0, 685.0, 689.0, 690.0, 692.0, 692.0, 693.0, 693.0, 693.0]	[-490.0, -490.0, -490.0, -490.0, -490.0, -490.0, -490.0, -490.0, -490.0, -490.0, -490.0, -490.0, -490.0, -490.0, -490.0, -490.0, -490.0, -490.0, -490.0, -490.0, -486.0, -482.0, -474.0, -463.0, -448.0, -432.0, -414.0, -397.0, -378.0, -369.0, -367.0, -359.0, -357.0, -357.0, -357.0, -356.0, -352.0, -351.0, -350.0, -348.0, -347.0, -346.0, -346.0, -346.0, -342.0, -337.0, -330.0, -323.0, -314.0, -306.0, -292.0, -273.0, -219.0, -158.0, -128.0, -38.0, 30.0, 91.0, 148.0, 198.0, 235.0, 260.0, 283.0, 297.0, 318.0, 330.0, 335.0, 336.0, 338.0, 341.0, 346.0, 351.0, 355.0, 358.0, 358.0, 359.0, 360.0, 360.0]	[0.015201203961623833, 0.02032359066652134, 0.028671575739281252, 0.04697556636529043, 0.06377427774714306, 0.07878030740539543, 0.0970883940171916, 0.11341231100959703, 0.1290829163044691, 0.14694624583353288, 0.16373608258436434, 0.1787909228587523, 0.19701913752942346, 0.2133976678014733, 0.2290658837882802, 0.24694150130380876, 0.2637579620350152, 0.2787755970202852, 0.29701712366659194, 0.3135997711797245, 0.32899184862617403, 0.3470142394071445, 0.3637996388133615, 0.3787981591303833, 0.39706528576789424, 0.4134301627345849, 0.4290021227498073, 0.4468767162761651, 0.46370614765328355, 0.478837105241837, 0.4970567865821067, 0.5134110822109506, 0.5290881728578825, 0.5469392143713776, 0.5637020857830066, 0.5787695554026868, 0.5970947087043896, 0.6133940496947616, 0.6289844416896813, 0.6469430031720549, 0.6637485412356909, 0.6788805228134152, 0.6970404708408751, 0.7134555237716995, 0.7290913131146226, 0.747003453259822, 0.7638219619984739, 0.7788109249959234, 0.7969821370206773, 0.8134620432392694, 0.8290002112917136, 0.8469423887727316, 0.8636656655289698, 0.8788771777471993, 0.8969889978179708, 0.913360701437341, 0.9290623680572025, 0.9468550416058861, 0.96390565688489, 0.9788417132513132, 0.9969429519842379, 1.0133184102596715, 1.0290142742160242, 1.0468847717274912, 1.0636500324762892, 1.0788328727066983, 1.0969522020895965, 1.1132942097319756, 1.1290050923416857, 1.1471056484151632, 1.1640296290861443, 1.178758154885145, 1.1969269775727298, 1.213288099883357, 1.2290102464903612, 1.2468455866910517, 1.2636309860972688, 1.2787557996925898]
15	药品	False	animate	inanimate	right	1.643	[0.0, 0.0, 0.0, 0.0, 0.0, 0.0, 1.0, 2.0, 2.0, 2.0, 2.0, 2.0, 2.0, 2.0, 2.0, 3.0, 4.0, 6.0, 6.0, 8.0, 8.0, 10.0, 12.0, 16.0, 19.0, 22.0, 32.0, 37.0, 57.0, 76.0, 82.0, 104.0, 122.0, 142.0, 164.0, 180.0, 193.0, 206.0, 217.0, 234.0, 263.0, 289.0, 300.0, 333.0, 344.0, 347.0, 346.0, 318.0, 266.0, 187.0, 83.0, -24.0, -212.0, -345.0, -399.0, -552.0, -624.0, -665.0, -690.0, -700.0, -705.0, -711.0, -720.0, -729.0, -749.0, -764.0, -773.0, -794.0, -801.0, -802.0, -802.0, -802.0, -802.0, -802.0, -802.0, -802.0, -782.0, -714.0, -671.0, -487.0, -317.0, -150.0, 10.0, 145.0, 253.0, 334.0, 392.0, 444.0, 486.0, 530.0, 539.0, 569.0, 590.0, 612.0, 638.0, 659.0, 675.0, 680.0, 680.0]	[-490.0, -490.0, -490.0, -490.0, -490.0, -486.0, -485.0, -483.0, -483.0, -483.0, -483.0, -483.0, -483.0, -483.0, -483.0, -483.0, -481.0, -478.0, -478.0, -474.0, -472.0, -468.0, -462.0, -455.0, -449.0, -444.0, -432.0, -426.0, -404.0, -388.0, -384.0, -366.0, -350.0, -332.0, -308.0, -290.0, -275.0, -261.0, -249.0, -235.0, -201.0, -167.0, -151.0, -102.0, -78.0, -57.0, -25.0, 27.0, 82.0, 140.0, 197.0, 242.0, 311.0, 346.0, 362.0, 402.0, 416.0, 423.0, 426.0, 428.0, 428.0, 430.0, 431.0, 431.0, 431.0, 431.0, 431.0, 431.0, 431.0, 431.0, 431.0, 431.0, 431.0, 431.0, 431.0, 431.0, 431.0, 431.0, 431.0, 431.0, 431.0, 431.0, 431.0, 431.0, 431.0, 431.0, 432.0, 432.0, 433.0, 442.0, 443.0, 445.0, 448.0, 448.0, 448.0, 448.0, 449.0, 450.0, 450.0]	[0.014488978165900335, 0.02167301715235226, 0.027073931705672294, 0.04587763408198953, 0.06201211115694605, 0.07765711648971774, 0.09547880335594527, 0.11228707208647393, 0.1270937631779816, 0.1456168896984309, 0.16222616119193844, 0.17773360924911685, 0.19547986148972996, 0.2122826688864734, 0.2271234932995867, 0.24556708917953074, 0.26213915535481647, 0.2776237341167871, 0.29548330896068364, 0.3122751936898567, 0.32708666345570236, 0.34536983276484534, 0.36216308281291276, 0.3775053256249521, 0.3952652312000282, 0.41223324384191073, 0.4270720202475786, 0.4455104961525649, 0.46217335693654604, 0.4775678237201646, 0.4954219372593798, 0.5122476139804348, 0.5270652277104091, 0.5454600129742175, 0.5621464257710613, 0.5776156445208471, 0.5954417687025853, 0.6122759787540417, 0.627165955142118, 0.6454890604363754, 0.6620583959447686, 0.6775108893634751, 0.6953711468959227, 0.7121913622831926, 0.7270908959908411, 0.7453392492898274, 0.7620843713812064, 0.7775136541458778, 0.7951776451081969, 0.8121784257527906, 0.8271353034069762, 0.8456133739673533, 0.8618567363009788, 0.8775433842674829, 0.8953316205006558, 0.9121719745453447, 0.9270581962482538, 0.945445130841108, 0.9621752342791297, 0.9776676636829507, 0.9953579372959211, 1.0121774700237438, 1.0270360437280033, 1.0453219437040389, 1.0619493058766238, 1.0775581298803445, 1.0951265475305263, 1.1121816001541447, 1.1270616778638214, 1.1453506498364732, 1.162061297276523, 1.1775670386559796, 1.195366197556723, 1.212231468904065, 1.227053861337481, 1.245392667944543, 1.261786558199674, 1.2774694515101146, 1.2951853251142893, 1.3121639190940186, 1.327075740788132, 1.3455009046883788, 1.3618316483334638, 1.377698861528188, 1.3951334766170476, 1.4121912598784547, 1.427105470909737, 1.4454753388417885, 1.4619159917347133, 1.4774992157763336, 1.49534445462632, 1.5121728620142676, 1.5270713717327453, 1.545319383702008, 1.562124239106197, 1.577554545860039, 1.5952926061290782, 1.6122671040939167, 1.6270809631678276]
16	军人	True	animate	inanimate	left	1.13	[0.0, 0.0, 0.0, 0.0, 0.0, 0.0, 0.0, 0.0, 2.0, 2.0, 2.0, 2.0, 2.0, 2.0, 2.0, 2.0, 2.0, 2.0, 2.0, 2.0, 2.0, 2.0, 2.0, 3.0, 3.0, 3.0, 4.0, 4.0, 7.0, 12.0, 16.0, 29.0, 47.0, 70.0, 99.0, 132.0, 158.0, 181.0, 206.0, 224.0, 241.0, 249.0, 252.0, 257.0, 257.0, 235.0, 189.0, 112.0, 10.0, -101.0, -219.0, -343.0, -474.0, -520.0, -537.0, -560.0, -563.0, -564.0, -564.0, -564.0, -568.0, -594.0, -608.0, -655.0, -742.0, -788.0, -820.0, -829.0, -829.0]	[-490.0, -490.0, -490.0, -490.0, -490.0, -490.0, -490.0, -490.0, -490.0, -490.0, -490.0, -490.0, -489.0, -489.0, -488.0, -487.0, -485.0, -484.0, -483.0, -483.0, -482.0, -481.0, -481.0, -480.0, -480.0, -479.0, -477.0, -477.0, -474.0, -470.0, -467.0, -457.0, -444.0, -426.0, -406.0, -383.0, -364.0, -343.0, -321.0, -298.0, -262.0, -237.0, -226.0, -195.0, -174.0, -135.0, -88.0, -26.0, 33.0, 89.0, 141.0, 193.0, 237.0, 249.0, 254.0, 261.0, 263.0, 263.0, 263.0, 263.0, 267.0, 285.0, 295.0, 329.0, 388.0, 417.0, 435.0, 439.0, 439.0]	[0.013792180689051747, 0.018519986275350675, 0.02568354527465999, 0.044045903865480796, 0.06097671121824533, 0.07593700222787447, 0.0943334941403009, 0.1106475124543067, 0.1261000058730133, 0.14386503145215102, 0.16087536938721314, 0.17590665770694613, 0.1941406750411261, 0.21054139197804034, 0.2261386106547434, 0.2440869321289938, 0.26088461952167563, 0.27604185976088047, 0.2942014664586168, 0.3105574687651824, 0.32612840479123406, 0.3440815049398225, 0.3608583710156381, 0.3759309606102761, 0.39414006064180285, 0.4105499935685657, 0.4261222949135117, 0.4441269363742322, 0.460951247747289, 0.4759658107359428, 0.49414726276881993, 0.5105906463286374, 0.5261383717297576, 0.5441000051796436, 0.5608546846196987, 0.5758798289170954, 0.5941008755762596, 0.6107019550981931, 0.6261073445202783, 0.6440375753445551, 0.6608260467473883, 0.6759020496974699, 0.694087597716134, 0.7105091359699145, 0.7260923600115348, 0.7440625267918222, 0.7608714782109018, 0.7759048145089764, 0.7941207411640789, 0.8106832500197925, 0.826106730120955, 0.8439782516506966, 0.8607991496974137, 0.8759280592785217, 0.8940286153519992, 0.9105170549009927, 0.9261941455479246, 0.943817517865682, 0.9608783731237054, 0.9759209254407324, 0.9940945268026553, 1.01039011310786, 1.026189742347924, 1.0439970932493452, 1.0607818099670112, 1.0760332581703551, 1.0942485021660104, 1.1104331552342046, 1.1261198032007087]
17	犯人	True	animate	inanimate	left	1.509	[0.0, 0.0, 0.0, 0.0, 0.0, 0.0, 0.0, 0.0, 0.0, 0.0, 0.0, 0.0, 0.0, 0.0, 0.0, 0.0, 0.0, 0.0, 0.0, 0.0, 0.0, 0.0, 0.0, 0.0, -1.0, 3.0, 21.0, 35.0, 105.0, 165.0, 218.0, 264.0, 302.0, 330.0, 361.0, 385.0, 415.0, 444.0, 464.0, 476.0, 492.0, 508.0, 527.0, 544.0, 547.0, 547.0, 537.0, 493.0, 387.0, 220.0, -96.0, -190.0, -409.0, -485.0, -509.0, -510.0, -510.0, -510.0, -510.0, -510.0, -510.0, -513.0, -524.0, -549.0, -626.0, -715.0, -826.0, -934.0, -960.0, -960.0, -960.0, -960.0, -960.0, -960.0, -960.0, -960.0, -960.0, -960.0, -960.0, -960.0, -960.0, -960.0, -960.0, -960.0, -960.0, -960.0, -960.0, -957.0, -939.0, -930.0, -929.0, -929.0]	[-490.0, -490.0, -490.0, -490.0, -490.0, -490.0, -490.0, -490.0, -490.0, -490.0, -490.0, -490.0, -490.0, -490.0, -490.0, -490.0, -490.0, -490.0, -490.0, -490.0, -490.0, -490.0, -490.0, -490.0, -486.0, -475.0, -445.0, -421.0, -330.0, -272.0, -227.0, -190.0, -156.0, -136.0, -113.0, -94.0, -70.0, -45.0, -22.0, -5.0, 18.0, 39.0, 67.0, 94.0, 111.0, 127.0, 146.0, 183.0, 235.0, 311.0, 407.0, 430.0, 470.0, 481.0, 483.0, 483.0, 483.0, 483.0, 483.0, 483.0, 483.0, 483.0, 482.0, 479.0, 478.0, 478.0, 491.0, 505.0, 508.0, 508.0, 508.0, 508.0, 508.0, 508.0, 508.0, 508.0, 508.0, 508.0, 508.0, 508.0, 508.0, 508.0, 508.0, 508.0, 508.0, 508.0, 508.0, 501.0, 479.0, 473.0, 471.0, 471.0]	[0.007987810298800468, 0.012611509271664545, 0.01681536846444942, 0.032977834838675335, 0.04936592245940119, 0.06469280525925569, 0.08256808144506067, 0.09948523546336219, 0.11425813456298783, 0.13260888782679103, 0.14936424992629327, 0.16609606001293287, 0.18258484092075378, 0.19948800024576485, 0.21438753395341337, 0.2327946072036866, 0.24935848137829453, 0.26484135346254334, 0.2824862297566142, 0.29952967702411115, 0.3145357066823635, 0.3328120493388269, 0.3491462063102517, 0.3647652702929918, 0.3824900185572915, 0.39953483117278665, 0.41456714348169044, 0.4328137901320588, 0.4493124696891755, 0.4647089844511356, 0.4825491033261642, 0.49941642268095165, 0.5145978975924663, 0.5328093869320583, 0.5492606211628299, 0.5647015092545189, 0.5824832601647358, 0.5994290861417539, 0.6145709663978778, 0.6327220397652127, 0.6491684953507502, 0.664773906028131, 0.6824457476614043, 0.6994181976187974, 0.7145928458485287, 0.7327077379159164, 0.7492053934547585, 0.7646947508619633, 0.7824382724647876, 0.7994093571032863, 0.8145508960005827, 0.8326640813902486, 0.8490391983650625, 0.8647166303126141, 0.882324301317567, 0.8993827672384214, 0.9142799116089009, 0.9326118915632833, 0.9492324270540848, 0.9647784457483795, 0.9823499354242813, 0.9993909933837131, 1.014506249630358, 1.0327276376483496, 1.049201741203433, 1.0647341065923683, 1.0823567962215748, 1.099441886151908, 1.1145864970458206, 1.1328082263935357, 1.149188804673031, 1.1647791966970544, 1.1823390810459387, 1.1994210989505518, 1.214542499219533, 1.2327096152585, 1.2492110254534055, 1.2647573855065275, 1.2824469764600508, 1.2995006637065671, 1.3145244426850695, 1.3327253507159185, 1.3489728090644348, 1.3647673183004372, 1.3822852186567616, 1.3993713325762656, 1.4145282314857468, 1.4326769155159127, 1.4492687790479977, 1.4647700831119437, 1.4823326980986167, 1.4994351960194763]
18	鸡蛋	False	animate	inanimate	left	1.214	[0.0, 0.0, 0.0, 0.0, 0.0, 0.0, 0.0, 0.0, 0.0, 0.0, 0.0, 0.0, 0.0, 0.0, 0.0, 0.0, 0.0, 0.0, 0.0, 0.0, 0.0, 0.0, 0.0, 0.0, -2.0, -3.0, -3.0, -3.0, 0.0, 6.0, 12.0, 41.0, 64.0, 94.0, 119.0, 145.0, 171.0, 203.0, 233.0, 264.0, 307.0, 329.0, 337.0, 357.0, 365.0, 365.0, 358.0, 318.0, 211.0, 53.0, -161.0, -388.0, -661.0, -780.0, -827.0, -920.0, -947.0, -954.0, -954.0, -954.0, -954.0, -954.0, -954.0, -954.0, -954.0, -954.0, -954.0, -950.0, -933.0, -915.0, -899.0, -892.0, -892.0]	[-490.0, -490.0, -490.0, -490.0, -490.0, -490.0, -490.0, -490.0, -490.0, -490.0, -490.0, -490.0, -490.0, -490.0, -490.0, -490.0, -490.0, -490.0, -490.0, -490.0, -490.0, -490.0, -490.0, -490.0, -491.0, -490.0, -482.0, -469.0, -442.0, -420.0, -408.0, -350.0, -310.0, -266.0, -232.0, -199.0, -167.0, -129.0, -90.0, -52.0, -7.0, 18.0, 28.0, 57.0, 74.0, 91.0, 113.0, 147.0, 202.0, 268.0, 340.0, 414.0, 472.0, 490.0, 494.0, 510.0, 514.0, 515.0, 515.0, 515.0, 515.0, 515.0, 515.0, 515.0, 515.0, 515.0, 515.0, 508.0, 496.0, 487.0, 480.0, 477.0, 477.0]	[0.016222131438553333, 0.021192624873947352, 0.030718209338374436, 0.04894028001581319, 0.06578097539022565, 0.08082728236331604, 0.09910464900895022, 0.1154145713080652, 0.13095888335374184, 0.14873346625245176, 0.1657281028747093, 0.1808010338281747, 0.19903948850696906, 0.21537671747501008, 0.23095038416795433, 0.24894307894282974, 0.26579060099902563, 0.2807925346423872, 0.29907945860759355, 0.31541156757157296, 0.3310347275692038, 0.34895505974418484, 0.3657397764909547, 0.38074068614514545, 0.3990784687339328, 0.41567579357069917, 0.4310040417185519, 0.4489397338766139, 0.46570431196596473, 0.48079157891334035, 0.4989993135968689, 0.5154024198418483, 0.5309750625456218, 0.5489360133360606, 0.5656954714213498, 0.5808738743362483, 0.5989785263955127, 0.6153355526912492, 0.6309443766949698, 0.6486534236173611, 0.6656466949207243, 0.6807595618593041, 0.6989587632124312, 0.7153311494912487, 0.7310515894496348, 0.7489060442894697, 0.765810568962479, 0.7807357026613317, 0.7990287706488743, 0.8152690609858837, 0.8309867702773772, 0.848805043817265, 0.8656655365193728, 0.8807674807903823, 0.8989520048198756, 0.9152240391413216, 0.9310311777226161, 0.9487962033017538, 0.9657689945888706, 0.9805214137013536, 0.998954086942831, 1.015277662576409, 1.0309957131976262, 1.0489481306867674, 1.0656901807815302, 1.080818407703191, 1.0989500250725541, 1.115261654049391, 1.1310776672908105, 1.148917786165839, 1.1658045615185983, 1.180778164503863, 1.198960640525911]
19	衬衫	False	animate	inanimate	right	1.952	[0.0, 0.0, 0.0, 0.0, 0.0, 0.0, 0.0, 0.0, 0.0, 0.0, 0.0, 0.0, 0.0, 0.0, 0.0, 0.0, 0.0, 0.0, 0.0, 0.0, 0.0, 0.0, 0.0, 0.0, 0.0, 0.0, 1.0, 3.0, 9.0, 17.0, 26.0, 36.0, 49.0, 65.0, 90.0, 104.0, 109.0, 127.0, 136.0, 141.0, 147.0, 152.0, 155.0, 155.0, 156.0, 156.0, 158.0, 158.0, 158.0, 158.0, 159.0, 159.0, 159.0, 159.0, 159.0, 159.0, 145.0, 111.0, 63.0, 45.0, 36.0, 31.0, 31.0, 31.0, 39.0, 51.0, 68.0, 97.0, 144.0, 188.0, 237.0, 259.0, 267.0, 279.0, 292.0, 319.0, 364.0, 410.0, 439.0, 461.0, 487.0, 521.0, 546.0, 555.0, 562.0, 562.0, 564.0, 572.0, 587.0, 606.0, 625.0, 647.0, 668.0, 684.0, 693.0, 694.0, 695.0, 695.0, 695.0, 695.0, 695.0, 698.0, 706.0, 708.0, 708.0, 708.0, 708.0, 708.0, 708.0, 708.0, 711.0, 714.0, 718.0, 722.0, 723.0, 725.0, 725.0, 725.0]	[-490.0, -492.0, -493.0, -493.0, -495.0, -495.0, -495.0, -495.0, -495.0, -495.0, -495.0, -496.0, -496.0, -498.0, -498.0, -498.0, -498.0, -498.0, -498.0, -498.0, -498.0, -498.0, -498.0, -498.0, -498.0, -491.0, -482.0, -473.0, -462.0, -450.0, -434.0, -418.0, -403.0, -384.0, -359.0, -342.0, -334.0, -308.0, -293.0, -281.0, -267.0, -254.0, -245.0, -242.0, -241.0, -241.0, -237.0, -235.0, -235.0, -234.0, -233.0, -233.0, -233.0, -233.0, -232.0, -226.0, -210.0, -188.0, -170.0, -164.0, -161.0, -156.0, -156.0, -149.0, -137.0, -121.0, -103.0, -80.0, -46.0, -14.0, 18.0, 34.0, 39.0, 48.0, 56.0, 73.0, 98.0, 126.0, 141.0, 156.0, 175.0, 202.0, 222.0, 229.0, 232.0, 232.0, 233.0, 236.0, 246.0, 253.0, 263.0, 274.0, 282.0, 290.0, 295.0, 295.0, 297.0, 297.0, 297.0, 298.0, 298.0, 305.0, 315.0, 317.0, 317.0, 317.0, 317.0, 317.0, 317.0, 326.0, 342.0, 364.0, 380.0, 388.0, 390.0, 393.0, 393.0, 393.0]	[0.015096755989361554, 0.02007475879509002, 0.03281433627125807, 0.04674994511879049, 0.06358586184796877, 0.07826523567200638, 0.09691875145654194, 0.11343449764535762, 0.12880575377494097, 0.14655985668650828, 0.1634903226804454, 0.1785499416582752, 0.19681297230999917, 0.21327854253468104, 0.22880612924927846, 0.24664658945403062, 0.2635504314675927, 0.27855270644067787, 0.29684475040994585, 0.31317685937392525, 0.3287153687560931, 0.3466401382465847, 0.363631702872226, 0.37834759935503826, 0.3967676432512235, 0.41319873885367997, 0.4287437335588038, 0.4467654416512232, 0.4636351503431797, 0.47839883345295675, 0.49688987465924583, 0.5134356581838802, 0.5287895063229371, 0.5466791185026523, 0.5634713445615489, 0.5785589528386481, 0.5967356261971872, 0.6131476071313955, 0.6287301484844647, 0.6464811793994159, 0.6634860560297966, 0.678500277659623, 0.6967670629965141, 0.7131145319435745, 0.7287759212777019, 0.746642322774278, 0.7634874554933049, 0.7785532184352633, 0.7967766544607002, 0.8131783953867853, 0.8288660673424602, 0.8465013863169588, 0.8635185509338044, 0.8785385752562433, 0.8967886352329515, 0.9131412242131773, 0.928848352166824, 0.9467666363343596, 0.9637216783012263, 0.9786365719919559, 0.9967896933667362, 1.0131569596705958, 1.0288715969363693, 1.0465168145892676, 1.0636264804925304, 1.0786512834602036, 1.0967047355661634, 1.1132669030630495, 1.1287763991276734, 1.1466564539878163, 1.1634152293845546, 1.1786246935953386, 1.19670442835195, 1.2131208466016687, 1.2287791639391799, 1.2466459067945834, 1.263447007513605, 1.2787121090223081, 1.2967307451472152, 1.3130696807638742, 1.3287334594351705, 1.3467271781992167, 1.3634610362933017, 1.3785909698926844, 1.396770373918116, 1.4130895122361835, 1.4287724055466242, 1.4466725990350824, 1.4634214757825248, 1.4786432280088775, 1.496682685421547, 1.513057802367257, 1.5288212503073737, 1.5466077798628248, 1.5635123045358341, 1.5785620248352643, 1.5968301754910499, 1.6130424765287898, 1.6287482391344383, 1.6465767526824493, 1.663496978697367, 1.6785146136535332, 1.696704257687088, 1.7130401213362347, 1.7287663639290258, 1.7466365201107692, 1.7636253540986218, 1.7785706264257897, 1.7967469584546052, 1.8130961340793874, 1.8287394327635411, 1.846578527620295, 1.8634581349615473, 1.8785238979326095, 1.8966503953270148, 1.9130135656159837, 1.92878384020878, 1.9465952870668843]
20	电视	False	animate	inanimate	right	0.916	[0.0, 0.0, 0.0, 0.0, 0.0, 0.0, 0.0, 0.0, 0.0, 0.0, 0.0, 0.0, 0.0, 0.0, 0.0, 0.0, 0.0, 0.0, 0.0, 0.0, 0.0, 0.0, 0.0, 0.0, 0.0, 0.0, 0.0, 0.0, 1.0, 5.0, 11.0, 27.0, 45.0, 66.0, 102.0, 157.0, 225.0, 297.0, 363.0, 430.0, 502.0, 559.0, 613.0, 685.0, 727.0, 764.0, 798.0, 838.0, 859.0, 875.0, 883.0, 887.0, 887.0, 887.0, 887.0, 887.0]	[-490.0, -490.0, -490.0, -490.0, -490.0, -490.0, -490.0, -490.0, -488.0, -487.0, -487.0, -486.0, -486.0, -486.0, -486.0, -486.0, -486.0, -485.0, -484.0, -482.0, -481.0, -481.0, -478.0, -477.0, -476.0, -475.0, -471.0, -462.0, -455.0, -447.0, -435.0, -407.0, -382.0, -352.0, -304.0, -249.0, -191.0, -128.0, -78.0, -27.0, 34.0, 86.0, 145.0, 230.0, 278.0, 324.0, 364.0, 405.0, 429.0, 446.0, 458.0, 464.0, 465.0, 465.0, 465.0, 465.0]	[0.01274872521753423, 0.01756118141929619, 0.02827221594634466, 0.04166339841322042, 0.058646429737564176, 0.07372652867343277, 0.0921219965966884, 0.10852032419643365, 0.1239393669529818, 0.14165387523826212, 0.15864714651252143, 0.17375352812814526, 0.19195102280355059, 0.20848895568633452, 0.22388717712601647, 0.24165732268011197, 0.25864308467134833, 0.2736538929748349, 0.29193228360963985, 0.3085616937605664, 0.32392612323747016, 0.34169319679494947, 0.3586397054605186, 0.37342694055405445, 0.392071581678465, 0.4085770878882613, 0.42395653601852246, 0.44166080429567955, 0.4586609022517223, 0.47342765735811554, 0.49188217590563, 0.5084866687539034, 0.5238992261874955, 0.5416802944091614, 0.5586278270639013, 0.5737929179740604, 0.5920631166081876, 0.6084849962207954, 0.6239228123158682, 0.6415577899315394, 0.658537749259267, 0.6735478749033064, 0.6917952042131219, 0.7083976490539499, 0.7238958811212797, 0.7415281280991621, 0.7585630420362577, 0.7736871729721315, 0.7921160915284418, 0.808456392493099, 0.8239457499003038, 0.8416479701700155, 0.8586548947787378, 0.8734895751986187, 0.8919778857380152, 0.9084936319268309]
21	花瓶	False	inanimate	animate	left	1.427	[0.0, 0.0, 2.0, 6.0, 12.0, 20.0, 25.0, 27.0, 28.0, 28.0, 28.0, 28.0, 28.0, 28.0, 28.0, 28.0, 28.0, 28.0, 28.0, 28.0, 28.0, 28.0, 28.0, 31.0, 36.0, 47.0, 57.0, 71.0, 89.0, 106.0, 129.0, 161.0, 202.0, 247.0, 288.0, 321.0, 364.0, 443.0, 501.0, 526.0, 577.0, 613.0, 650.0, 681.0, 706.0, 723.0, 731.0, 734.0, 734.0, 716.0, 658.0, 607.0, 380.0, 168.0, -61.0, -269.0, -439.0, -566.0, -626.0, -649.0, -650.0, -650.0, -650.0, -650.0, -650.0, -650.0, -650.0, -650.0, -650.0, -650.0, -650.0, -650.0, -650.0, -650.0, -650.0, -650.0, -650.0, -650.0, -650.0, -650.0, -650.0, -651.0, -655.0, -665.0, -674.0, -677.0]	[-490.0, -487.0, -484.0, -480.0, -473.0, -466.0, -463.0, -461.0, -461.0, -461.0, -461.0, -461.0, -461.0, -461.0, -461.0, -461.0, -461.0, -461.0, -461.0, -461.0, -461.0, -461.0, -459.0, -452.0, -442.0, -419.0, -401.0, -377.0, -352.0, -327.0, -298.0, -265.0, -223.0, -179.0, -141.0, -111.0, -65.0, 16.0, 74.0, 103.0, 176.0, 224.0, 276.0, 327.0, 372.0, 403.0, 430.0, 438.0, 456.0, 487.0, 518.0, 532.0, 540.0, 540.0, 540.0, 540.0, 523.0, 503.0, 486.0, 479.0, 479.0, 479.0, 479.0, 479.0, 479.0, 479.0, 479.0, 479.0, 479.0, 479.0, 479.0, 479.0, 479.0, 479.0, 479.0, 479.0, 479.0, 479.0, 479.0, 479.0, 479.0, 477.0, 477.0, 476.0, 475.0, 473.0]	[0.012562493851874024, 0.01999024470569566, 0.025627703143982217, 0.042019545420771465, 0.05842981970636174, 0.07374065986368805, 0.09148213342996314, 0.10853547937585972, 0.12352853835909627, 0.14187656095600687, 0.15834247253951617, 0.17375332332449034, 0.19173577812034637, 0.20846588152926415, 0.22359376712120138, 0.24179023780743591, 0.25816842674976215, 0.27364959215628915, 0.291695876250742, 0.30849527032114565, 0.32357161460095085, 0.3417404373176396, 0.35818347954773344, 0.3737912795622833, 0.3917238997237291, 0.40850349646643735, 0.4234149768308271, 0.4418968020181637, 0.45838012159219943, 0.473805991030531, 0.49167478186427616, 0.508548927900847, 0.5235597362043336, 0.5416934016102459, 0.558244305109838, 0.573732638527872, 0.5916178133629728, 0.6083741994516458, 0.6235601116786711, 0.6417029930453282, 0.6580743553349748, 0.6737572486454155, 0.6915488982049283, 0.7085005268454552, 0.723517479171278, 0.7416818645433523, 0.7580105601809919, 0.7737426054663956, 0.7914451670658309, 0.8084374143509194, 0.8235850972705521, 0.8417064746608958, 0.8579962583025917, 0.8737463942670729, 0.8913329025672283, 0.908618355053477, 0.9236301873752382, 0.9417788714345079, 0.9582051883335225, 0.973713319079252, 0.991424072679365, 1.0084873172745574, 1.0235278215550352, 1.041709614917636, 1.0579973505809903, 1.073809267807519, 1.091554837388685, 1.1085890686663333, 1.1235094237199519, 1.1417785983649082, 1.158004894037731, 1.1737628806440625, 1.1915610155265313, 1.2086542974575423, 1.223573969793506, 1.2417229951824993, 1.2580414508411195, 1.2737618907704018, 1.2915630976494867, 1.3084300757036544, 1.323637491906993, 1.341648277360946, 1.3579936983296648, 1.373796399566345, 1.3916129664285108, 1.4084379604901187]
22	司机	True	animate	inanimate	left	1.3	[0.0, 0.0, 0.0, 0.0, 0.0, 0.0, 0.0, 0.0, 0.0, 0.0, 0.0, 0.0, 0.0, 0.0, 0.0, 0.0, 0.0, 0.0, 0.0, 0.0, 0.0, 0.0, 0.0, 0.0, 1.0, 4.0, 5.0, 8.0, 11.0, 16.0, 22.0, 29.0, 37.0, 46.0, 67.0, 85.0, 96.0, 153.0, 203.0, 255.0, 309.0, 366.0, 415.0, 454.0, 484.0, 530.0, 594.0, 658.0, 700.0, 720.0, 724.0, 730.0, 737.0, 741.0, 743.0, 735.0, 712.0, 658.0, 558.0, 324.0, 217.0, -119.0, -332.0, -497.0, -638.0, -724.0, -771.0, -791.0, -794.0, -794.0, -794.0, -794.0, -794.0, -794.0, -794.0, -794.0, -794.0, -794.0]	[-490.0, -490.0, -490.0, -490.0, -490.0, -490.0, -490.0, -490.0, -488.0, -487.0, -485.0, -485.0, -485.0, -485.0, -485.0, -485.0, -485.0, -485.0, -485.0, -485.0, -485.0, -485.0, -485.0, -483.0, -481.0, -474.0, -467.0, -458.0, -448.0, -440.0, -431.0, -420.0, -409.0, -399.0, -382.0, -367.0, -360.0, -319.0, -285.0, -248.0, -210.0, -172.0, -141.0, -113.0, -92.0, -55.0, 1.0, 64.0, 122.0, 188.0, 220.0, 245.0, 266.0, 288.0, 312.0, 335.0, 357.0, 383.0, 410.0, 445.0, 460.0, 488.0, 488.0, 488.0, 488.0, 488.0, 488.0, 488.0, 488.0, 488.0, 488.0, 488.0, 488.0, 488.0, 488.0, 488.0, 488.0, 488.0]	[0.0019021814223378897, 0.006879160209791735, 0.01844455162063241, 0.037119571381481364, 0.05345680034952238, 0.06898677640128881, 0.08681733795674518, 0.10360615068930201, 0.11844253775780089, 0.13678851234726608, 0.15364286105614156, 0.16890454923850484, 0.18666001749807037, 0.20366216346155852, 0.2184784118726384, 0.23697252507554367, 0.2535237699339632, 0.26897285002633, 0.2869252674863674, 0.30361918959533796, 0.3186166859231889, 0.3368769859080203, 0.3535596440488007, 0.3690029214776587, 0.38689048564992845, 0.4036673517257441, 0.41847882146248594, 0.4367616494419053, 0.45360029680887237, 0.46899988359655254, 0.4868294211337343, 0.5035936578933615, 0.5186764874961227, 0.5369040195073467, 0.5535293336433824, 0.569051117694471, 0.5866516206879169, 0.6036814146500546, 0.6184546550794039, 0.6368678723229095, 0.653284631902352, 0.6690231625107117, 0.6867834094155114, 0.7035732461663429, 0.7187891957000829, 0.7368235331377946, 0.7534181273076683, 0.768942300695926, 0.7865864943305496, 0.8035210563102737, 0.8184612086624838, 0.8368286872573663, 0.8534427374252118, 0.8690751134417951, 0.8868019096844364, 0.9036170050676446, 0.9184520268172491, 0.9368072174256667, 0.9534096622373909, 0.9689222302986309, 0.9867213891993742, 1.0036218178865965, 1.018672220845474, 1.0369140888215043, 1.0534830830001738, 1.0690280777052976, 1.086832015280379, 1.1035744067048654, 1.1184671137307305, 1.1367697390378453, 1.1531673839781433, 1.1689820318715647, 1.1867624174337834, 1.203566590178525, 1.2186671691015363, 1.2369042584323324, 1.2533930393110495, 1.2689779700012878]
23	饭店	False	inanimate	animate	left	1.69	[0.0, 0.0, 0.0, 0.0, 0.0, 0.0, 0.0, 0.0, 0.0, 0.0, 0.0, 0.0, 0.0, 0.0, 0.0, 0.0, 0.0, 0.0, 0.0, 0.0, 0.0, 0.0, 0.0, 0.0, 1.0, 1.0, 1.0, 1.0, 1.0, 1.0, 1.0, 1.0, 1.0, 1.0, 1.0, 1.0, 2.0, 3.0, 3.0, 3.0, 3.0, 3.0, 3.0, 3.0, 3.0, 3.0, 3.0, 3.0, 3.0, 3.0, 3.0, 3.0, 3.0, 4.0, 7.0, 8.0, 15.0, 23.0, 35.0, 45.0, 64.0, 88.0, 116.0, 148.0, 181.0, 202.0, 216.0, 223.0, 233.0, 242.0, 282.0, 323.0, 364.0, 400.0, 429.0, 460.0, 490.0, 514.0, 527.0, 534.0, 541.0, 546.0, 546.0, 535.0, 491.0, 390.0, 243.0, 70.0, -121.0, -333.0, -512.0, -664.0, -770.0, -842.0, -900.0, -920.0, -929.0, -932.0, -932.0, -932.0, -932.0, -932.0]	[-490.0, -490.0, -490.0, -490.0, -490.0, -490.0, -490.0, -490.0, -490.0, -490.0, -490.0, -490.0, -490.0, -490.0, -490.0, -490.0, -490.0, -490.0, -490.0, -490.0, -490.0, -490.0, -490.0, -490.0, -491.0, -491.0, -491.0, -491.0, -491.0, -491.0, -491.0, -491.0, -491.0, -491.0, -491.0, -491.0, -490.0, -489.0, -489.0, -489.0, -489.0, -489.0, -489.0, -489.0, -489.0, -489.0, -489.0, -489.0, -489.0, -489.0, -489.0, -489.0, -489.0, -488.0, -486.0, -485.0, -481.0, -477.0, -472.0, -470.0, -467.0, -461.0, -459.0, -450.0, -441.0, -436.0, -432.0, -430.0, -422.0, -415.0, -383.0, -352.0, -318.0, -284.0, -253.0, -218.0, -171.0, -129.0, -100.0, -78.0, -57.0, -35.0, -6.0, 18.0, 63.0, 115.0, 173.0, 222.0, 274.0, 324.0, 357.0, 381.0, 400.0, 416.0, 425.0, 429.0, 429.0, 429.0, 429.0, 429.0, 429.0, 429.0]	[0.0072952453047037125, 0.012204298807773739, 0.018157831742428243, 0.031725142122013494, 0.04797260047052987, 0.0634868752094917, 0.08137990071554668, 0.09823527341359295, 0.11316177243134007, 0.1315842056646943, 0.14811394654680043, 0.16349851465201937, 0.1812481802480761, 0.19824861953384243, 0.21330653183395043, 0.23162110379780643, 0.2481194419960957, 0.2635531621053815, 0.2814393609587569, 0.29825684567913413, 0.31476439989637583, 0.33159553792211227, 0.3480819294927642, 0.36350404427503236, 0.3813666911155451, 0.3982606344798114, 0.41326598144951276, 0.43156348675256595, 0.44812736092717387, 0.46356278768507764, 0.48126910396968015, 0.49818762330687605, 0.5130219623679295, 0.5315403102140408, 0.5480796084157191, 0.5635010405385401, 0.581257874117, 0.5981978974305093, 0.6133039376873057, 0.6315174750343431, 0.6479311626462732, 0.6635853839397896, 0.6812326495710295, 0.6981422942481004, 0.7132647185062524, 0.7315939677937422, 0.7481639859906863, 0.7635403621243313, 0.7812453130318318, 0.7982232243521139, 0.8132606566650793, 0.8315789832849987, 0.8479278175800573, 0.8635137722594664, 0.8812204298446886, 0.8982495411473792, 0.9133316880906932, 0.9315643400768749, 0.9481585929170251, 0.9635052730736788, 0.9813122826162726, 0.9982103219663259, 1.0133897488412913, 1.0316316168464255, 1.0481661363737658, 1.0635698191763368, 1.0813181193952914, 1.0981830494420137, 1.1133181030163541, 1.1314978483715095, 1.148081178573193, 1.1634804240020458, 1.1814717534580268, 1.1982100488967262, 1.2133539771311916, 1.2316641117504332, 1.2481532339879777, 1.2635548687831033, 1.281196673080558, 1.2981438644055743, 1.3130283794307616, 1.331456273997901, 1.3480355081846938, 1.3634811749507207, 1.38134348046151, 1.3981459465285297, 1.413349608075805, 1.4315805534133688, 1.4479778570239432, 1.4635074917168822, 1.4811114080366679, 1.4981644126528408, 1.5131253863219172, 1.5315075422404334, 1.5479447818361223, 1.563487387204077, 1.5811114421812817, 1.5981395294656977, 1.613037697825348, 1.631359437800711, 1.6479601759638172, 1.6634679653507192]
24	袜子	False	animate	inanimate	right	1.534	[0.0, 2.0, 2.0, 2.0, 2.0, 2.0, 2.0, 2.0, 2.0, 2.0, 2.0, 2.0, 2.0, 2.0, 2.0, 2.0, 2.0, 2.0, 2.0, 2.0, 2.0, 2.0, 2.0, 2.0, 2.0, 2.0, 2.0, 2.0, 2.0, 2.0, 6.0, 10.0, 16.0, 26.0, 40.0, 53.0, 73.0, 97.0, 116.0, 140.0, 175.0, 195.0, 212.0, 226.0, 250.0, 273.0, 313.0, 323.0, 334.0, 342.0, 344.0, 344.0, 344.0, 344.0, 346.0, 347.0, 347.0, 347.0, 345.0, 345.0, 345.0, 345.0, 346.0, 360.0, 410.0, 456.0, 505.0, 548.0, 582.0, 607.0, 628.0, 651.0, 677.0, 700.0, 729.0, 734.0, 743.0, 743.0, 743.0, 741.0, 739.0, 739.0, 739.0, 739.0, 739.0, 739.0, 740.0, 743.0, 743.0, 743.0, 743.0, 743.0]	[-490.0, -492.0, -492.0, -492.0, -492.0, -492.0, -492.0, -492.0, -492.0, -492.0, -492.0, -492.0, -492.0, -492.0, -492.0, -492.0, -492.0, -492.0, -492.0, -492.0, -492.0, -492.0, -492.0, -492.0, -490.0, -488.0, -485.0, -483.0, -478.0, -474.0, -467.0, -459.0, -450.0, -439.0, -420.0, -401.0, -366.0, -319.0, -289.0, -265.0, -234.0, -216.0, -198.0, -180.0, -160.0, -133.0, -78.0, -64.0, -42.0, -19.0, 2.0, 20.0, 37.0, 45.0, 57.0, 68.0, 79.0, 89.0, 93.0, 94.0, 96.0, 98.0, 101.0, 111.0, 128.0, 143.0, 166.0, 182.0, 195.0, 204.0, 213.0, 222.0, 233.0, 245.0, 267.0, 277.0, 296.0, 305.0, 310.0, 314.0, 320.0, 323.0, 326.0, 330.0, 334.0, 342.0, 352.0, 366.0, 382.0, 385.0, 388.0, 390.0]	[0.016225339961238205, 0.021457977301906794, 0.03072107653133571, 0.049280725710559636, 0.06543124542804435, 0.08103426679736003, 0.09885117498924956, 0.11577549698995426, 0.13080234796507284, 0.149095074593788, 0.1655763461603783, 0.1810223542561289, 0.1987737265008036, 0.21582570709870197, 0.23052590223960578, 0.24905517275328748, 0.2654319963767193, 0.2810537910554558, 0.2988526085973717, 0.3157602052669972, 0.330749850923894, 0.34903370289248414, 0.36558153442456387, 0.38096268923254684, 0.39876696810824797, 0.4157469274068717, 0.4306147171300836, 0.44910746498499066, 0.4654641499510035, 0.48103303799871355, 0.4990933167282492, 0.5157537882041652, 0.5307553805178031, 0.5490706351411063, 0.5653505201626103, 0.5809869921358768, 0.5988684123149142, 0.615707059710985, 0.630731180019211, 0.6489532506675459, 0.6655676421651151, 0.6809945355926175, 0.6988111024838872, 0.7156685231893789, 0.7305308515788056, 0.7490235994337127, 0.765540369640803, 0.7810498657054268, 0.798906368581811, 0.8156825519690756, 0.8305261070490815, 0.8489365936256945, 0.865344478545012, 0.8810406838601921, 0.8986333361826837, 0.9157283247623127, 0.9307947703637183, 0.9492503129295073, 0.96534929133486, 0.9810523233027197, 0.998661359626567, 1.0155880709644407, 1.0308033378387336, 1.0489653338736389, 1.0655353520414792, 1.080964976164978, 1.0987033777346369, 1.115634526417125, 1.1308801719278563, 1.1491517359099817, 1.1655913648137357, 1.181025426252745, 1.1986682545684744, 1.2155983792326879, 1.230549112893641, 1.2489971461181995, 1.265470225684112, 1.2809793804190122, 1.298859776579775, 1.315808674582513, 1.3308522508887108, 1.3490238042431884, 1.3654518278199248, 1.3810299318574835, 1.3986051761894487, 1.4156312154664192, 1.430828733020462, 1.448915294429753, 1.4654300166293979, 1.4809903713467065, 1.4987188742670696, 1.5157896282034926]
25	筷子	False	animate	inanimate	right	0.895	[0.0, 0.0, 0.0, 0.0, 0.0, 0.0, 0.0, 5.0, 5.0, 5.0, 5.0, 6.0, 6.0, 6.0, 6.0, 6.0, 7.0, 7.0, 8.0, 10.0, 13.0, 18.0, 27.0, 35.0, 46.0, 62.0, 80.0, 98.0, 119.0, 140.0, 160.0, 183.0, 208.0, 245.0, 294.0, 337.0, 378.0, 419.0, 459.0, 492.0, 526.0, 563.0, 592.0, 621.0, 653.0, 691.0, 739.0, 756.0, 763.0, 769.0, 775.0, 781.0, 785.0, 788.0, 788.0]	[-490.0, -490.0, -490.0, -490.0, -490.0, -490.0, -490.0, -492.0, -492.0, -492.0, -492.0, -492.0, -492.0, -492.0, -492.0, -492.0, -492.0, -492.0, -492.0, -492.0, -492.0, -489.0, -484.0, -479.0, -471.0, -462.0, -454.0, -446.0, -433.0, -421.0, -410.0, -393.0, -370.0, -329.0, -282.0, -246.0, -208.0, -172.0, -131.0, -93.0, -53.0, -8.0, 43.0, 101.0, 178.0, 267.0, 381.0, 416.0, 436.0, 452.0, 465.0, 477.0, 488.0, 495.0, 495.0]	[0.007984738302184269, 0.012512181332567707, 0.016629683232167736, 0.033034496154868975, 0.04918911188724451, 0.06480032522813417, 0.08256398545927368, 0.09956271809642203, 0.11443835846148431, 0.1329133570252452, 0.1493922392546665, 0.1648730633314699, 0.18255036626942456, 0.19953612823155709, 0.21453498987830244, 0.23287277249619365, 0.24937486537965015, 0.26481165748555213, 0.28255483772954904, 0.29948018371942453, 0.31455823467695154, 0.33289635862456635, 0.3493230168824084, 0.364813398278784, 0.3825890051666647, 0.39955155650386587, 0.41460400744108483, 0.43295612605288625, 0.4493401176587213, 0.4648226484132465, 0.48260508198291063, 0.4995102893153671, 0.5145808309316635, 0.5328428375942167, 0.5493514158006292, 0.5647926452220418, 0.5825682521390263, 0.5994850647985004, 0.6145791583985556, 0.6329244503285736, 0.6493033219594508, 0.6648145246726926, 0.6826232408930082, 0.6994038616248872, 0.7145450592215639, 0.7327630338841118, 0.7492992600891739, 0.7648292361409403, 0.7825434030673932, 0.7994127704296261, 0.8145130080229137, 0.8328879959590267, 0.8490047237137333, 0.8647685129835736, 0.8823765252891462]
26	教室	False	inanimate	animate	left	1.517	[0.0, 0.0, 0.0, 0.0, 0.0, 0.0, 0.0, 0.0, 0.0, 0.0, 0.0, 0.0, 0.0, 0.0, 0.0, 0.0, 0.0, 0.0, 0.0, 0.0, 0.0, 0.0, 0.0, 0.0, 0.0, 0.0, 0.0, 3.0, 8.0, 18.0, 33.0, 54.0, 75.0, 104.0, 143.0, 165.0, 181.0, 200.0, 218.0, 241.0, 264.0, 281.0, 297.0, 310.0, 327.0, 332.0, 344.0, 349.0, 353.0, 356.0, 358.0, 359.0, 359.0, 357.0, 356.0, 356.0, 358.0, 366.0, 390.0, 417.0, 447.0, 484.0, 502.0, 505.0, 504.0, 469.0, 370.0, 210.0, 19.0, -192.0, -452.0, -561.0, -602.0, -608.0, -608.0, -608.0, -608.0, -608.0, -608.0, -608.0, -619.0, -650.0, -697.0, -711.0, -719.0, -722.0, -722.0, -722.0, -722.0, -722.0, -722.0]	[-490.0, -490.0, -490.0, -490.0, -490.0, -490.0, -490.0, -490.0, -490.0, -490.0, -490.0, -490.0, -490.0, -490.0, -490.0, -490.0, -490.0, -488.0, -485.0, -482.0, -480.0, -479.0, -477.0, -475.0, -474.0, -472.0, -470.0, -466.0, -460.0, -451.0, -438.0, -417.0, -391.0, -349.0, -296.0, -271.0, -252.0, -231.0, -210.0, -186.0, -164.0, -143.0, -123.0, -102.0, -72.0, -62.0, -29.0, -11.0, 6.0, 25.0, 44.0, 66.0, 80.0, 92.0, 100.0, 108.0, 120.0, 132.0, 154.0, 171.0, 185.0, 205.0, 217.0, 222.0, 228.0, 239.0, 265.0, 286.0, 315.0, 342.0, 375.0, 383.0, 383.0, 383.0, 383.0, 383.0, 383.0, 383.0, 383.0, 383.0, 383.0, 383.0, 383.0, 383.0, 381.0, 381.0, 381.0, 381.0, 381.0, 381.0, 381.0]	[0.00028528625261969864, 0.005536355572985485, 0.015437747846590355, 0.034091946290573105, 0.05042337259510532, 0.06581681538955308, 0.08366273689898662, 0.1005051389511209, 0.11549546726746485, 0.13378682857728563, 0.1501923241885379, 0.1656874842592515, 0.18355456844437867, 0.20048264510114677, 0.21551768807694316, 0.2337711613799911, 0.2501087316777557, 0.2657281370193232, 0.2834979412727989, 0.30047073255991563, 0.31553513018297963, 0.3337589075381402, 0.35044532030588016, 0.3657704964571167, 0.38356043936801143, 0.40048134804237634, 0.41564404958626255, 0.4339043495710939, 0.4501442986074835, 0.46576302126049995, 0.4837092947564088, 0.5004417875315994, 0.5155311024573166, 0.5337770664482377, 0.5503033939749002, 0.5657183407747652, 0.5834567423444241, 0.6004496723180637, 0.6156144218693953, 0.6338105512259062, 0.6503133267688099, 0.6656518149247859, 0.6835144617944025, 0.7003831464680843, 0.7152253362291958, 0.7336423081287649, 0.7502307583054062, 0.7656829103943892, 0.7834090239775833, 0.8004835325700697, 0.8155953754903749, 0.8340147367271129, 0.8503321683674585, 0.8656969391740859, 0.8833745834417641, 0.9003757054160815, 0.9155308976478409, 0.93367207236588, 0.9501704105932731, 0.9657512452686206, 0.9833677909336984, 1.0004078248748556, 1.0155022598046344, 1.0339168423670344, 1.0503496446181089, 1.0657031514274422, 1.0833784063870553, 1.1003976190113463, 1.1155715845816303, 1.1337544019334018, 1.1502875561418477, 1.165684753592359, 1.1833371391985565, 1.200407551805256, 1.215280120173702, 1.23377355071716, 1.2500892757088877, 1.2657899183395784, 1.283613994542975, 1.300338977976935, 1.3155102128803264, 1.3336718675564043, 1.3502456404094119, 1.365766059141606, 1.3833812394586857, 1.4004168360552285, 1.4155085403472185, 1.4336821417091414, 1.450148053263547, 1.465704994625412, 1.483339972270187]
27	蝌蚪	True	inanimate	animate	right	1.0	[0.0, 0.0, 0.0, 0.0, 0.0, 0.0, 0.0, 0.0, 0.0, 0.0, 0.0, 0.0, 0.0, 0.0, 0.0, 0.0, 0.0, 0.0, 0.0, 0.0, 0.0, 0.0, 0.0, 0.0, -1.0, -1.0, -2.0, -1.0, 1.0, 11.0, 25.0, 41.0, 59.0, 88.0, 135.0, 166.0, 205.0, 247.0, 284.0, 311.0, 332.0, 351.0, 372.0, 398.0, 442.0, 453.0, 478.0, 510.0, 545.0, 583.0, 608.0, 627.0, 650.0, 672.0, 688.0, 701.0, 710.0, 719.0, 729.0, 732.0, 733.0]	[-490.0, -490.0, -490.0, -490.0, -490.0, -490.0, -490.0, -490.0, -490.0, -490.0, -490.0, -490.0, -490.0, -490.0, -490.0, -490.0, -490.0, -490.0, -490.0, -490.0, -490.0, -490.0, -490.0, -490.0, -490.0, -490.0, -488.0, -484.0, -480.0, -467.0, -451.0, -430.0, -405.0, -371.0, -315.0, -280.0, -235.0, -186.0, -148.0, -120.0, -101.0, -86.0, -67.0, -48.0, 2.0, 16.0, 48.0, 82.0, 121.0, 168.0, 204.0, 238.0, 269.0, 304.0, 338.0, 379.0, 417.0, 441.0, 466.0, 469.0, 470.0]	[0.01361878341413103, 0.019258631189586595, 0.02548523066798225, 0.04421452240785584, 0.06073743660817854, 0.07606056478107348, 0.093820129026426, 0.11083285629865713, 0.1258153339731507, 0.14414936190587468, 0.1606944627710618, 0.1761247695540078, 0.19396079241414554, 0.21084825042635202, 0.22583857874269597, 0.24415349203627557, 0.2606777715845965, 0.27609476636280306, 0.29382463460206054, 0.3108114205824677, 0.32558500234154053, 0.34412007551873103, 0.3606658590724692, 0.3760548645223025, 0.39403561264043674, 0.41078926806221716, 0.42588984698522836, 0.44421534161665477, 0.4604498292901553, 0.47607298931689, 0.4937864735547919, 0.5107705288683064, 0.5258052305143792, 0.54411434114445, 0.5606297460035421, 0.5760306981392205, 0.5937769503798336, 0.6106951283873059, 0.6259404325683136, 0.6442672925186343, 0.6603686602902599, 0.6760269775986671, 0.6939636937459, 0.7107409011514392, 0.7258841467264574, 0.7440393161086831, 0.7605833929555956, 0.7760870863567106, 0.7937312799913343, 0.8107351326325443, 0.8256739196367562, 0.8442281074821949, 0.8605062857968733, 0.8760413818527013, 0.8937159541237634, 0.9107570120831951, 0.9258811429899652, 0.9440247070451733, 0.9603121013788041, 0.9761014906107448, 0.9938788041763473]
28	火车	False	inanimate	animate	left	2.301	[0.0, 0.0, 0.0, 0.0, 0.0, 0.0, 0.0, 0.0, 0.0, 0.0, 0.0, 0.0, 0.0, 0.0, 0.0, 0.0, 0.0, 0.0, 0.0, 0.0, 3.0, 8.0, 17.0, 29.0, 41.0, 54.0, 76.0, 82.0, 112.0, 130.0, 143.0, 160.0, 175.0, 190.0, 205.0, 223.0, 240.0, 261.0, 273.0, 280.0, 301.0, 315.0, 328.0, 341.0, 357.0, 367.0, 377.0, 383.0, 385.0, 386.0, 387.0, 387.0, 387.0, 384.0, 375.0, 369.0, 363.0, 353.0, 341.0, 327.0, 305.0, 284.0, 246.0, 234.0, 198.0, 181.0, 173.0, 168.0, 166.0, 163.0, 159.0, 150.0, 136.0, 111.0, 83.0, 47.0, -1.0, -27.0, -50.0, -67.0, -81.0, -90.0, -93.0, -94.0, -96.0, -101.0, -108.0, -112.0, -124.0, -133.0, -146.0, -161.0, -179.0, -196.0, -216.0, -232.0, -250.0, -263.0, -279.0, -295.0, -332.0, -366.0, -409.0, -457.0, -496.0, -530.0, -559.0, -582.0, -598.0, -612.0, -631.0, -638.0, -660.0, -669.0, -677.0, -683.0, -688.0, -695.0, -702.0, -703.0, -704.0, -704.0, -707.0, -707.0, -710.0, -710.0, -711.0, -711.0, -711.0, -711.0, -711.0, -711.0, -711.0, -711.0, -711.0, -711.0, -711.0, -711.0, -711.0]	[-490.0, -490.0, -490.0, -490.0, -490.0, -490.0, -490.0, -490.0, -490.0, -490.0, -490.0, -490.0, -490.0, -490.0, -490.0, -490.0, -490.0, -490.0, -490.0, -490.0, -482.0, -475.0, -462.0, -445.0, -427.0, -411.0, -384.0, -374.0, -331.0, -308.0, -289.0, -270.0, -249.0, -228.0, -199.0, -167.0, -132.0, -92.0, -74.0, -64.0, -35.0, -17.0, 2.0, 20.0, 38.0, 50.0, 61.0, 70.0, 73.0, 76.0, 78.0, 79.0, 84.0, 88.0, 93.0, 95.0, 97.0, 99.0, 103.0, 106.0, 114.0, 119.0, 125.0, 127.0, 133.0, 134.0, 136.0, 136.0, 137.0, 138.0, 140.0, 142.0, 146.0, 151.0, 157.0, 162.0, 169.0, 174.0, 176.0, 179.0, 181.0, 184.0, 184.0, 184.0, 184.0, 184.0, 187.0, 188.0, 192.0, 193.0, 197.0, 202.0, 207.0, 212.0, 217.0, 221.0, 227.0, 230.0, 234.0, 238.0, 242.0, 249.0, 253.0, 263.0, 270.0, 278.0, 286.0, 295.0, 300.0, 306.0, 316.0, 322.0, 336.0, 343.0, 348.0, 353.0, 358.0, 364.0, 369.0, 370.0, 371.0, 371.0, 374.0, 374.0, 376.0, 377.0, 377.0, 377.0, 378.0, 378.0, 378.0, 378.0, 378.0, 378.0, 378.0, 378.0, 378.0, 378.0, 378.0]	[0.012620725290616974, 0.01691060041775927, 0.0235082290309947, 0.041758971696253866, 0.05862458440242335, 0.07349032611818984, 0.09183800738537684, 0.10840290557825938, 0.12384993766318075, 0.14173067518277094, 0.1585532799072098, 0.1736388401768636, 0.19187217482249252, 0.2084991956653539, 0.2239428144239355, 0.24168974932399578, 0.2586482046463061, 0.27338219177909195, 0.291796774341492, 0.30844495783094317, 0.3240172591758892, 0.3415648555383086, 0.35854822816327214, 0.37340099923312664, 0.3918439124536235, 0.40841461331001483, 0.42400227463804185, 0.44190997749683447, 0.45860901960986666, 0.4735174279776402, 0.49183131725294515, 0.5081979008682538, 0.5240333701076452, 0.5415403477963991, 0.5585332777700387, 0.5733908274851274, 0.5917989247536752, 0.6083706495992374, 0.6237866203591693, 0.6416482432105113, 0.658494399918709, 0.6733724296500441, 0.6916921215888578, 0.7083539583836682, 0.7240699610265438, 0.7414694187755231, 0.7584869247220922, 0.7735028530296404, 0.7917436970456038, 0.8083041578938719, 0.8238098992733285, 0.8416496768186335, 0.8584657962201163, 0.873383761907462, 0.8918160937901121, 0.9081755094230175, 0.9240191706339829, 0.9414650497201364, 0.9585948542808183, 0.9734360199945513, 0.9917130453104619, 1.0081212715886068, 1.023819866211852, 1.0417019690503366, 1.0584286591620184, 1.0735517660796177, 1.0918158207205124, 1.1083332736161537, 1.1238605190010276, 1.1417296511644963, 1.1584338132815901, 1.1733729416446295, 1.1917414442286827, 1.2083203370857518, 1.223933598434087, 1.2416853120084852, 1.2584799274045508, 1.2735825543350074, 1.2917783423617948, 1.3083190058823675, 1.3239807365171146, 1.3414317356073298, 1.3584850815241225, 1.3736392497667111, 1.3917401471699122, 1.4081278934318107, 1.423811810760526, 1.4416399829497095, 1.4584711210045498, 1.4733689480344765, 1.4916357333713677, 1.5081504555710126, 1.5240275674441364, 1.5414027905499097, 1.5584530644700862, 1.5733594248595182, 1.5917606954171788, 1.6083344682701863, 1.6238678576482926, 1.6416325418977067, 1.6584694826160558, 1.6733693576534279, 1.691615321644349, 1.70813652916695, 1.7240477743616793, 1.7414264107937925, 1.7584818047180306, 1.7736591836146545, 1.7917157077172305, 1.8082007339398842, 1.8239184432313778, 1.8416728874726687, 1.8584896895335987, 1.8735243911505677, 1.8918300884542987, 1.9084001066512428, 1.9239775280002505, 1.9414217004086822, 1.9585286356450524, 1.9735687985958066, 1.9917864319577347, 2.0083683967823163, 2.023802116891602, 2.0413555158884265, 2.0584607444761787, 2.073379051493248, 2.091771106090164, 2.1082970922871027, 2.1239178629475646, 2.141663773887558, 2.1585263145680074, 2.173690040159272, 2.1917383722320665, 2.208351739740465, 2.223873865121277, 2.241617045365274, 2.2585690153646283, 2.2734238344128244, 2.291596070455853]
29	蜻蜓	True	animate	inanimate	left	1.372	[0.0, 0.0, 0.0, 0.0, 0.0, 0.0, 0.0, 0.0, 0.0, 0.0, -1.0, -3.0, -4.0, -4.0, -4.0, -5.0, -5.0, -5.0, -5.0, -5.0, -5.0, -5.0, -5.0, -5.0, -5.0, -5.0, -5.0, -4.0, 8.0, 20.0, 37.0, 53.0, 69.0, 85.0, 102.0, 118.0, 135.0, 153.0, 172.0, 194.0, 238.0, 266.0, 282.0, 300.0, 315.0, 327.0, 341.0, 354.0, 364.0, 376.0, 387.0, 398.0, 413.0, 418.0, 419.0, 419.0, 410.0, 396.0, 366.0, 315.0, 237.0, 141.0, 38.0, -59.0, -200.0, -282.0, -342.0, -392.0, -439.0, -493.0, -553.0, -613.0, -667.0, -706.0, -735.0, -760.0, -780.0, -786.0, -787.0, -788.0, -788.0, -788.0]	[-490.0, -490.0, -490.0, -490.0, -490.0, -490.0, -490.0, -490.0, -490.0, -490.0, -490.0, -486.0, -484.0, -481.0, -479.0, -478.0, -477.0, -476.0, -476.0, -475.0, -474.0, -473.0, -471.0, -470.0, -469.0, -468.0, -462.0, -453.0, -433.0, -418.0, -400.0, -388.0, -377.0, -364.0, -352.0, -345.0, -336.0, -328.0, -314.0, -299.0, -266.0, -240.0, -221.0, -202.0, -187.0, -173.0, -156.0, -130.0, -107.0, -86.0, -66.0, -46.0, -14.0, 8.0, 32.0, 52.0, 74.0, 92.0, 116.0, 145.0, 181.0, 216.0, 242.0, 269.0, 298.0, 312.0, 320.0, 329.0, 343.0, 357.0, 375.0, 385.0, 391.0, 398.0, 400.0, 405.0, 409.0, 409.0, 409.0, 409.0, 409.0, 409.0]	[0.0008747686515562236, 0.005565027560805902, 0.016463795327581465, 0.03526920435251668, 0.05146239075111225, 0.0683283447579015, 0.08479254966368899, 0.1017158476752229, 0.11687206392525695, 0.13509379324386828, 0.15135217425995506, 0.16699376626638696, 0.18498202369664796, 0.20169130581780337, 0.21673795412061736, 0.23499552343855612, 0.25149488565512, 0.26688764576101676, 0.2847485859529115, 0.30166812930838205, 0.316691566928057, 0.33510580818983726, 0.35162667438271455, 0.3669446825515479, 0.384695030777948, 0.4016770380840171, 0.41675474771182053, 0.43495941039873287, 0.45149461258552037, 0.46687952204956673, 0.4848288675129879, 0.5016716108948458, 0.5163834113627672, 0.5349771938344929, 0.5513297828147188, 0.566965572128538, 0.5846357070840895, 0.6016156663827132, 0.6167240960057825, 0.6349011106940452, 0.6514571341976989, 0.6668768596427981, 0.6846302798949182, 0.7016662178211845, 0.7166425515024457, 0.7350602060614619, 0.7512298404471949, 0.7668888404441532, 0.7845832100429107, 0.8015990093408618, 0.8166634069639258, 0.8349257549270988, 0.8515118157665711, 0.8669035519124009, 0.8848761080298573, 0.9015969954780303, 0.9167627690476365, 0.9350019063567743, 0.9514971725875512, 0.9669247486745007, 0.9845679183199536, 1.0015994189307094, 1.0166962431976572, 1.0348882765683811, 1.0514552227396052, 1.0669793961278629, 1.0846099364280235, 1.1015813624253497, 1.1168782079184894, 1.1350139213027433, 1.1512026703276206, 1.1669596329447813, 1.184770738473162, 1.2015687672246713, 1.2166922154719941, 1.234948078141315, 1.251353915053187, 1.266904371092096, 1.284840063250158, 1.3016049826692324, 1.3167383295949548, 1.3350491468736436]
30	孔雀	True	inanimate	animate	right	1.438	[0.0, 0.0, 0.0, 0.0, 0.0, 0.0, 0.0, 0.0, 0.0, 0.0, 0.0, 0.0, 0.0, 0.0, 0.0, 0.0, 0.0, 0.0, 0.0, 0.0, 0.0, 0.0, 0.0, 0.0, 0.0, 0.0, 0.0, 0.0, 0.0, 0.0, 0.0, 0.0, 0.0, 0.0, 0.0, 0.0, 0.0, 0.0, 0.0, 0.0, -1.0, -1.0, -1.0, 0.0, 1.0, 3.0, 7.0, 15.0, 23.0, 35.0, 48.0, 62.0, 85.0, 101.0, 108.0, 133.0, 147.0, 164.0, 180.0, 199.0, 215.0, 229.0, 242.0, 255.0, 266.0, 287.0, 298.0, 346.0, 391.0, 433.0, 477.0, 516.0, 546.0, 572.0, 604.0, 626.0, 657.0, 675.0, 683.0, 718.0, 738.0, 747.0, 747.0]	[-490.0, -490.0, -490.0, -490.0, -490.0, -490.0, -490.0, -490.0, -490.0, -490.0, -490.0, -490.0, -490.0, -490.0, -490.0, -490.0, -490.0, -490.0, -490.0, -490.0, -490.0, -490.0, -490.0, -490.0, -490.0, -490.0, -490.0, -490.0, -490.0, -490.0, -490.0, -490.0, -490.0, -490.0, -490.0, -490.0, -490.0, -490.0, -490.0, -490.0, -490.0, -490.0, -489.0, -487.0, -484.0, -482.0, -479.0, -474.0, -467.0, -459.0, -450.0, -441.0, -425.0, -415.0, -411.0, -394.0, -385.0, -375.0, -367.0, -353.0, -342.0, -329.0, -313.0, -294.0, -277.0, -247.0, -230.0, -152.0, -89.0, -22.0, 57.0, 154.0, 254.0, 336.0, 401.0, 450.0, 506.0, 537.0, 540.0, 540.0, 540.0, 540.0, 540.0]	[0.0011474937782622874, 0.005591310182353482, 0.017206194897880778, 0.03557981748599559, 0.052011595747899264, 0.0673934331862256, 0.08535643201321363, 0.10211213541333564, 0.11721237303572707, 0.1354293237091042, 0.15201401920057833, 0.16748630994698033, 0.1853267701517325, 0.20217565752682276, 0.21694138864404522, 0.23545905380160548, 0.25204682131879963, 0.267476104083471, 0.2852366923179943, 0.3021459956653416, 0.3173568252241239, 0.33545089594554156, 0.3520588021201547, 0.36756215419154614, 0.38512988918228075, 0.4021610484633129, 0.41705682751489803, 0.4353830047766678, 0.4520741962478496, 0.4675062096794136, 0.48535417919629253, 0.5021129546221346, 0.51723913353635, 0.5353932789294049, 0.5519970890891273, 0.5673847291909624, 0.5853327093354892, 0.6021515594038647, 0.6169408425048459, 0.6353270944091491, 0.6520466165093239, 0.6675038886023685, 0.6853146528301295, 0.7020642122370191, 0.7169282473041676, 0.7354346484935377, 0.7517991841305047, 0.7674732027517166, 0.7851081803964917, 0.8021485556673724, 0.8169453480804805, 0.8353322826733347, 0.8519924128195271, 0.8673623036011122, 0.8853136971010827, 0.9020820298464969, 0.9171402834763285, 0.935419015440857, 0.9519859616120812, 0.9675910309597384, 0.9850771873316262, 1.0020571466593537, 1.0173109841707628, 1.0353565856057685, 1.0519979424134362, 1.0674473638355266, 1.085295674711233, 1.102029532805318, 1.1171413757256232, 1.1353163424355444, 1.1519269792479463, 1.1675262459320948, 1.1850526796188205, 1.202069844235666, 1.2169130579859484, 1.235277123254491, 1.252003813337069, 1.2673969148017932, 1.2852581963234115, 1.3020268703985494, 1.3169458601041697, 1.3351986507477704, 1.3516847009886988]
31	抽屉	False	inanimate	animate	left	1.767	[0.0, 0.0, 0.0, 0.0, 0.0, 0.0, 0.0, 0.0, 0.0, 0.0, 0.0, 0.0, 0.0, 0.0, 0.0, 0.0, 0.0, 0.0, 0.0, 0.0, 0.0, 0.0, 0.0, 1.0, 3.0, 5.0, 7.0, 9.0, 14.0, 24.0, 36.0, 56.0, 77.0, 105.0, 144.0, 205.0, 227.0, 298.0, 336.0, 366.0, 394.0, 431.0, 478.0, 521.0, 548.0, 568.0, 576.0, 576.0, 551.0, 424.0, 302.0, 158.0, -18.0, -169.0, -300.0, -381.0, -401.0, -405.0, -405.0, -405.0, -405.0, -405.0, -405.0, -405.0, -405.0, -408.0, -417.0, -441.0, -501.0, -609.0, -739.0, -874.0, -960.0, -960.0, -960.0, -960.0, -960.0, -960.0, -960.0, -960.0, -960.0, -960.0, -960.0, -960.0, -960.0, -960.0, -960.0, -960.0, -960.0, -960.0, -960.0, -960.0, -960.0, -960.0, -960.0, -960.0, -960.0, -960.0, -955.0, -936.0, -915.0, -898.0, -889.0, -887.0, -887.0, -887.0, -887.0]	[-490.0, -490.0, -490.0, -490.0, -490.0, -490.0, -490.0, -490.0, -490.0, -490.0, -490.0, -490.0, -490.0, -490.0, -490.0, -490.0, -490.0, -490.0, -490.0, -490.0, -490.0, -490.0, -490.0, -490.0, -490.0, -486.0, -484.0, -481.0, -474.0, -462.0, -447.0, -431.0, -409.0, -380.0, -341.0, -290.0, -270.0, -200.0, -152.0, -113.0, -80.0, -37.0, 16.0, 72.0, 117.0, 156.0, 188.0, 211.0, 237.0, 297.0, 334.0, 364.0, 391.0, 410.0, 418.0, 418.0, 418.0, 419.0, 419.0, 419.0, 419.0, 419.0, 419.0, 419.0, 419.0, 419.0, 419.0, 419.0, 419.0, 419.0, 419.0, 421.0, 423.0, 426.0, 426.0, 426.0, 426.0, 426.0, 426.0, 426.0, 426.0, 426.0, 426.0, 426.0, 426.0, 426.0, 426.0, 426.0, 426.0, 426.0, 426.0, 426.0, 426.0, 426.0, 426.0, 426.0, 426.0, 426.0, 426.0, 425.0, 425.0, 425.0, 425.0, 425.0, 425.0, 425.0, 425.0]	[0.015639134420780465, 0.02006144681945443, 0.02937813536846079, 0.047562318068230525, 0.06452998938038945, 0.07961145366425626, 0.09797381225507706, 0.11444791581016034, 0.12987924658227712, 0.14760024019051343, 0.16456483950605616, 0.17962582377367653, 0.1978714464348741, 0.21423052073805593, 0.2298925927025266, 0.24776582090999, 0.2645269856438972, 0.2795582739636302, 0.2979264352179598, 0.3144138507777825, 0.32980319755733944, 0.34754467115271837, 0.3645365771080833, 0.37931459621177055, 0.39789677335647866, 0.41420191701035947, 0.42979777036816813, 0.4476815798843745, 0.4645461685722694, 0.4794812009204179, 0.49791797014768235, 0.5144593163568061, 0.5298787004430778, 0.5477775286126416, 0.564531184034422, 0.5796109416696709, 0.5978275509842206, 0.6141081186651718, 0.6299237905768678, 0.6477226081187837, 0.6644001462555025, 0.6796990397560876, 0.6978821984375827, 0.7140760674665216, 0.7298378087289166, 0.747425682406174, 0.7644435296824668, 0.7795918952615466, 0.7977709579572547, 0.8141300322604366, 0.8297467069351114, 0.8474055778933689, 0.8644333238189574, 0.8796042173926253, 0.8979515573300887, 0.9141075384104624, 0.9298126183566637, 0.9473646520345937, 0.9644217526365537, 0.9795912808622234, 0.9978225675295107, 1.0143089591001626, 1.0298348391370382, 1.0477026059816126, 1.0644518240878824, 1.0795718590088654, 1.0979000843071844, 1.1140093027206603, 1.1298451132606715, 1.1473742776433937, 1.1644207969075069, 1.1795790611358825, 1.197753003827529, 1.2140045581909362, 1.229850267409347, 1.2473896717419848, 1.2645095776533708, 1.2796067432500422, 1.2977813686302397, 1.3142483042029198, 1.3298199228884187, 1.3474050658696797, 1.3644526091520675, 1.3795856147480663, 1.3977786720788572, 1.414307047612965, 1.4298359996755607, 1.4474231906642672, 1.4644840459222905, 1.4793043903482612, 1.4978264928795397, 1.5143009377643466, 1.5298070205026306, 1.547708579339087, 1.564464282739209, 1.5795785149966832, 1.597874654980842, 1.6140360973658971, 1.6297459559864365, 1.6473990242811851, 1.6644677302101627, 1.6796754877723288, 1.6978743477666285, 1.7142969100386836, 1.7298507794039324, 1.7474331917474046, 1.76454558831756]
