trialIndex	stimulus	left_option	right_option	response	response_time	xTrajectory	yTrajectory	tTrajectory
0	inanimate/n38.jpg	animate	inanimate	right	1.049	[0.0, 0.0, 0.0, 0.0, 0.0, 0.0, 0.0, 0.0, 0.0, 0.0, 0.0, 0.0, 5.0, 12.0, 20.0, 30.0, 42.0, 55.0, 65.0, 70.0, 78.0, 84.0, 89.0, 94.0, 99.0, 105.0, 115.0, 136.0, 143.0, 166.0, 183.0, 203.0, 227.0, 250.0, 272.0, 292.0, 314.0, 334.0, 359.0, 399.0, 423.0, 445.0, 465.0, 480.0, 494.0, 506.0, 518.0, 532.0, 568.0, 581.0, 620.0, 648.0, 680.0, 705.0, 724.0, 737.0, 749.0, 757.0, 762.0, 766.0, 768.0, 769.0, 769.0]	[-490.0, -490.0, -490.0, -490.0, -490.0, -490.0, -490.0, -490.0, -490.0, -490.0, -490.0, -490.0, -487.0, -484.0, -479.0, -474.0, -465.0, -453.0, -445.0, -440.0, -431.0, -424.0, -419.0, -414.0, -407.0, -399.0, -388.0, -362.0, -354.0, -322.0, -303.0, -282.0, -262.0, -239.0, -220.0, -201.0, -175.0, -153.0, -119.0, -61.0, -21.0, 11.0, 40.0, 61.0, 86.0, 106.0, 130.0, 155.0, 217.0, 233.0, 289.0, 325.0, 352.0, 379.0, 403.0, 420.0, 435.0, 447.0, 456.0, 462.0, 465.0, 467.0, 467.0]	[0.0004598438536049798, 0.007035283575532958, 0.015925985324429348, 0.03249838718329556, 0.049316890159389004, 0.0657298894948326, 0.08265693638531957, 0.09901634641573764, 0.1158136867597932, 0.13212462750379927, 0.14923428757174406, 0.16570906818378717, 0.18264772038673982, 0.1990948530146852, 0.21583143607131205, 0.23216865946596954, 0.24925169555353932, 0.2654493137379177, 0.2827811816096073, 0.2991231836640509, 0.315772385452874, 0.3322458007314708, 0.34921687957830727, 0.36551723901357036, 0.3825047018472105, 0.3988832265313249, 0.4158744440355804, 0.43222429674642626, 0.44923599423782434, 0.4654373670782661, 0.48280712292762473, 0.4989286238269415, 0.5158280227478826, 0.5321375981584424, 0.5492544262233423, 0.5654261030867929, 0.5825422484776936, 0.5987658079684479, 0.6159215480001876, 0.6322017687634798, 0.6492373595683603, 0.6654796923685353, 0.6827146216674009, 0.6989624158013612, 0.7158802467019996, 0.7321416941558709, 0.7493086981703527, 0.7654633083875524, 0.7825838911085157, 0.7990805170411477, 0.8157979854295263, 0.8353324754280038, 0.8491718236182351, 0.8683987725526094, 0.8827753789519193, 0.9015500615932979, 0.9157993507687934, 0.9347190999542363, 0.9491735302872257, 0.9669672217714833, 0.9827357843169011, 1.001366424417938, 1.0158208547509275]
1	inanimate/n68.jpg	animate	inanimate	right	0.982	[0.0, 0.0, 0.0, 0.0, 0.0, 0.0, 0.0, 0.0, 0.0, 0.0, 0.0, 0.0, 1.0, 1.0, 1.0, 1.0, 1.0, 1.0, 1.0, 1.0, 7.0, 11.0, 16.0, 25.0, 33.0, 41.0, 48.0, 58.0, 69.0, 82.0, 98.0, 123.0, 143.0, 172.0, 229.0, 318.0, 435.0, 555.0, 660.0, 740.0, 798.0, 843.0, 864.0, 878.0, 880.0, 884.0, 884.0, 884.0, 884.0, 884.0, 884.0, 884.0, 884.0, 884.0, 884.0, 883.0, 883.0, 882.0, 882.0]	[-490.0, -491.0, -491.0, -491.0, -491.0, -491.0, -491.0, -493.0, -496.0, -497.0, -499.0, -502.0, -504.0, -505.0, -506.0, -506.0, -506.0, -506.0, -506.0, -506.0, -506.0, -506.0, -505.0, -500.0, -495.0, -491.0, -486.0, -481.0, -474.0, -465.0, -457.0, -443.0, -427.0, -405.0, -355.0, -269.0, -160.0, -56.0, 30.0, 96.0, 152.0, 206.0, 249.0, 299.0, 325.0, 348.0, 363.0, 371.0, 377.0, 382.0, 386.0, 392.0, 397.0, 400.0, 404.0, 407.0, 410.0, 411.0, 411.0]	[0.0030473531369352713, 0.007705866504693404, 0.021029801791883074, 0.03781314747175202, 0.05439305865729693, 0.07101836714718957, 0.08771023555891588, 0.10436114402546082, 0.12214800884248689, 0.13760971298324876, 0.15484361827839166, 0.1708221006410895, 0.1880143633025, 0.2044242906413274, 0.22132710287405644, 0.2374950250814436, 0.2546517891023541, 0.27097843117371667, 0.28808536057476886, 0.30440790664579254, 0.3213311988802161, 0.33754247036995366, 0.3548470316018211, 0.370859305941849, 0.3879942246567225, 0.4044191706343554, 0.42129945490160026, 0.4379111100570299, 0.454485218579066, 0.4711002870753873, 0.48802630996215157, 0.5042587441130308, 0.5211909109930275, 0.5379629926756024, 0.5547569196787663, 0.5710572791140294, 0.5880508859409019, 0.6044184879719978, 0.6212509856122779, 0.6375786516728112, 0.6546241411269875, 0.6711743563355412, 0.6880590779328486, 0.7042283654736821, 0.7212550816038856, 0.7374742037645774, 0.7547453143633902, 0.7708412152860546, 0.7880211899610003, 0.8041833095048787, 0.8212905802356545, 0.8375786516699009, 0.85465895710513, 0.8708378019655356, 0.888047131273197, 0.904176482843468, 0.921212414978072, 0.9375772863422753, 0.9545060398959322]
2	animate/a68.jpg	animate	inanimate	left	1.109	[0.0, 0.0, 0.0, 0.0, 0.0, 0.0, 0.0, 0.0, 0.0, 0.0, 0.0, 0.0, 0.0, 0.0, 0.0, 0.0, 0.0, 1.0, 9.0, 14.0, 20.0, 24.0, 26.0, 31.0, 34.0, 37.0, 41.0, 44.0, 48.0, 51.0, 52.0, 55.0, 59.0, 67.0, 75.0, 98.0, 119.0, 152.0, 190.0, 222.0, 248.0, 275.0, 297.0, 321.0, 342.0, 358.0, 360.0, 337.0, 302.0, 235.0, 127.0, 1.0, -138.0, -278.0, -393.0, -486.0, -535.0, -559.0, -573.0, -582.0, -588.0, -598.0, -617.0, -639.0, -660.0, -675.0, -685.0]	[-490.0, -490.0, -490.0, -490.0, -490.0, -490.0, -490.0, -490.0, -490.0, -490.0, -490.0, -490.0, -490.0, -490.0, -490.0, -490.0, -490.0, -491.0, -489.0, -488.0, -484.0, -483.0, -482.0, -479.0, -478.0, -477.0, -477.0, -476.0, -475.0, -474.0, -473.0, -473.0, -470.0, -467.0, -465.0, -451.0, -438.0, -409.0, -371.0, -324.0, -270.0, -195.0, -114.0, -43.0, 28.0, 102.0, 163.0, 240.0, 282.0, 326.0, 372.0, 418.0, 450.0, 467.0, 477.0, 481.0, 481.0, 481.0, 477.0, 472.0, 469.0, 462.0, 454.0, 446.0, 439.0, 435.0, 431.0]	[0.003746744536329061, 0.008560223097447306, 0.022681853704852983, 0.0392648368870141, 0.05627653437841218, 0.07259157112275716, 0.08956230863987003, 0.10601831592794042, 0.12287300021853298, 0.13924026091990527, 0.15621065709274262, 0.17269260570174083, 0.1895749379618792, 0.20582682809617836, 0.2226873150357278, 0.2392013489443343, 0.2563256863359129, 0.272614781773882, 0.28963467123685405, 0.305885878711706, 0.322795176281943, 0.3392573275632458, 0.35633797432819847, 0.37261751243204344, 0.3895544579718262, 0.40572238017921336, 0.4230317200854188, 0.4390057651180541, 0.4562243104155641, 0.4727147923549637, 0.48956606330466457, 0.5060889718733961, 0.5229757414635969, 0.5392897542042192, 0.5563444596482441, 0.5726100031024544, 0.5895609433064237, 0.6058101027738303, 0.6229156668414362, 0.6392911195434863, 0.6563519689807435, 0.6726516457420075, 0.6895790339622181, 0.7059384439926362, 0.7228228242602199, 0.7392440155817894, 0.7563557236426277, 0.7726205844228389, 0.789535343326861, 0.8060531319060829, 0.8230016827728832, 0.8391214770090301, 0.856293942357297, 0.8724615232349606, 0.8895326126657892, 0.9057411535031861, 0.922758653643541, 0.9391235250077443, 0.9562751690391451, 0.9726130751078017, 0.9895363673276734, 1.0057046308647841, 1.022821458929684, 1.0390255624370184, 1.0562010997673497, 1.0725987391197123, 1.0895466073125135]
3	inanimate/n73.jpg	inanimate	animate	left	1.257	[0.0, 0.0, 0.0, 0.0, 0.0, 0.0, 0.0, 0.0, 0.0, 0.0, 4.0, 15.0, 32.0, 51.0, 68.0, 84.0, 89.0, 91.0, 91.0, 91.0, 91.0, 95.0, 101.0, 107.0, 116.0, 126.0, 137.0, 153.0, 167.0, 184.0, 216.0, 244.0, 275.0, 297.0, 316.0, 331.0, 351.0, 372.0, 397.0, 419.0, 441.0, 466.0, 488.0, 515.0, 530.0, 540.0, 547.0, 553.0, 556.0, 558.0, 558.0, 554.0, 534.0, 471.0, 302.0, 153.0, -13.0, -156.0, -295.0, -414.0, -512.0, -586.0, -638.0, -671.0, -694.0, -714.0, -718.0, -721.0, -724.0, -729.0, -732.0, -734.0, -735.0, -738.0, -739.0, -740.0]	[-490.0, -490.0, -490.0, -490.0, -490.0, -490.0, -490.0, -490.0, -490.0, -490.0, -490.0, -489.0, -483.0, -478.0, -476.0, -473.0, -472.0, -471.0, -471.0, -471.0, -471.0, -469.0, -465.0, -461.0, -456.0, -450.0, -441.0, -428.0, -409.0, -390.0, -348.0, -309.0, -261.0, -221.0, -187.0, -161.0, -133.0, -104.0, -66.0, -34.0, -3.0, 29.0, 54.0, 87.0, 104.0, 120.0, 135.0, 150.0, 168.0, 188.0, 209.0, 232.0, 257.0, 302.0, 376.0, 423.0, 458.0, 479.0, 488.0, 488.0, 485.0, 474.0, 459.0, 452.0, 447.0, 443.0, 442.0, 441.0, 439.0, 437.0, 435.0, 434.0, 432.0, 430.0, 429.0, 429.0]	[0.00021770222519990057, 0.006126518521341495, 0.01574630764662288, 0.032465482712723315, 0.04941232691635378, 0.06579665426397696, 0.08260969592083711, 0.09910359117202461, 0.11601698474260047, 0.13230539750657044, 0.14933962297800463, 0.16548501719080377, 0.18263768522592727, 0.19906945787079167, 0.21611631265841424, 0.2322354242351139, 0.24925019372312818, 0.26559765709680505, 0.28264417055470403, 0.2990581938793184, 0.3160722806933336, 0.3324630933784647, 0.34939014026895165, 0.3655747877928661, 0.3826124265760882, 0.3990411272243364, 0.41609310201602057, 0.43241530674276873, 0.4493915055936668, 0.46550071852107067, 0.48265816520142835, 0.49908345252333675, 0.5160924193478422, 0.5323040321818553, 0.5493109509989154, 0.5656038010929478, 0.5826465598802315, 0.5990404445619788, 0.6161043659958523, 0.6324282774003223, 0.6493935535982018, 0.6654641958739376, 0.6825779519422213, 0.6988380340626463, 0.7160504353814758, 0.7324845973489573, 0.7493539589631837, 0.7655631824600277, 0.7825308479805244, 0.7991090525028994, 0.8159528141259216, 0.8324849386845017, 0.8494171055790503, 0.8658249849104322, 0.8827250664908206, 0.8990953991888091, 0.916004014085047, 0.9325760746141896, 0.9493648816132918, 0.9658096249186201, 0.9826533865416422, 0.9989684232859872, 1.0161227979842806, 1.0324054080847418, 1.0493324549752288, 1.0659045155043714, 1.0827465704642236, 1.0989824179414427, 1.1161108513333602, 1.132493813347537, 1.1494014042546041, 1.1654689745482756, 1.1825380159716588, 1.198849639389664, 1.2159562274609925, 1.2324139414122328]
4	inanimate/n27.jpg	inanimate	animate	left	1.062	[0.0, 0.0, 0.0, 0.0, 0.0, 0.0, 0.0, 0.0, 2.0, 5.0, 12.0, 20.0, 27.0, 32.0, 36.0, 42.0, 45.0, 50.0, 57.0, 70.0, 89.0, 114.0, 141.0, 199.0, 261.0, 332.0, 394.0, 457.0, 504.0, 533.0, 565.0, 596.0, 623.0, 658.0, 690.0, 734.0, 760.0, 769.0, 771.0, 759.0, 730.0, 697.0, 650.0, 580.0, 501.0, 418.0, 328.0, 165.0, 36.0, -105.0, -244.0, -371.0, -478.0, -560.0, -623.0, -685.0, -734.0, -777.0, -806.0, -838.0, -848.0, -855.0, -856.0]	[-490.0, -490.0, -490.0, -490.0, -490.0, -491.0, -495.0, -495.0, -498.0, -499.0, -501.0, -501.0, -501.0, -501.0, -501.0, -500.0, -499.0, -498.0, -496.0, -492.0, -487.0, -480.0, -468.0, -443.0, -415.0, -382.0, -353.0, -310.0, -274.0, -242.0, -196.0, -145.0, -97.0, -36.0, 20.0, 97.0, 147.0, 185.0, 221.0, 260.0, 301.0, 331.0, 356.0, 385.0, 409.0, 431.0, 458.0, 492.0, 510.0, 531.0, 539.0, 539.0, 537.0, 520.0, 502.0, 483.0, 469.0, 459.0, 455.0, 450.0, 447.0, 444.0, 443.0]	[0.0012700319930445403, 0.009462707675993443, 0.033988169408985414, 0.04185555469302926, 0.05067798984237015, 0.06719236508070026, 0.08417948658461682, 0.10073038446716964, 0.11763592736679129, 0.1340509746951284, 0.15101590954873245, 0.16725175702595152, 0.184242974530207, 0.20062149921432137, 0.21776734058221336, 0.2337482122820802, 0.2509421816066606, 0.2673428929556394, 0.28426413718261756, 0.30064880585996434, 0.3175403541099513, 0.3339963614125736, 0.35099918422929477, 0.36736064226715825, 0.384233758537448, 0.4005153446487384, 0.4178007912269095, 0.4337543562724022, 0.4508961016545072, 0.4673633729398716, 0.4842982704867609, 0.5007665657612961, 0.5176512873586034, 0.5340786226734053, 0.5509691469196696, 0.5673439169477206, 0.5842979291483061, 0.6004590246884618, 0.617754028600757, 0.6337553802732145, 0.6509657335991506, 0.6670984984957613, 0.6842132785532158, 0.7006805498385802, 0.7175837034155848, 0.7337499189452501, 0.7509879202407319, 0.7673422102816403, 0.7843163611396449, 0.8004870139993727, 0.8177202366350684, 0.8337543562811334, 0.8509408162790351, 0.8673695169272833, 0.8843296731211012, 0.9007474511163309, 0.917679276666604, 0.9339755400869763, 0.9509329656139016, 0.9670957678317791, 0.9841289692994906, 1.0005109073099447, 1.0178499431785895]
5	inanimate/n54.jpg	animate	inanimate	right	1.045	[0.0, 0.0, 0.0, 0.0, 0.0, 0.0, 1.0, 8.0, 14.0, 16.0, 24.0, 34.0, 44.0, 50.0, 53.0, 54.0, 54.0, 50.0, 36.0, 21.0, 11.0, 3.0, 3.0, 3.0, 3.0, 3.0, 3.0, 3.0, 3.0, 3.0, 3.0, 3.0, 3.0, 3.0, 3.0, 3.0, 3.0, 3.0, 3.0, 12.0, 35.0, 72.0, 119.0, 180.0, 309.0, 390.0, 450.0, 498.0, 531.0, 555.0, 578.0, 609.0, 647.0, 687.0, 721.0, 745.0, 760.0, 774.0, 776.0, 777.0, 778.0, 778.0, 778.0]	[-490.0, -490.0, -490.0, -490.0, -490.0, -490.0, -492.0, -493.0, -496.0, -496.0, -496.0, -496.0, -496.0, -496.0, -496.0, -496.0, -488.0, -473.0, -456.0, -445.0, -438.0, -436.0, -436.0, -436.0, -436.0, -436.0, -436.0, -436.0, -436.0, -436.0, -436.0, -436.0, -436.0, -436.0, -436.0, -436.0, -435.0, -427.0, -414.0, -392.0, -347.0, -286.0, -232.0, -179.0, -99.0, -51.0, -5.0, 45.0, 92.0, 134.0, 174.0, 216.0, 255.0, 287.0, 316.0, 336.0, 351.0, 367.0, 377.0, 387.0, 402.0, 414.0, 426.0]	[0.016137953163706698, 0.023996463787625544, 0.030488618242088705, 0.047454577099415474, 0.06360679799399804, 0.08078028733143583, 0.0970577774423873, 0.11405991759966128, 0.13020804249390494, 0.14736480651481543, 0.16380101648974232, 0.18075878334639128, 0.19696527619089466, 0.21399369898426812, 0.23045448494667653, 0.2473798251739936, 0.2637996511621168, 0.28084514061629307, 0.29719362799369264, 0.3139998429833213, 0.33033331170736346, 0.34744706777564716, 0.36377575783990324, 0.3807983779843198, 0.3970157934818417, 0.41393191770475823, 0.4303380903729703, 0.4473398892005207, 0.4637866804987425, 0.48071748205984477, 0.49696527619380504, 0.5139148510643281, 0.5305418662028387, 0.547417030466022, 0.5638163764815545, 0.580783359328052, 0.5971615426824428, 0.6140879069134826, 0.6301841491804225, 0.6473975744884228, 0.6637863391661085, 0.6808717645908473, 0.6970656281046104, 0.7140858589118579, 0.7303435517096659, 0.7473371585365385, 0.7637945311580552, 0.7807031460688449, 0.7984674829058349, 0.8139848243299639, 0.8304493649484357, 0.8473798251652624, 0.8636207926465431, 0.8806519461068092, 0.8968232816405362, 0.9140029149857583, 0.9306664527684916, 0.947427611798048, 0.963638541958062, 0.9807331833726494, 0.9969236335600726, 1.0140742535877507, 1.0305439141957322]
6	animate/a58.jpg	animate	inanimate	left	1.389	[0.0, 0.0, 0.0, 0.0, 0.0, 0.0, 0.0, 0.0, 0.0, 0.0, 0.0, 0.0, 0.0, 0.0, 0.0, 0.0, 0.0, 4.0, 12.0, 26.0, 40.0, 49.0, 54.0, 57.0, 61.0, 61.0, 65.0, 67.0, 69.0, 74.0, 96.0, 131.0, 187.0, 242.0, 297.0, 350.0, 408.0, 464.0, 514.0, 552.0, 587.0, 607.0, 615.0, 616.0, 594.0, 516.0, 387.0, 237.0, 57.0, -129.0, -283.0, -394.0, -488.0, -583.0, -686.0, -763.0, -829.0, -858.0, -884.0, -914.0, -947.0, -960.0, -960.0, -960.0, -960.0, -960.0, -960.0, -960.0, -960.0, -960.0, -960.0, -960.0, -943.0, -921.0, -892.0, -873.0, -864.0, -859.0, -849.0, -836.0, -820.0, -817.0, -817.0, -817.0]	[-490.0, -490.0, -490.0, -490.0, -490.0, -490.0, -490.0, -490.0, -490.0, -490.0, -490.0, -490.0, -490.0, -490.0, -490.0, -490.0, -490.0, -489.0, -488.0, -485.0, -483.0, -481.0, -479.0, -478.0, -476.0, -476.0, -473.0, -472.0, -469.0, -464.0, -438.0, -396.0, -326.0, -252.0, -190.0, -128.0, -56.0, 18.0, 89.0, 158.0, 221.0, 267.0, 300.0, 330.0, 350.0, 384.0, 417.0, 447.0, 471.0, 493.0, 511.0, 511.0, 511.0, 511.0, 498.0, 484.0, 469.0, 461.0, 454.0, 450.0, 446.0, 443.0, 438.0, 432.0, 428.0, 428.0, 428.0, 428.0, 428.0, 428.0, 427.0, 425.0, 417.0, 408.0, 396.0, 389.0, 387.0, 386.0, 386.0, 386.0, 392.0, 394.0, 394.0, 394.0]	[0.014475319912889972, 0.020867463797912933, 0.026921346623566933, 0.04415661725215614, 0.060406800723285414, 0.0774369301943807, 0.09388986548583489, 0.11075513108517043, 0.12717393308412284, 0.14426243050547782, 0.16043035269831307, 0.17743795418937225, 0.19363557237375062, 0.21065819250361528, 0.2271551597659709, 0.24412316661619116, 0.2602798248262843, 0.2774417088512564, 0.29359802573162597, 0.31076707775355317, 0.32714287177077495, 0.3441310172784142, 0.3606358351971721, 0.3775062208005693, 0.39373763094772585, 0.4107950670586433, 0.4271500397735508, 0.444212595873978, 0.46024296086397953, 0.47743624752911273, 0.493783369573066, 0.5108261283603497, 0.5271647170884535, 0.5441675399197266, 0.5606204752111807, 0.57748437547707, 0.5937321696110303, 0.6107916537293931, 0.62719236506382, 0.6442651611578185, 0.6605252432927955, 0.6775168021267746, 0.6937990708975121, 0.7108220323716523, 0.7272288876993116, 0.7441668572428171, 0.7606832804885926, 0.7774645781610161, 0.7937072523054667, 0.810737381776562, 0.8271756397443824, 0.8441986012185225, 0.8605549392668763, 0.8774734528269619, 0.8936099723941879, 0.9107715150748845, 0.9271971437265165, 0.9441825585672632, 0.9603859794005984, 0.977410988882184, 0.9935833484050818, 1.0106988111365354, 1.027032621204853, 1.0441740252426825, 1.0604259153769817, 1.0773812929110136, 1.09384207885887, 1.1106216698681237, 1.1270964504801668, 1.1440784519945737, 1.160556304588681, 1.1775069034629269, 1.1938738228345755, 1.210804624381126, 1.2270128238887992, 1.244237854523817, 1.2604969126405194, 1.2774311275279615, 1.2935864204046084, 1.3108292003598763, 1.327160621091025, 1.344114291961887, 1.3603320487891324, 1.377365932916291]
7	inanimate/n13.jpg	animate	inanimate	right	1.175	[0.0, 0.0, 0.0, 0.0, 0.0, 0.0, 0.0, 0.0, 0.0, 0.0, 0.0, 0.0, 0.0, 0.0, 0.0, 0.0, 0.0, 0.0, 0.0, 0.0, 0.0, 0.0, 0.0, 0.0, 0.0, 7.0, 18.0, 32.0, 42.0, 54.0, 66.0, 79.0, 98.0, 130.0, 191.0, 232.0, 275.0, 316.0, 361.0, 411.0, 472.0, 553.0, 611.0, 663.0, 688.0, 715.0, 733.0, 737.0, 737.0, 732.0, 725.0, 716.0, 709.0, 701.0, 694.0, 687.0, 684.0, 680.0, 680.0, 680.0, 680.0, 680.0, 680.0, 681.0, 687.0, 695.0, 702.0, 709.0, 712.0, 712.0, 712.0]	[-490.0, -490.0, -490.0, -490.0, -490.0, -490.0, -490.0, -490.0, -490.0, -490.0, -490.0, -490.0, -490.0, -490.0, -490.0, -490.0, -490.0, -490.0, -490.0, -490.0, -490.0, -490.0, -490.0, -490.0, -490.0, -489.0, -480.0, -465.0, -452.0, -438.0, -422.0, -403.0, -378.0, -338.0, -267.0, -214.0, -161.0, -115.0, -72.0, -34.0, 15.0, 71.0, 113.0, 152.0, 174.0, 205.0, 239.0, 262.0, 283.0, 312.0, 333.0, 352.0, 368.0, 382.0, 394.0, 408.0, 419.0, 431.0, 434.0, 435.0, 436.0, 437.0, 438.0, 440.0, 442.0, 446.0, 448.0, 450.0, 451.0, 451.0, 451.0]	[0.009754001279361546, 0.014834402274573222, 0.020075912470929325, 0.03451907880662475, 0.050962798108230345, 0.06800419156206772, 0.0843564336100826, 0.10125446719757747, 0.11771866647177376, 0.13466380401223432, 0.1509696247667307, 0.16800862889795098, 0.18431991097168066, 0.20123125654936302, 0.21786646368855145, 0.2346306947147241, 0.25077267560118344, 0.2678420583688421, 0.2842987483309116, 0.301331267124624, 0.31758281592919957, 0.33461089739284944, 0.35101365673472174, 0.3680202342220582, 0.38414548979199026, 0.40122477122349665, 0.4176111465640133, 0.43456106276426, 0.4509904460865073, 0.4680489062011475, 0.48430796431784984, 0.5013483337825164, 0.5177903464209521, 0.5346610733540729, 0.5510071714088554, 0.5680908901558723, 0.5844250415539136, 0.601325123134302, 0.6178200423892122, 0.6346655106754042, 0.6509115981461946, 0.6680567568546394, 0.6842936283355812, 0.7012991818191949, 0.7174428693833761, 0.7345887107512681, 0.7510126327251783, 0.767978591582505, 0.784446204197593, 0.8013227337942226, 0.8175988585717278, 0.8346453720296267, 0.8508583501970861, 0.8680045328947017, 0.8843861295899842, 0.9012667551869527, 0.9174281920568319, 0.9345760814176174, 0.9509433421189897, 0.9679325116303517, 0.9843212763080373, 1.0013070324785076, 1.0175138666527346, 1.0346542466868414, 1.0510119500686415, 1.068042762199184, 1.084364966940484, 1.1013288777903654, 1.1176510825316655, 1.1345480921154376, 1.1509982967399992]
8	inanimate/n59.jpg	animate	inanimate	right	1.215	[0.0, 0.0, 0.0, 0.0, 0.0, 0.0, 0.0, 0.0, 0.0, 0.0, 0.0, 0.0, 0.0, 0.0, 1.0, 1.0, 3.0, 8.0, 11.0, 13.0, 14.0, 16.0, 18.0, 20.0, 22.0, 26.0, 28.0, 30.0, 34.0, 37.0, 39.0, 42.0, 51.0, 55.0, 62.0, 67.0, 73.0, 79.0, 86.0, 93.0, 99.0, 108.0, 115.0, 122.0, 129.0, 131.0, 131.0, 130.0, 114.0, 83.0, 52.0, 35.0, 32.0, 32.0, 42.0, 72.0, 176.0, 299.0, 428.0, 547.0, 636.0, 701.0, 732.0, 742.0, 751.0, 754.0, 758.0, 765.0, 775.0, 787.0, 797.0, 801.0, 802.0]	[-490.0, -490.0, -490.0, -490.0, -490.0, -490.0, -490.0, -490.0, -491.0, -491.0, -491.0, -491.0, -491.0, -491.0, -491.0, -491.0, -491.0, -490.0, -489.0, -488.0, -488.0, -487.0, -485.0, -483.0, -481.0, -478.0, -476.0, -475.0, -472.0, -471.0, -469.0, -468.0, -461.0, -458.0, -454.0, -450.0, -448.0, -443.0, -438.0, -431.0, -424.0, -411.0, -399.0, -384.0, -366.0, -341.0, -308.0, -256.0, -199.0, -126.0, -68.0, -34.0, -12.0, 9.0, 37.0, 74.0, 147.0, 198.0, 246.0, 281.0, 306.0, 325.0, 333.0, 339.0, 345.0, 356.0, 367.0, 385.0, 398.0, 413.0, 426.0, 434.0, 439.0]	[0.014536418544594198, 0.021139506236067973, 0.02719782640633639, 0.044217715883860365, 0.06039860873715952, 0.07747174617543351, 0.09381170022243168, 0.11079574972973205, 0.12717120243178215, 0.14430134247231763, 0.1605453819502145, 0.17751407145988196, 0.19395335343142506, 0.21080496572540142, 0.22727291967021301, 0.24425901717040688, 0.26038700340723153, 0.27748505816271063, 0.2936560523521621, 0.3108804003277328, 0.32720738372881897, 0.34424160918570124, 0.36069317915826105, 0.3775478634343017, 0.39379156158247497, 0.41080837904883083, 0.42725585302105173, 0.4441890439047711, 0.4605180752987508, 0.47750212480605114, 0.49398612140794285, 0.5108486563549377, 0.5271602797729429, 0.544184947910253, 0.5606774778279942, 0.5775526421057293, 0.593689503002679, 0.6108998563140631, 0.6272210370516405, 0.6441955292248167, 0.6605334352934733, 0.6775625407608459, 0.6940912519930862, 0.7108930296526523, 0.7269708399253432, 0.7442105478839949, 0.7605945339018945, 0.7775567381031578, 0.7938253535539843, 0.8107407951174537, 0.8272531223483384, 0.8443091931403615, 0.8604422993666958, 0.8774038208939601, 0.8936434230417944, 0.9106892538256943, 0.9273254849540535, 0.9442074758844683, 0.9606474405300105, 0.9775424021063372, 0.9936652683536522, 1.0107715150807053, 1.0272084077296313, 1.0442286385368789, 1.0605648379278136, 1.0774662848416483, 1.094078622671077, 1.1108036003861343, 1.1272804290056229, 1.1441808519157348, 1.1606607525172876, 1.1775427434477024, 1.1939762227557367]
9	inanimate/n71.jpg	animate	inanimate	right	0.812	[0.0, 0.0, 0.0, 0.0, 0.0, 0.0, 0.0, 0.0, 0.0, 0.0, 0.0, 0.0, 0.0, 3.0, 7.0, 11.0, 17.0, 24.0, 34.0, 50.0, 64.0, 79.0, 110.0, 143.0, 175.0, 199.0, 222.0, 240.0, 263.0, 283.0, 308.0, 349.0, 387.0, 440.0, 487.0, 536.0, 583.0, 627.0, 677.0, 704.0, 725.0, 747.0, 765.0, 778.0, 800.0, 812.0, 818.0, 823.0, 825.0]	[-490.0, -490.0, -490.0, -490.0, -490.0, -490.0, -490.0, -490.0, -490.0, -490.0, -490.0, -490.0, -490.0, -490.0, -484.0, -475.0, -462.0, -447.0, -431.0, -402.0, -378.0, -350.0, -308.0, -260.0, -213.0, -171.0, -129.0, -97.0, -59.0, -29.0, 4.0, 54.0, 89.0, 130.0, 164.0, 197.0, 230.0, 262.0, 300.0, 322.0, 340.0, 359.0, 373.0, 387.0, 410.0, 427.0, 445.0, 457.0, 464.0]	[0.014028856297954917, 0.021071922295959666, 0.026368387101683766, 0.043210442061536014, 0.059569852106506005, 0.07651498964696657, 0.09290034099831246, 0.10989326516573783, 0.12625608853704762, 0.14317426076740958, 0.15964016671932768, 0.17649553366936743, 0.1927160211489536, 0.20989736115734559, 0.22624994453508407, 0.24325276736635715, 0.25961320140049793, 0.2764859763410641, 0.2930686181935016, 0.30991579314286355, 0.32624755520373583, 0.3431718714273302, 0.3595722414320335, 0.37653785895963665, 0.39293959429778624, 0.41002365438907873, 0.4261571019451367, 0.44318552475306205, 0.45959613475133665, 0.476478467011475, 0.49270100249850657, 0.5098427478660597, 0.5262772511778167, 0.5433374179556267, 0.5595975000760518, 0.5765463922871277, 0.5928365117142675, 0.6098338732117554, 0.6262704245164059, 0.6432380900369026, 0.6595521027920768, 0.6765078216558322, 0.6929904529242776, 0.7098922411678359, 0.7262472138681915, 0.7431370554550085, 0.7593759749433957, 0.7765733575943159, 0.7930867088434752]
10	inanimate/n50.jpg	inanimate	animate	left	1.549	[0.0, 0.0, 0.0, 0.0, 0.0, 0.0, 0.0, 0.0, 0.0, 0.0, 0.0, 0.0, 0.0, 0.0, 0.0, 0.0, 0.0, 1.0, 3.0, 3.0, 3.0, 3.0, 3.0, 3.0, 3.0, 3.0, 3.0, 3.0, 3.0, 3.0, 3.0, 3.0, 3.0, 6.0, 14.0, 22.0, 33.0, 49.0, 68.0, 87.0, 103.0, 114.0, 124.0, 137.0, 154.0, 161.0, 165.0, 165.0, 165.0, 165.0, 158.0, 138.0, 109.0, 73.0, 40.0, 8.0, -20.0, -52.0, -102.0, -177.0, -265.0, -340.0, -394.0, -429.0, -454.0, -479.0, -505.0, -553.0, -617.0, -639.0, -654.0, -661.0, -664.0, -666.0, -666.0, -666.0, -666.0, -667.0, -667.0, -669.0, -687.0, -750.0, -809.0, -861.0, -891.0, -900.0, -902.0, -902.0, -902.0, -902.0, -902.0, -902.0, -902.0, -902.0]	[-490.0, -490.0, -490.0, -490.0, -490.0, -490.0, -490.0, -490.0, -490.0, -490.0, -490.0, -490.0, -490.0, -490.0, -490.0, -490.0, -490.0, -492.0, -497.0, -497.0, -497.0, -497.0, -497.0, -497.0, -497.0, -497.0, -497.0, -497.0, -497.0, -497.0, -497.0, -497.0, -497.0, -497.0, -494.0, -489.0, -483.0, -473.0, -466.0, -457.0, -450.0, -442.0, -431.0, -412.0, -377.0, -353.0, -327.0, -305.0, -284.0, -264.0, -240.0, -206.0, -172.0, -137.0, -109.0, -79.0, -55.0, -29.0, 7.0, 54.0, 103.0, 146.0, 171.0, 186.0, 197.0, 208.0, 220.0, 240.0, 267.0, 276.0, 282.0, 285.0, 286.0, 286.0, 286.0, 286.0, 286.0, 286.0, 286.0, 287.0, 290.0, 306.0, 322.0, 338.0, 350.0, 356.0, 359.0, 362.0, 369.0, 376.0, 381.0, 386.0, 388.0, 388.0]	[0.010727687913458794, 0.016484269668580964, 0.02334779448574409, 0.03611877025105059, 0.05331308090535458, 0.06973324823775329, 0.08674119104398414, 0.10322450498642866, 0.1200392533064587, 0.13615085555647966, 0.15336223287158646, 0.16974246421887074, 0.1866172871523304, 0.20291525725042447, 0.21985288546420634, 0.23638910602312535, 0.2533646222000243, 0.26949397377029527, 0.28651488725154195, 0.30288112394919153, 0.319965184040484, 0.3361081889306661, 0.35337486218486447, 0.36962743499316275, 0.3866029511700617, 0.40323713430552743, 0.4200706559495302, 0.43637818336719647, 0.45339397684438154, 0.4694448218069738, 0.48651454590435605, 0.503136441053357, 0.5200136533239856, 0.5363658953720005, 0.5534779447625624, 0.569729493567138, 0.5865811058611143, 0.6031244944024365, 0.6199088640860282, 0.6363747700233944, 0.6534253794816323, 0.6694707631249912, 0.6865834951895522, 0.7031463397142943, 0.7200686079449952, 0.7364198259892873, 0.7534871607640525, 0.7697861548513174, 0.7866906737617683, 0.8031357583968202, 0.8200488106231205, 0.8363901300181169, 0.8533403875480872, 0.869657130970154, 0.88665278578992, 0.903105038421927, 0.9199286614020821, 0.9363918366871076, 0.9533642808673903, 0.9695629230409395, 0.9867036444193218, 1.003063737123739, 1.0199525547068333, 1.0364078793354565, 1.053383736856631, 1.0697120855766116, 1.086587932513794, 1.102842211985262, 1.1199115947529208, 1.1364078793412773, 1.15341582216206, 1.1698475948069245, 1.1866701937833568, 1.20300127317023, 1.2198583467979915, 1.2363986633426975, 1.2533758861827664, 1.2696967255906202, 1.2865459485474275, 1.3029278865724336, 1.319896576096653, 1.3363839860248845, 1.3533414115518099, 1.369752362879808, 1.386588956520427, 1.402846649303683, 1.4199201280716807, 1.4363242527469993, 1.4533482382103102, 1.4696772696188418, 1.486663025789312, 1.5028872679395135, 1.519922176070395, 1.5361017035902478]
11	inanimate/n54.jpg	inanimate	animate	left	1.149	[0.0, 0.0, 0.0, 0.0, 0.0, 0.0, 0.0, 0.0, 0.0, 1.0, 2.0, 5.0, 9.0, 12.0, 14.0, 15.0, 15.0, 15.0, 17.0, 18.0, 25.0, 32.0, 39.0, 49.0, 57.0, 67.0, 75.0, 85.0, 105.0, 120.0, 138.0, 164.0, 208.0, 251.0, 294.0, 344.0, 391.0, 428.0, 461.0, 482.0, 497.0, 502.0, 497.0, 480.0, 429.0, 337.0, 214.0, 96.0, -21.0, -122.0, -211.0, -278.0, -338.0, -410.0, -443.0, -492.0, -550.0, -612.0, -667.0, -717.0, -756.0, -776.0, -784.0, -787.0, -788.0, -796.0, -806.0, -813.0, -813.0]	[-490.0, -490.0, -490.0, -490.0, -490.0, -490.0, -490.0, -491.0, -493.0, -497.0, -498.0, -500.0, -502.0, -503.0, -504.0, -504.0, -504.0, -504.0, -505.0, -505.0, -505.0, -505.0, -505.0, -505.0, -505.0, -505.0, -505.0, -502.0, -493.0, -485.0, -473.0, -452.0, -411.0, -363.0, -300.0, -232.0, -159.0, -95.0, -36.0, 7.0, 49.0, 102.0, 133.0, 168.0, 218.0, 278.0, 330.0, 359.0, 377.0, 381.0, 381.0, 377.0, 367.0, 352.0, 347.0, 341.0, 340.0, 340.0, 340.0, 341.0, 354.0, 362.0, 369.0, 376.0, 390.0, 416.0, 444.0, 459.0, 460.0]	[0.0011553440854186192, 0.006407776934793219, 0.01746184751391411, 0.034094665315933526, 0.05101795753580518, 0.06741252487699967, 0.08444709167815745, 0.10073584578640293, 0.11769224730960559, 0.13382125755015295, 0.15082237370370422, 0.16739818890346214, 0.18449351297749672, 0.2007249231246533, 0.21768883397453465, 0.23397315075271763, 0.2511394721077522, 0.26717051975720096, 0.28435185976559296, 0.30065017119341064, 0.3176707433303818, 0.3341878492356045, 0.35097358425264247, 0.36739238623704296, 0.38444401968445163, 0.4005416272848379, 0.41768030065577477, 0.43413357727695256, 0.45107598416507244, 0.4674456341890618, 0.4844423130125506, 0.5008836429915391, 0.5177676819148473, 0.533999774736003, 0.5511148961231811, 0.5674026262277039, 0.584410227718763, 0.6007764644164126, 0.6176820073160343, 0.6338533428497612, 0.650989626898081, 0.667459628850338, 0.6844371930201305, 0.7008314190316014, 0.7177267219522037, 0.7341660039237468, 0.7510384375200374, 0.76715515977412, 0.7844088623824064, 0.8009420109447092, 0.8177315006178105, 0.8341663452592911, 0.8510910028126091, 0.8674685035075527, 0.8844143237074604, 0.900636859194492, 0.9177560765965609, 0.9339120521326549, 0.9510084002104122, 0.9673848769016331, 0.9843825797433965, 1.0005136379768373, 1.0176727913349168, 1.033875529508805, 1.0509694882493932, 1.0674514368438395, 1.084452211682219, 1.1007320911157876, 1.1177946472307667]
12	inanimate/n15.jpg	inanimate	animate	left	1.283	[0.0, 0.0, 0.0, 0.0, 0.0, 5.0, 13.0, 25.0, 31.0, 36.0, 38.0, 39.0, 40.0, 40.0, 40.0, 40.0, 42.0, 52.0, 68.0, 98.0, 121.0, 142.0, 164.0, 186.0, 209.0, 231.0, 250.0, 266.0, 283.0, 296.0, 314.0, 326.0, 341.0, 359.0, 373.0, 382.0, 385.0, 385.0, 385.0, 385.0, 385.0, 385.0, 385.0, 385.0, 385.0, 385.0, 385.0, 385.0, 385.0, 385.0, 386.0, 331.0, 239.0, 129.0, 26.0, -146.0, -274.0, -374.0, -420.0, -429.0, -429.0, -429.0, -433.0, -441.0, -453.0, -469.0, -493.0, -516.0, -545.0, -581.0, -622.0, -674.0, -760.0, -826.0, -865.0, -881.0, -882.0, -882.0]	[-490.0, -490.0, -490.0, -490.0, -490.0, -495.0, -500.0, -505.0, -509.0, -509.0, -510.0, -510.0, -510.0, -510.0, -510.0, -511.0, -511.0, -511.0, -514.0, -518.0, -522.0, -524.0, -525.0, -525.0, -525.0, -525.0, -525.0, -523.0, -519.0, -515.0, -510.0, -506.0, -502.0, -500.0, -500.0, -498.0, -498.0, -498.0, -498.0, -498.0, -498.0, -498.0, -498.0, -498.0, -498.0, -498.0, -498.0, -498.0, -498.0, -498.0, -483.0, -346.0, -175.0, -16.0, 123.0, 308.0, 406.0, 469.0, 491.0, 493.0, 493.0, 493.0, 486.0, 465.0, 441.0, 419.0, 396.0, 387.0, 385.0, 385.0, 385.0, 385.0, 408.0, 420.0, 427.0, 430.0, 430.0, 430.0]	[0.009604497405234724, 0.01647041154501494, 0.026553389616310596, 0.034309158989344724, 0.0512850165105192, 0.06760892791498918, 0.08473189997312147, 0.10105410469986964, 0.11805590352742001, 0.1344890415057307, 0.15134611511894036, 0.16777857043780386, 0.18470766532118432, 0.2010411340452265, 0.21800197291304357, 0.23427536702365614, 0.2512856991816079, 0.26790145032282453, 0.2847172226465773, 0.3010541047115112, 0.31809959416568745, 0.33449040683626663, 0.3513809310970828, 0.3676823145215167, 0.38473599596181884, 0.40108789668011013, 0.4180927675042767, 0.4343989295884967, 0.45132904847559985, 0.4676065385865513, 0.4846301827201387, 0.501072536688298, 0.51802620755916, 0.5344685615273193, 0.5514075550745474, 0.5677939304150641, 0.5847435052855872, 0.6008151715795975, 0.6178258450672729, 0.6344511535426136, 0.651432813712745, 0.6678652690316085, 0.6847349719610065, 0.7011138379893964, 0.7180504421994556, 0.7343241776543437, 0.7513112991582602, 0.767782325099688, 0.7846728493459523, 0.8010762913472718, 0.8181323621247429, 0.8344975748332217, 0.8513843444234226, 0.8676741225208389, 0.8846206253947457, 0.9010667340335203, 0.9179982182395179, 0.9342176817444852, 0.9513020831655012, 0.9678949649969582, 0.9846987906639697, 1.0009015288378578, 1.0179477009514812, 1.0344180442334618, 1.0513389471307164, 1.06764545054466, 1.0845957080891822, 1.101086872673477, 1.1179930982470978, 1.1344030255859252, 1.1512925258284668, 1.1677836904273136, 1.184659537364496, 1.2011022326623788, 1.2180975461669732, 1.2344009775843006, 1.2514017524081282, 1.2677683304355014]
13	animate/a60.jpg	inanimate	animate	right	1.113	[0.0, 0.0, 0.0, 0.0, 0.0, 0.0, 5.0, 21.0, 47.0, 88.0, 149.0, 214.0, 266.0, 302.0, 323.0, 334.0, 342.0, 351.0, 359.0, 374.0, 390.0, 403.0, 417.0, 428.0, 436.0, 440.0, 442.0, 442.0, 442.0, 444.0, 446.0, 449.0, 454.0, 463.0, 478.0, 507.0, 545.0, 596.0, 650.0, 707.0, 769.0, 792.0, 803.0, 808.0, 808.0, 808.0, 808.0, 808.0, 806.0, 806.0, 806.0, 806.0, 806.0, 806.0, 806.0, 806.0, 806.0, 805.0, 805.0, 805.0, 805.0, 805.0, 805.0, 805.0, 805.0, 805.0, 805.0]	[-490.0, -490.0, -490.0, -490.0, -490.0, -491.0, -496.0, -501.0, -506.0, -515.0, -525.0, -533.0, -539.0, -539.0, -539.0, -539.0, -539.0, -539.0, -539.0, -539.0, -539.0, -539.0, -539.0, -539.0, -539.0, -539.0, -539.0, -539.0, -539.0, -537.0, -535.0, -531.0, -525.0, -510.0, -481.0, -433.0, -363.0, -275.0, -177.0, -78.0, 56.0, 130.0, 185.0, 236.0, 272.0, 296.0, 314.0, 326.0, 335.0, 341.0, 348.0, 357.0, 373.0, 385.0, 399.0, 407.0, 415.0, 419.0, 422.0, 422.0, 422.0, 422.0, 422.0, 422.0, 422.0, 422.0, 422.0]	[0.0036207926459610462, 0.008790281572146341, 0.0220015769591555, 0.039183258297271095, 0.05539282313839067, 0.07238130997575354, 0.0885779041564092, 0.10567186289699748, 0.12184456376417074, 0.13899381845840253, 0.15535834849288221, 0.1723116780340206, 0.1888045492960373, 0.20569848686864134, 0.22206301691767294, 0.2390422877506353, 0.2554078417888377, 0.27228232339257374, 0.28876631999446545, 0.3057500281720422, 0.32183603044541087, 0.33898630914336536, 0.35536142050113995, 0.3723079233750468, 0.3885693708289182, 0.40558106830576435, 0.42204253692761995, 0.439034095761599, 0.4553552764991764, 0.47230724070686847, 0.48871170669735875, 0.5057998627889901, 0.5218554864259204, 0.5389204318635166, 0.5554023804579629, 0.5723888193024322, 0.5885891681391513, 0.6056889295578003, 0.6220514115848346, 0.6390678877360187, 0.6550958633888513, 0.672308947367128, 0.6887468640052248, 0.7058602787437849, 0.7218271557794651, 0.7389665118244011, 0.755095863394672, 0.772239315425395, 0.788826394607895, 0.805738081515301, 0.8220387822657358, 0.8390282931068214, 0.8553808764845598, 0.8722792513872264, 0.8886140854592668, 0.9057268175238278, 0.9217704944894649, 0.9389265758509282, 0.9554003324592486, 0.9722594540799037, 0.9888093279587338, 1.0056616229121573, 1.022049704915844, 1.0389979144674726, 1.0553583485016134, 1.072197672794573, 1.088811375957448]
14	animate/a44.jpg	animate	inanimate	left	1.595	[0.0, 0.0, 0.0, 0.0, 0.0, 0.0, 1.0, 6.0, 15.0, 30.0, 54.0, 81.0, 114.0, 146.0, 182.0, 213.0, 230.0, 243.0, 254.0, 260.0, 269.0, 281.0, 293.0, 312.0, 329.0, 349.0, 369.0, 396.0, 413.0, 432.0, 452.0, 478.0, 518.0, 566.0, 626.0, 681.0, 721.0, 740.0, 747.0, 747.0, 728.0, 710.0, 699.0, 696.0, 694.0, 692.0, 690.0, 687.0, 684.0, 661.0, 564.0, 251.0, 11.0, -178.0, -325.0, -435.0, -519.0, -585.0, -626.0, -645.0, -648.0, -648.0, -648.0, -648.0, -648.0, -648.0, -648.0, -648.0, -648.0, -648.0, -650.0, -653.0, -657.0, -664.0, -672.0, -688.0, -699.0, -703.0, -703.0, -703.0, -703.0, -703.0, -703.0, -703.0, -703.0, -703.0, -703.0, -703.0, -703.0, -703.0, -708.0, -722.0, -734.0, -739.0, -740.0, -740.0]	[-490.0, -490.0, -490.0, -490.0, -490.0, -490.0, -491.0, -491.0, -492.0, -493.0, -494.0, -494.0, -494.0, -487.0, -475.0, -462.0, -453.0, -444.0, -435.0, -431.0, -425.0, -417.0, -409.0, -395.0, -383.0, -371.0, -360.0, -341.0, -329.0, -314.0, -298.0, -269.0, -218.0, -150.0, -68.0, 1.0, 68.0, 126.0, 196.0, 256.0, 349.0, 394.0, 418.0, 429.0, 436.0, 445.0, 452.0, 459.0, 464.0, 472.0, 483.0, 508.0, 510.0, 510.0, 505.0, 491.0, 480.0, 468.0, 464.0, 462.0, 462.0, 462.0, 462.0, 462.0, 462.0, 462.0, 462.0, 462.0, 462.0, 462.0, 458.0, 448.0, 430.0, 408.0, 384.0, 357.0, 344.0, 339.0, 339.0, 339.0, 339.0, 339.0, 339.0, 339.0, 339.0, 339.0, 339.0, 339.0, 339.0, 339.0, 352.0, 389.0, 418.0, 430.0, 433.0, 433.0]	[0.008058600054937415, 0.016732555319322273, 0.023580720138852485, 0.03127948690962512, 0.048215067115961574, 0.06459393314435147, 0.08175615849904716, 0.09781485413259361, 0.11488526088942308, 0.13106786042044405, 0.14817615515494253, 0.16468814107065555, 0.1815851506398758, 0.19773976085707545, 0.21492553819552995, 0.231083903068793, 0.2481679631600855, 0.2647127170494059, 0.2816807238996262, 0.2978018834692193, 0.3150402260944247, 0.3312856309057679, 0.34830790970590897, 0.36453351718955673, 0.3814977693837136, 0.3979722086660331, 0.414993804806727, 0.43128153491124976, 0.448247152424301, 0.46498271147720516, 0.4817343131871894, 0.49780700347037055, 0.5149269035318866, 0.5310654710920062, 0.5481741071562283, 0.5645597998372978, 0.5816503452515462, 0.5979763046634616, 0.6149620608339319, 0.6310555724339793, 0.6482007311278721, 0.6647325143567286, 0.6817793691443512, 0.6978015421482269, 0.7150388607697096, 0.731375401490368, 0.7482584164245054, 0.7661739637987921, 0.7815534066758119, 0.7980264806101331, 0.8149845888110576, 0.8310583030979615, 0.8482345231022919, 0.8647386583616026, 0.8816595612443052, 0.8978076861385489, 0.914889698222396, 0.9313235188747058, 0.9483232696948107, 0.9648103382933186, 0.9816899398865644, 0.9980572005879367, 1.0149736661551287, 1.0312883615697501, 1.0482061924558366, 1.0644758319103858, 1.0815093747078208, 1.0978725394088542, 1.114913591532968, 1.1312941642245278, 1.1482628537487471, 1.1646884824003791, 1.181522686703829, 1.1979950779787032, 1.2149606954917544, 1.2313911028177245, 1.2483236110274447, 1.264573794498574, 1.2815421426785178, 1.2980148752976675, 1.314882530234172, 1.3311866443254985, 1.3482495417556493, 1.364590519820922, 1.3815513586741872, 1.3979824486596044, 1.4149036928865826, 1.4311306657036766, 1.4482321337709436, 1.4645529731787974, 1.4816131399566075, 1.4978230461274507, 1.5149053995410213, 1.531331369522377, 1.5482860643969616, 1.5647820076555945]
15	animate/a1.jpg	inanimate	animate	right	1.446	[0.0, 0.0, 0.0, 0.0, 0.0, 0.0, 5.0, 13.0, 24.0, 38.0, 51.0, 65.0, 82.0, 101.0, 122.0, 142.0, 170.0, 186.0, 208.0, 230.0, 256.0, 285.0, 317.0, 348.0, 371.0, 388.0, 398.0, 403.0, 403.0, 403.0, 403.0, 403.0, 403.0, 403.0, 403.0, 403.0, 403.0, 403.0, 403.0, 403.0, 403.0, 403.0, 403.0, 403.0, 403.0, 403.0, 403.0, 403.0, 403.0, 402.0, 390.0, 367.0, 280.0, 178.0, 71.0, -30.0, -89.0, -117.0, -125.0, -126.0, -117.0, -76.0, 33.0, 189.0, 432.0, 554.0, 631.0, 658.0, 670.0, 671.0, 671.0, 671.0, 671.0, 671.0, 671.0, 671.0, 672.0, 673.0, 681.0, 695.0, 716.0, 761.0, 797.0, 822.0, 835.0, 837.0, 837.0]	[-490.0, -490.0, -490.0, -490.0, -490.0, -490.0, -488.0, -486.0, -484.0, -484.0, -482.0, -479.0, -474.0, -470.0, -463.0, -456.0, -444.0, -438.0, -428.0, -418.0, -404.0, -386.0, -366.0, -345.0, -328.0, -315.0, -307.0, -304.0, -304.0, -304.0, -304.0, -304.0, -304.0, -304.0, -304.0, -304.0, -304.0, -304.0, -304.0, -304.0, -304.0, -304.0, -304.0, -304.0, -304.0, -304.0, -304.0, -304.0, -302.0, -289.0, -260.0, -222.0, -119.0, -30.0, 59.0, 135.0, 181.0, 208.0, 225.0, 246.0, 266.0, 292.0, 333.0, 376.0, 415.0, 433.0, 451.0, 461.0, 470.0, 477.0, 484.0, 495.0, 503.0, 510.0, 516.0, 518.0, 521.0, 525.0, 531.0, 532.0, 532.0, 529.0, 516.0, 505.0, 498.0, 497.0, 497.0]	[0.000623205880401656, 0.008142431455780752, 0.016107438001199625, 0.03325839935860131, 0.04947274285950698, 0.06641958706313744, 0.08276466111419722, 0.09995555844216142, 0.11601288874226157, 0.13314985545002855, 0.14956319611519575, 0.1664509896945674, 0.18295034629409201, 0.19987193185079377, 0.21615385929180775, 0.23321163673244882, 0.2494351962232031, 0.26640320307342336, 0.28276363710756414, 0.29989821449271403, 0.3160323447227711, 0.33308329551073257, 0.34945943087222986, 0.3664274377224501, 0.3827223358093761, 0.39972413463692646, 0.4158896675071446, 0.4330245862220181, 0.4495195054769283, 0.4665158429852454, 0.4828783250122797, 0.49982004922640044, 0.5161743392673088, 0.533139956794912, 0.549614054732956, 0.5663700937730027, 0.5826059412502218, 0.5997664599417476, 0.6160661367030116, 0.633012980906642, 0.6495215534814633, 0.6664175390615128, 0.6827359891321976, 0.6997524652833818, 0.7162606965284795, 0.7332341647124849, 0.7495051695004804, 0.76636394977686, 0.7829107516590739, 0.7997589506121585, 0.8161876512604067, 0.833263860680745, 0.8494952708424535, 0.8663912564225029, 0.8829657062742626, 0.8998381398705533, 0.9159726114448858, 0.9331437114597065, 0.9492256177327363, 0.9662734965240816, 0.9828455570386723, 0.9997825025930069, 1.0161917472578352, 1.0331877434218768, 1.049512337485794, 1.0664148084033513, 1.0828274663945194, 1.099898555825348, 1.1160135714017088, 1.1331652154331096, 1.1494276868907036, 1.1664038857416017, 1.182921332976548, 1.1998057132441318, 1.216168195271166, 1.2331672634318238, 1.249197969751549, 1.2662967071664752, 1.2828346343885642, 1.2999473664531251, 1.3159965047525475, 1.3330908048374113, 1.3493604442919604, 1.3664359710528515, 1.3829093863168964, 1.3998381398705533, 1.4161094859882724]
16	inanimate/n80.jpg	animate	inanimate	right	1.033	[0.0, 16.0, 16.0, 16.0, 16.0, 18.0, 21.0, 25.0, 32.0, 35.0, 37.0, 39.0, 42.0, 47.0, 63.0, 79.0, 98.0, 116.0, 134.0, 150.0, 169.0, 192.0, 215.0, 244.0, 268.0, 302.0, 327.0, 351.0, 375.0, 397.0, 420.0, 440.0, 461.0, 487.0, 510.0, 531.0, 555.0, 582.0, 595.0, 612.0, 621.0, 626.0, 626.0, 626.0, 626.0, 626.0, 628.0, 632.0, 638.0, 651.0, 665.0, 684.0, 703.0, 713.0, 719.0, 720.0, 722.0, 723.0, 725.0, 726.0, 728.0, 728.0]	[-490.0, -470.0, -470.0, -470.0, -474.0, -477.0, -480.0, -483.0, -488.0, -490.0, -491.0, -492.0, -492.0, -492.0, -492.0, -492.0, -492.0, -492.0, -492.0, -492.0, -490.0, -485.0, -478.0, -470.0, -462.0, -449.0, -438.0, -423.0, -409.0, -395.0, -379.0, -361.0, -339.0, -310.0, -283.0, -255.0, -223.0, -185.0, -158.0, -119.0, -81.0, -43.0, -7.0, 24.0, 50.0, 78.0, 105.0, 131.0, 161.0, 212.0, 259.0, 312.0, 355.0, 379.0, 394.0, 400.0, 404.0, 410.0, 418.0, 426.0, 435.0, 441.0]	[0.005683604744262993, 0.011024101520888507, 0.026293635164620355, 0.042785482422914356, 0.05994975577050354, 0.07621256855782121, 0.09332018063287251, 0.10967788400012068, 0.12652164563769475, 0.14302031954866834, 0.1598285825457424, 0.17624704320041928, 0.19326181267388165, 0.2093631749448832, 0.22645303768513259, 0.24274042645993177, 0.25993610244768206, 0.2759982114075683, 0.2931508794426918, 0.3095809454243863, 0.3266025415650802, 0.34280596239841543, 0.3598777345032431, 0.3763057524774922, 0.3935290764493402, 0.40962361205311026, 0.4265117469767574, 0.4430278288782574, 0.4600699050060939, 0.47620676590304356, 0.49325293801666703, 0.5094317828770727, 0.5265189149649814, 0.5430145168938907, 0.559918694460066, 0.576023811387131, 0.5932515726890415, 0.6096864173305221, 0.6265035549731692, 0.6427830930915661, 0.6600043690559687, 0.6761456672829809, 0.6932061753905145, 0.7097055319754872, 0.7266100508859381, 0.7429663889342919, 0.7599419051111909, 0.7763146271463484, 0.7933106233103899, 0.8096580866840668, 0.82658820557117, 0.8429902822390432, 0.8600801449938444, 0.8761245046334807, 0.893265226011863, 0.9096321453835117, 0.926551682932768, 0.942778655764414, 0.9610536268301075, 0.9762890271667857, 0.9932246073731221, 1.0097420546226203]
17	inanimate/n64.jpg	inanimate	animate	left	1.116	[0.0, 0.0, 0.0, 0.0, 0.0, 12.0, 22.0, 34.0, 38.0, 38.0, 38.0, 41.0, 46.0, 62.0, 77.0, 95.0, 114.0, 134.0, 157.0, 174.0, 195.0, 212.0, 243.0, 277.0, 334.0, 371.0, 407.0, 444.0, 484.0, 512.0, 534.0, 555.0, 564.0, 574.0, 577.0, 581.0, 585.0, 590.0, 590.0, 590.0, 591.0, 593.0, 595.0, 597.0, 598.0, 598.0, 594.0, 548.0, 429.0, 199.0, 91.0, 9.0, -77.0, -172.0, -285.0, -401.0, -512.0, -612.0, -688.0, -742.0, -798.0, -819.0, -835.0, -842.0, -846.0, -846.0, -846.0]	[-490.0, -490.0, -490.0, -490.0, -492.0, -495.0, -498.0, -501.0, -503.0, -503.0, -503.0, -503.0, -503.0, -501.0, -496.0, -490.0, -483.0, -472.0, -455.0, -441.0, -419.0, -397.0, -358.0, -315.0, -250.0, -211.0, -168.0, -125.0, -75.0, -25.0, 24.0, 75.0, 113.0, 153.0, 181.0, 209.0, 236.0, 269.0, 289.0, 304.0, 316.0, 330.0, 345.0, 358.0, 371.0, 377.0, 384.0, 397.0, 413.0, 435.0, 435.0, 435.0, 425.0, 413.0, 401.0, 401.0, 401.0, 401.0, 401.0, 401.0, 401.0, 401.0, 401.0, 401.0, 401.0, 401.0, 401.0]	[0.0035586700396379456, 0.008505951147526503, 0.02230365671857726, 0.03867433074628934, 0.05569695089070592, 0.07221439812565222, 0.08911413836176507, 0.10530390588974115, 0.12242107528436463, 0.13883305060153361, 0.15575395349878818, 0.17223487810406368, 0.18914315167057794, 0.20552850302192383, 0.222547368510277, 0.23889926921401639, 0.25577682281436864, 0.27212701686949003, 0.2891667036601575, 0.3055056337179849, 0.32240093662403524, 0.33882724794966634, 0.3558269987697713, 0.3722369261085987, 0.38914656500855926, 0.4053100498858839, 0.4223927446437301, 0.4387101707106922, 0.45578603880130686, 0.47226013675390277, 0.4891714823170332, 0.5052520232566167, 0.5224012779654004, 0.5388299786136486, 0.5558331427746452, 0.572016766294837, 0.589133594345185, 0.6055325990309939, 0.6225524884939659, 0.6386521441017976, 0.6556484815955628, 0.6721543235034915, 0.6890847837203182, 0.7054779857426183, 0.7224961685424205, 0.7388187146134442, 0.7558218787744408, 0.7719751236581942, 0.7891137970291311, 0.8055414736882085, 0.8224060566280968, 0.8389245278667659, 0.8558467960829148, 0.8722184941143496, 0.889154074335238, 0.9053848018229473, 0.9224596459098393, 0.9388613812479889, 0.955813345455681, 0.9720836675696773, 0.9890646450803615, 1.005547276348807, 1.022510504539241, 1.0389357918465976, 1.0558085667871637, 1.0721966488054022, 1.0891411036718637]
18	inanimate/n46.jpg	inanimate	animate	left	1.315	[0.0, 0.0, 0.0, 0.0, 0.0, 0.0, 0.0, 0.0, 4.0, 7.0, 10.0, 10.0, 10.0, 12.0, 12.0, 12.0, 12.0, 12.0, 12.0, 12.0, 12.0, 12.0, 12.0, 12.0, 12.0, 12.0, 12.0, 12.0, 12.0, 12.0, 12.0, 12.0, 12.0, 12.0, 12.0, 5.0, -27.0, -55.0, -73.0, -85.0, -93.0, -96.0, -103.0, -124.0, -135.0, -202.0, -273.0, -341.0, -421.0, -508.0, -605.0, -707.0, -799.0, -877.0, -933.0, -960.0, -960.0, -960.0, -960.0, -960.0, -960.0, -960.0, -960.0, -960.0, -960.0, -960.0, -960.0, -960.0, -942.0, -927.0, -913.0, -908.0, -908.0, -908.0, -908.0, -906.0, -895.0, -882.0, -879.0]	[-490.0, -490.0, -490.0, -490.0, -490.0, -490.0, -490.0, -490.0, -491.0, -491.0, -491.0, -491.0, -491.0, -490.0, -490.0, -490.0, -490.0, -490.0, -490.0, -490.0, -490.0, -490.0, -490.0, -490.0, -490.0, -490.0, -490.0, -490.0, -490.0, -490.0, -490.0, -490.0, -490.0, -490.0, -490.0, -463.0, -417.0, -371.0, -328.0, -277.0, -228.0, -183.0, -136.0, -50.0, -15.0, 108.0, 201.0, 279.0, 345.0, 402.0, 446.0, 486.0, 513.0, 533.0, 540.0, 540.0, 540.0, 540.0, 540.0, 540.0, 540.0, 540.0, 540.0, 540.0, 540.0, 540.0, 540.0, 540.0, 529.0, 520.0, 515.0, 512.0, 512.0, 512.0, 512.0, 511.0, 505.0, 497.0, 497.0]	[0.0035450167051749304, 0.008397748577408493, 0.022395133957616054, 0.03908666105417069, 0.055902774693095125, 0.0722055234509753, 0.08921824493154418, 0.10556024698598776, 0.12252142718352843, 0.1388350985944271, 0.1559502199961571, 0.17222361410676967, 0.18931962085480336, 0.2054312231048243, 0.22234734732774086, 0.239034437094233, 0.25587068939057644, 0.27222702743893024, 0.2892387249157764, 0.3055547856638441, 0.32254122450831346, 0.33893579184950795, 0.3559188173530856, 0.3722478487470653, 0.38911618635756895, 0.40557219364563935, 0.4224756885523675, 0.4388255412777653, 0.45586966539849527, 0.47219937946647406, 0.48924657558382023, 0.5055872123048175, 0.522483197884867, 0.5389173598669004, 0.5559672866511391, 0.5721399875037605, 0.5891165276843822, 0.6052851325657684, 0.6223883072962053, 0.6390119091083761, 0.6558846840489423, 0.6719543023355072, 0.6891028743702918, 0.7053260925313225, 0.7224954858684214, 0.7389627571537858, 0.755950219987426, 0.7721079022012418, 0.7891079943656223, 0.8055786789773265, 0.8225265471846797, 0.8388538719154894, 0.8558700067223981, 0.8719689796562307, 0.8889984264533268, 0.9055520550027722, 0.9225350805063499, 0.93904945574468, 0.9561007478623651, 0.9720140356221236, 0.9891612423234619, 1.0055237243504962, 1.0224084459478036, 1.0386743307317374, 1.0558744440641021, 1.0722604780748952, 1.0892373595852405, 1.1056616229034262, 1.1225057258707238, 1.1390078131225891, 1.1559553399856668, 1.1722543340729317, 1.1891725063032936, 1.2053643218241632, 1.2223483713314636, 1.2387337226828095, 1.2558304120902903, 1.2722338540916098, 1.2892134662688477]
19	inanimate/n66.jpg	inanimate	animate	left	1.062	[0.0, -1.0, -1.0, -1.0, -1.0, -1.0, -1.0, -1.0, -1.0, -1.0, -1.0, -1.0, -1.0, -1.0, -1.0, -1.0, 4.0, 12.0, 22.0, 33.0, 48.0, 63.0, 79.0, 98.0, 131.0, 152.0, 171.0, 191.0, 208.0, 229.0, 248.0, 274.0, 305.0, 348.0, 410.0, 487.0, 618.0, 686.0, 726.0, 736.0, 736.0, 710.0, 659.0, 568.0, 439.0, 260.0, 55.0, -135.0, -341.0, -439.0, -512.0, -562.0, -594.0, -613.0, -628.0, -640.0, -662.0, -689.0, -724.0, -750.0, -774.0, -802.0, -810.0, -817.0]	[-490.0, -491.0, -491.0, -491.0, -491.0, -493.0, -494.0, -494.0, -495.0, -495.0, -495.0, -495.0, -495.0, -497.0, -499.0, -501.0, -505.0, -506.0, -507.0, -509.0, -509.0, -507.0, -502.0, -497.0, -483.0, -475.0, -466.0, -455.0, -444.0, -430.0, -415.0, -399.0, -377.0, -351.0, -312.0, -265.0, -174.0, -112.0, -55.0, -4.0, 50.0, 110.0, 174.0, 242.0, 299.0, 366.0, 418.0, 461.0, 486.0, 488.0, 488.0, 488.0, 488.0, 485.0, 478.0, 470.0, 460.0, 447.0, 434.0, 424.0, 417.0, 409.0, 404.0, 397.0]	[0.005262604579911567, 0.011224327492527664, 0.025478736657532863, 0.04236072758794762, 0.058520799124380574, 0.07570486979966518, 0.09184173069661483, 0.10865989234298468, 0.12511316896416247, 0.14219995972234756, 0.15870989763061516, 0.17561202720389701, 0.1920181998721091, 0.2090281907003373, 0.22550604329444468, 0.24240714887855574, 0.2586447030189447, 0.275719205790665, 0.2920492611883674, 0.30888824415160343, 0.32543197402264923, 0.3423347862699302, 0.3587197962915525, 0.37567892848164774, 0.391758786761784, 0.4088349961966742, 0.42511863030085806, 0.44236891958280466, 0.4586160310427658, 0.4757263737701578, 0.4919649519142695, 0.5089005321351578, 0.5254603046778357, 0.5423539009207161, 0.5587023882981157, 0.5758728056534892, 0.5920376558642602, 0.6089981533878017, 0.6251548115978949, 0.642382914229529, 0.6586586976773106, 0.6757430990983266, 0.6919902105582878, 0.7089684574166313, 0.7254575740080327, 0.7423498049320187, 0.7586965856462484, 0.775597349886084, 0.7920216132042697, 0.8089025801309617, 0.8252442408556817, 0.8423552662570728, 0.8586013537278632, 0.8757000911282375, 0.8920902211539214, 0.9089882547268644, 0.9254596219980158, 0.9423416129284305, 0.958723209623713, 0.9757202297769254, 0.9918908826512052, 1.0089066761283902, 1.0253329874394694, 1.0423982742213411]
20	animate/a50.jpg	inanimate	animate	right	0.949	[0.0, 0.0, 0.0, 0.0, 0.0, 0.0, 0.0, 0.0, 0.0, 0.0, 5.0, 20.0, 48.0, 65.0, 81.0, 100.0, 120.0, 145.0, 171.0, 192.0, 212.0, 227.0, 239.0, 252.0, 262.0, 271.0, 282.0, 291.0, 300.0, 307.0, 313.0, 320.0, 327.0, 341.0, 360.0, 424.0, 480.0, 539.0, 591.0, 628.0, 661.0, 684.0, 705.0, 715.0, 727.0, 734.0, 741.0, 750.0, 755.0, 756.0, 757.0, 757.0, 757.0, 756.0, 754.0, 752.0, 751.0]	[-490.0, -490.0, -490.0, -490.0, -490.0, -490.0, -490.0, -490.0, -490.0, -490.0, -491.0, -493.0, -498.0, -501.0, -502.0, -506.0, -508.0, -511.0, -511.0, -511.0, -511.0, -510.0, -507.0, -503.0, -498.0, -496.0, -491.0, -486.0, -483.0, -478.0, -475.0, -472.0, -466.0, -452.0, -432.0, -359.0, -280.0, -195.0, -117.0, -53.0, 8.0, 64.0, 112.0, 155.0, 194.0, 223.0, 248.0, 287.0, 312.0, 333.0, 351.0, 373.0, 396.0, 418.0, 434.0, 444.0, 446.0]	[0.014459277255809866, 0.01973560341866687, 0.027154477080330253, 0.04385522016673349, 0.06097238956135698, 0.07725158633547835, 0.09426260115287732, 0.1106261071836343, 0.12760640203487128, 0.14388457480526995, 0.16093450158950873, 0.17733760226110462, 0.19425236116512679, 0.2107906297169393, 0.22774191125063226, 0.2439470387471374, 0.261098000119091, 0.2773614955658559, 0.29427249981381465, 0.31078687505214475, 0.3276965139521053, 0.3440330546727637, 0.3611403254180914, 0.37743727151246276, 0.3942626011557877, 0.4108476323308423, 0.4277743378916057, 0.44398253738472704, 0.46109595212328713, 0.4771867330564419, 0.49421891052043065, 0.5107049551152159, 0.5276709139725426, 0.5440593373205047, 0.5610058401944116, 0.577104130454245, 0.594234611839056, 0.6107278244307963, 0.6276651113148546, 0.6440057480358519, 0.6610549921606435, 0.6773580822482472, 0.6942472411610652, 0.7107810723828152, 0.7276122046896489, 0.7440579719986999, 0.7610577228188049, 0.7773478422459448, 0.7943629530636827, 0.8107817550480831, 0.8277169939392479, 0.8439941427059239, 0.8610590881435201, 0.8773294102720683, 0.8945288409304339, 0.9104527099989355, 0.9276456553343451]
21	animate/a59.jpg	inanimate	animate	right	1.046	[0.0, 0.0, 0.0, 0.0, 0.0, 0.0, 0.0, 0.0, 0.0, 0.0, 0.0, 10.0, 26.0, 50.0, 73.0, 102.0, 121.0, 136.0, 151.0, 164.0, 180.0, 198.0, 216.0, 238.0, 262.0, 282.0, 302.0, 332.0, 351.0, 372.0, 390.0, 414.0, 434.0, 453.0, 469.0, 496.0, 531.0, 563.0, 592.0, 615.0, 644.0, 657.0, 662.0, 662.0, 662.0, 654.0, 646.0, 638.0, 634.0, 630.0, 626.0, 623.0, 623.0, 623.0, 623.0, 623.0, 626.0, 632.0, 638.0, 647.0, 663.0, 682.0, 692.0]	[-490.0, -490.0, -490.0, -490.0, -490.0, -490.0, -490.0, -490.0, -490.0, -491.0, -491.0, -495.0, -500.0, -507.0, -513.0, -519.0, -522.0, -524.0, -527.0, -528.0, -528.0, -528.0, -528.0, -525.0, -517.0, -509.0, -498.0, -477.0, -462.0, -442.0, -419.0, -383.0, -347.0, -315.0, -279.0, -234.0, -173.0, -115.0, -57.0, -3.0, 80.0, 121.0, 157.0, 187.0, 209.0, 231.0, 252.0, 267.0, 277.0, 290.0, 304.0, 324.0, 342.0, 364.0, 384.0, 399.0, 414.0, 427.0, 439.0, 453.0, 461.0, 472.0, 477.0]	[0.011971642044954933, 0.017932682298123837, 0.02507644152501598, 0.03879461648466531, 0.055755455352482386, 0.072325126544456, 0.08924944276805036, 0.10557267149852123, 0.12256935033656191, 0.13872532588720787, 0.15578105532040354, 0.17233127054350916, 0.1890978908922989, 0.2055747194972355, 0.22260519029805437, 0.23894855768594425, 0.2558674125903053, 0.2720773187611485, 0.2893470640119631, 0.30550440489605535, 0.3225307796965353, 0.3389444616914261, 0.3558650232589571, 0.37227802257984877, 0.38922145345713943, 0.4056146554648876, 0.422580955651938, 0.43875468052283395, 0.455739754033857, 0.47229474790219683, 0.4892443227727199, 0.5055201062205015, 0.5225502356915968, 0.5388983817392727, 0.5559469431900652, 0.5724739477445837, 0.5892204294650583, 0.6056078288092976, 0.6226137236371869, 0.6388939444004791, 0.6559029112249846, 0.6723814464930911, 0.6892968880565604, 0.7055685755040031, 0.7225543316744734, 0.7389417310332647, 0.7558281592937419, 0.7722797292517498, 0.7892562694323715, 0.8056160208070651, 0.8226714089105371, 0.8389468510285951, 0.8559107618784765, 0.8722616385930451, 0.8892876720638014, 0.9055716475122608, 0.9225113237189362, 0.9386386272817617, 0.9556981114001246, 0.9723380971990991, 0.9892112134693889, 1.005635135457851, 1.0227659581723856]
22	animate/a18.jpg	animate	inanimate	left	1.229	[0.0, 0.0, 0.0, 0.0, 5.0, 15.0, 30.0, 39.0, 42.0, 44.0, 45.0, 45.0, 45.0, 47.0, 48.0, 49.0, 50.0, 51.0, 51.0, 51.0, 51.0, 52.0, 52.0, 52.0, 52.0, 52.0, 52.0, 52.0, 52.0, 52.0, 52.0, 52.0, 72.0, 133.0, 188.0, 212.0, 226.0, 237.0, 253.0, 276.0, 328.0, 397.0, 477.0, 548.0, 641.0, 693.0, 738.0, 777.0, 803.0, 830.0, 852.0, 860.0, 861.0, 860.0, 840.0, 781.0, 566.0, 368.0, 143.0, -86.0, -318.0, -494.0, -606.0, -658.0, -674.0, -676.0, -677.0, -678.0, -678.0, -678.0, -680.0, -681.0, -682.0, -682.0]	[-490.0, -490.0, -490.0, -490.0, -493.0, -508.0, -516.0, -519.0, -521.0, -521.0, -522.0, -522.0, -522.0, -522.0, -523.0, -523.0, -523.0, -524.0, -524.0, -524.0, -524.0, -526.0, -526.0, -526.0, -526.0, -526.0, -526.0, -526.0, -526.0, -526.0, -526.0, -526.0, -527.0, -527.0, -527.0, -527.0, -525.0, -518.0, -506.0, -490.0, -454.0, -413.0, -370.0, -333.0, -269.0, -207.0, -132.0, -46.0, 33.0, 125.0, 206.0, 266.0, 311.0, 331.0, 358.0, 394.0, 451.0, 485.0, 501.0, 501.0, 501.0, 501.0, 496.0, 481.0, 471.0, 468.0, 468.0, 466.0, 463.0, 460.0, 458.0, 455.0, 453.0, 453.0]	[0.0005723472568206489, 0.00835849528084509, 0.015995822090189904, 0.03296348761068657, 0.04940754825656768, 0.06631582182308193, 0.0826284692302579, 0.0997340333124157, 0.11599616342573427, 0.13296621828339994, 0.14941812957113143, 0.16649468033574522, 0.18258307194628287, 0.19969478000712115, 0.21598967809404712, 0.23317238343588542, 0.2494235909107374, 0.26632708581746556, 0.28264075722836424, 0.2996661080251215, 0.3160019660863327, 0.33291911432752386, 0.34936044429196045, 0.3662352672254201, 0.3826363198895706, 0.39961456674791407, 0.41599240877258126, 0.4329017063428182, 0.4494887855107663, 0.46625813654100057, 0.48267318386933766, 0.4996777133492287, 0.5160285900637973, 0.5329341329779709, 0.5494730841892306, 0.5663680457801092, 0.5826100372505607, 0.5996623533719685, 0.6159934327588417, 0.6329525649634888, 0.6494532868819078, 0.6663127498322865, 0.6826557758759009, 0.6996316333970753, 0.7160350753983948, 0.7329290129855508, 0.7494382682198193, 0.7663496137975017, 0.782653045214829, 0.7997046786622377, 0.8158647502132226, 0.8328467517130775, 0.8493614682956832, 0.8661840672721155, 0.8826284692331683, 0.8997466626315145, 0.9157521103043109, 0.9328969276684802, 0.9494993668340612, 0.9663905737543246, 0.9826571412122576, 0.999679078682675, 1.0159883127635112, 1.0329133116611047, 1.0493430363130756, 1.0663687284395564, 1.0826608958741417, 1.099656209378736, 1.1160026487632422, 1.1329307196429, 1.1491870471072616, 1.1662605258752592, 1.1826578238833463, 1.1996780546905939]
23	inanimate/n61.jpg	animate	inanimate	right	0.919	[0.0, 0.0, 0.0, 0.0, 0.0, 0.0, 10.0, 30.0, 64.0, 86.0, 97.0, 101.0, 103.0, 105.0, 119.0, 138.0, 164.0, 197.0, 234.0, 270.0, 305.0, 344.0, 386.0, 423.0, 459.0, 513.0, 538.0, 567.0, 589.0, 613.0, 635.0, 651.0, 668.0, 676.0, 681.0, 687.0, 691.0, 695.0, 697.0, 697.0, 697.0, 692.0, 686.0, 679.0, 675.0, 672.0, 669.0, 669.0, 671.0, 686.0, 697.0, 707.0, 714.0, 720.0, 725.0, 726.0]	[-490.0, -490.0, -490.0, -490.0, -490.0, -491.0, -494.0, -501.0, -508.0, -514.0, -515.0, -515.0, -515.0, -515.0, -512.0, -509.0, -505.0, -500.0, -492.0, -482.0, -467.0, -445.0, -414.0, -382.0, -350.0, -291.0, -253.0, -212.0, -170.0, -130.0, -88.0, -51.0, -13.0, 25.0, 60.0, 97.0, 129.0, 160.0, 198.0, 222.0, 247.0, 265.0, 283.0, 298.0, 310.0, 318.0, 327.0, 333.0, 342.0, 360.0, 375.0, 387.0, 399.0, 409.0, 420.0, 426.0]	[0.010655666643287987, 0.016841986696817912, 0.022667176395771094, 0.03591431175300386, 0.05311817974143196, 0.06943628848239314, 0.08649645526020322, 0.1028387986443704, 0.11985664012900088, 0.13624847680330276, 0.15317586502351332, 0.16954449105833191, 0.1865490205527749, 0.20284357730997726, 0.21974604821298271, 0.23617850353184622, 0.2533028409234248, 0.269528107077349, 0.28658793251088355, 0.3028548412985401, 0.3197231789090438, 0.3363150367513299, 0.35317142769054044, 0.3695028484216891, 0.3865138632390881, 0.4028562066378072, 0.41978257085429505, 0.4360163703386206, 0.4532775822735857, 0.4695120644173585, 0.48646983128855936, 0.5028241213294677, 0.5197975895134732, 0.5364037833351176, 0.5532055609946838, 0.5694816857721889, 0.5865681352006504, 0.6028196839906741, 0.6197248855751241, 0.6363092340907315, 0.6532410596410045, 0.6695240110711893, 0.6865722311922582, 0.7027650707022985, 0.7197279575630091, 0.736294898102642, 0.7531471930560656, 0.7695120644202689, 0.7865735965315253, 0.8041969628247898, 0.8197914455085993, 0.8362720287841512, 0.8532373049674788, 0.8695086510851979, 0.8865408285491867, 0.9028896572708618]
24	animate/a15.jpg	inanimate	animate	right	0.871	[0.0, 0.0, 0.0, 0.0, 0.0, 0.0, 1.0, 9.0, 15.0, 18.0, 23.0, 36.0, 50.0, 67.0, 93.0, 123.0, 154.0, 180.0, 203.0, 225.0, 248.0, 271.0, 298.0, 344.0, 377.0, 415.0, 451.0, 494.0, 539.0, 584.0, 620.0, 661.0, 698.0, 723.0, 741.0, 768.0, 775.0, 781.0, 784.0, 784.0, 784.0, 783.0, 780.0, 778.0, 774.0, 772.0, 768.0, 766.0, 763.0, 762.0, 761.0, 757.0]	[-490.0, -490.0, -490.0, -490.0, -490.0, -490.0, -491.0, -492.0, -493.0, -493.0, -493.0, -492.0, -491.0, -491.0, -491.0, -491.0, -491.0, -491.0, -491.0, -487.0, -483.0, -476.0, -468.0, -448.0, -430.0, -409.0, -383.0, -344.0, -288.0, -228.0, -174.0, -109.0, -45.0, 9.0, 55.0, 120.0, 150.0, 176.0, 200.0, 221.0, 241.0, 257.0, 276.0, 295.0, 315.0, 333.0, 360.0, 379.0, 399.0, 419.0, 436.0, 446.0]	[0.0032823267829371616, 0.009081916505238041, 0.021641948449541815, 0.03857582199270837, 0.054898368078283966, 0.07181415097147692, 0.0881728783424478, 0.10522553579357918, 0.12142861529719085, 0.13849492606823333, 0.15487515743006952, 0.17187798024679068, 0.18829234490112867, 0.20530711438914295, 0.22160576714668423, 0.2386055179813411, 0.254910997391562, 0.27196467884641606, 0.28831487288698554, 0.3051343998668017, 0.3216463857825147, 0.33860312864999287, 0.35492567472101655, 0.3718581829307368, 0.38810188106435817, 0.40527229841973167, 0.42161600713734515, 0.43866217926552054, 0.45464680562145077, 0.47170867906243075, 0.48824899560713675, 0.5052074451377848, 0.5216153244691668, 0.5385106273897691, 0.5549482026981423, 0.5719032388878986, 0.5883425208594417, 0.6052815144066699, 0.6216388764587464, 0.6386027873086277, 0.6549393280292861, 0.6717895749898162, 0.6884251234587282, 0.705248063779436, 0.7216095218172995, 0.7386372619512258, 0.7549284053820884, 0.771829852295923, 0.7883797261602012, 0.8053521703550359, 0.8216354631149443, 0.8385324726987164]
25	animate/a63.jpg	animate	inanimate	left	1.197	[0.0, 0.0, 0.0, 0.0, 3.0, 19.0, 37.0, 57.0, 72.0, 81.0, 85.0, 89.0, 95.0, 105.0, 116.0, 130.0, 148.0, 164.0, 195.0, 227.0, 264.0, 311.0, 359.0, 405.0, 452.0, 508.0, 559.0, 599.0, 636.0, 672.0, 693.0, 717.0, 744.0, 770.0, 798.0, 820.0, 845.0, 863.0, 878.0, 886.0, 890.0, 891.0, 891.0, 891.0, 885.0, 878.0, 866.0, 848.0, 828.0, 817.0, 811.0, 808.0, 807.0, 796.0, 769.0, 698.0, 585.0, 420.0, 218.0, -19.0, -251.0, -462.0, -628.0, -757.0, -823.0, -844.0, -844.0, -844.0, -844.0, -844.0, -844.0, -844.0]	[-490.0, -490.0, -490.0, -490.0, -491.0, -495.0, -501.0, -505.0, -507.0, -509.0, -509.0, -509.0, -509.0, -509.0, -509.0, -509.0, -509.0, -509.0, -504.0, -490.0, -475.0, -453.0, -433.0, -411.0, -388.0, -356.0, -323.0, -292.0, -261.0, -217.0, -191.0, -158.0, -119.0, -74.0, -35.0, -6.0, 41.0, 82.0, 131.0, 168.0, 201.0, 243.0, 268.0, 288.0, 305.0, 322.0, 339.0, 361.0, 379.0, 387.0, 389.0, 391.0, 391.0, 391.0, 391.0, 391.0, 391.0, 391.0, 391.0, 391.0, 391.0, 391.0, 379.0, 363.0, 351.0, 348.0, 348.0, 348.0, 348.0, 348.0, 348.0, 348.0]	[0.015495223036850803, 0.020786567853065208, 0.029270059283589944, 0.046081052933004685, 0.06301560915017035, 0.07923234197369311, 0.096349170038593, 0.1127519293804653, 0.12981175481399987, 0.14610597024147864, 0.16309821174945682, 0.1794535257940879, 0.19639524999365676, 0.21277411602204666, 0.22972130155540071, 0.2460407756298082, 0.26303028647089377, 0.2791418887209147, 0.2962829514290206, 0.3128157586470479, 0.3297905921644997, 0.34602234365593176, 0.36306885709927883, 0.3793825285101775, 0.3963921779941302, 0.41247135361481924, 0.42961992564960383, 0.44609368225792423, 0.4631070863979403, 0.4794091524963733, 0.49628397542983294, 0.5128341906383866, 0.5298124374821782, 0.546113138232613, 0.5630848997534486, 0.5793927685008384, 0.596313671398093, 0.6125884308421519, 0.6296431362861767, 0.6460172236547805, 0.6630067344958661, 0.6793811631796416, 0.696325618060655, 0.7126553321286337, 0.7297820588428294, 0.7460650102730142, 0.7630060518276878, 0.7791333553905133, 0.7962136608257424, 0.8127550013741711, 0.829615146983997, 0.8460742262686836, 0.8629930811730446, 0.879365120534203, 0.8963102580746636, 0.912823609309271, 0.9298472534574103, 0.9461162102379603, 0.9631122064020019, 0.9793760431930423, 0.9963645300304051, 1.0125798975204816, 1.029674538935069, 1.0460134689928964, 1.0630726117669838, 1.0794299738045083, 1.0962576927850023, 1.1128454546269495, 1.1297301762242569, 1.1460544289584504, 1.1630640784424031, 1.1794200751464814]
26	animate/a3.jpg	inanimate	animate	right	1.112	[0.0, 0.0, 0.0, 0.0, 4.0, 34.0, 79.0, 115.0, 133.0, 138.0, 138.0, 138.0, 138.0, 138.0, 138.0, 138.0, 138.0, 138.0, 138.0, 138.0, 138.0, 138.0, 138.0, 138.0, 138.0, 138.0, 138.0, 138.0, 138.0, 138.0, 138.0, 138.0, 138.0, 158.0, 214.0, 286.0, 358.0, 460.0, 527.0, 580.0, 624.0, 661.0, 694.0, 716.0, 728.0, 728.0, 707.0, 657.0, 559.0, 531.0, 527.0, 527.0, 527.0, 527.0, 527.0, 526.0, 537.0, 559.0, 588.0, 637.0, 700.0, 780.0, 810.0, 830.0, 835.0, 835.0, 835.0]	[-490.0, -490.0, -490.0, -490.0, -494.0, -507.0, -524.0, -534.0, -539.0, -539.0, -539.0, -539.0, -539.0, -539.0, -539.0, -539.0, -539.0, -539.0, -539.0, -539.0, -539.0, -539.0, -539.0, -539.0, -539.0, -539.0, -539.0, -539.0, -539.0, -539.0, -539.0, -539.0, -539.0, -537.0, -521.0, -498.0, -469.0, -421.0, -363.0, -299.0, -232.0, -160.0, -80.0, -7.0, 62.0, 114.0, 172.0, 231.0, 301.0, 313.0, 313.0, 313.0, 313.0, 313.0, 313.0, 314.0, 322.0, 331.0, 340.0, 356.0, 366.0, 385.0, 393.0, 403.0, 406.0, 407.0, 407.0]	[0.014233314781449735, 0.021138823562068865, 0.026472835015738383, 0.04363949770049658, 0.059998566401191056, 0.07699865856557153, 0.0932839993329253, 0.11027487549290527, 0.12660800290177576, 0.14355245776823722, 0.16002792103972752, 0.17688260533032008, 0.19332768996537197, 0.21034382477228064, 0.22672234947094694, 0.2436483723577112, 0.26000471039151307, 0.27690001331211533, 0.2933324686164269, 0.3102031955640996, 0.32649058432434686, 0.34348999382928014, 0.35998354775074404, 0.3769208346348023, 0.3933307619590778, 0.41029979281302076, 0.42665988551743794, 0.4435490444448078, 0.4599873024126282, 0.47697203457937576, 0.49332632463483606, 0.5102939901553327, 0.5267127921397332, 0.543621407050523, 0.5600166570511647, 0.576985346575384, 0.5933768419199623, 0.6102229928801535, 0.6266056135646068, 0.643699572305195, 0.6601562622672645, 0.6770071918872418, 0.6930484795302618, 0.7102182142116362, 0.7267438534472603, 0.743642911023926, 0.7599726250919048, 0.7769641839258838, 0.793324276630301, 0.8102711208339315, 0.8266117575549288, 0.8435637217626208, 0.8599961770669324, 0.8769341466104379, 0.8931454181147274, 0.9102185555530014, 0.9268179227219662, 0.9436637323378818, 0.9600159743858967, 0.9769826159026707, 0.993317449974711, 1.0102294782118406, 1.0267738907568855, 1.0437135669635609, 1.059998566401191, 1.0769430212822044, 1.0933119886467466]
27	inanimate/n71.jpg	inanimate	animate	left	1.383	[0.0, -2.0, -2.0, -2.0, -2.0, -2.0, -2.0, 1.0, 6.0, 12.0, 18.0, 21.0, 24.0, 28.0, 35.0, 47.0, 56.0, 66.0, 76.0, 89.0, 104.0, 124.0, 145.0, 175.0, 210.0, 248.0, 289.0, 345.0, 399.0, 453.0, 500.0, 549.0, 597.0, 625.0, 662.0, 691.0, 717.0, 739.0, 756.0, 766.0, 768.0, 768.0, 766.0, 752.0, 712.0, 625.0, 514.0, 369.0, 201.0, 36.0, -218.0, -377.0, -523.0, -644.0, -753.0, -846.0, -905.0, -936.0, -958.0, -960.0, -960.0, -960.0, -960.0, -960.0, -960.0, -960.0, -960.0, -960.0, -960.0, -955.0, -948.0, -937.0, -924.0, -908.0, -893.0, -880.0, -874.0, -871.0, -871.0, -871.0, -871.0, -871.0, -871.0]	[-490.0, -493.0, -493.0, -493.0, -493.0, -496.0, -498.0, -504.0, -509.0, -513.0, -516.0, -518.0, -518.0, -520.0, -524.0, -525.0, -525.0, -526.0, -528.0, -528.0, -528.0, -528.0, -528.0, -526.0, -518.0, -507.0, -486.0, -445.0, -388.0, -316.0, -241.0, -158.0, -75.0, -5.0, 68.0, 138.0, 200.0, 251.0, 296.0, 348.0, 370.0, 389.0, 402.0, 417.0, 437.0, 462.0, 476.0, 492.0, 499.0, 499.0, 499.0, 499.0, 499.0, 499.0, 503.0, 503.0, 503.0, 503.0, 503.0, 504.0, 504.0, 504.0, 504.0, 504.0, 504.0, 504.0, 504.0, 504.0, 503.0, 488.0, 477.0, 465.0, 452.0, 438.0, 429.0, 418.0, 414.0, 412.0, 412.0, 412.0, 412.0, 412.0, 412.0]	[0.015982305296347477, 0.0237049653660506, 0.032293928699800745, 0.04698592683416791, 0.06369383790297434, 0.08063180746103171, 0.09690110557130538, 0.11391416838159785, 0.1300305493059568, 0.14705999610305298, 0.16337537417712156, 0.18044817028567195, 0.19684956427954603, 0.2138472671067575, 0.2302121384855127, 0.24713816137227695, 0.263431352796033, 0.2805812901642639, 0.2969625455152709, 0.31394215769250877, 0.33020497047982644, 0.3471405507007148, 0.36326068628113717, 0.38042120497266296, 0.39687175092694815, 0.41394147502433043, 0.4301950718217995, 0.4471832173294388, 0.46352385405043606, 0.48054715685429983, 0.4968727749364916, 0.5138670644228114, 0.5301752745144768, 0.5471955053217243, 0.5633262222254416, 0.5804447569535114, 0.5968847215845017, 0.6138465844414895, 0.6301978024857817, 0.6471716120140627, 0.6634518327773549, 0.6806041594827548, 0.6969584495236631, 0.7139564936805982, 0.730292693071533, 0.7471746840019478, 0.7634531981166219, 0.7804652369377436, 0.7968567322823219, 0.8138083551457385, 0.8301496745407348, 0.8471787800081074, 0.8635890486621065, 0.8805946021602722, 0.8969488922011806, 0.9138732084247749, 0.9302121384826023, 0.9470890094089555, 0.9635863180010347, 0.9804891302483156, 0.9969256815529661, 1.0137824138364522, 1.0301786878408166, 1.047101297401241, 1.063357283535879, 1.080401407656609, 1.096941041541868, 1.1138861790823285, 1.1301817598432535, 1.1471501080231974, 1.1635467233718373, 1.1803969703178154, 1.1968550256133312, 1.2138865204178728, 1.2302274984685937, 1.2470685294247232, 1.263636493953527, 1.2804986875707982, 1.29687277492485, 1.3138578484358732, 1.3299674026930006, 1.347028252130258, 1.3636777952633565]
28	inanimate/n43.jpg	inanimate	animate	left	1.067	[0.0, 0.0, 0.0, 0.0, 0.0, 0.0, 0.0, 0.0, 0.0, 0.0, 0.0, 0.0, 0.0, 3.0, 15.0, 26.0, 38.0, 53.0, 69.0, 79.0, 88.0, 95.0, 103.0, 114.0, 132.0, 142.0, 154.0, 164.0, 180.0, 197.0, 220.0, 243.0, 282.0, 333.0, 382.0, 436.0, 502.0, 536.0, 576.0, 607.0, 632.0, 649.0, 665.0, 674.0, 681.0, 683.0, 678.0, 663.0, 559.0, 403.0, 211.0, -9.0, -228.0, -414.0, -563.0, -677.0, -743.0, -784.0, -803.0, -808.0, -808.0, -808.0, -808.0, -808.0, -808.0]	[-490.0, -491.0, -491.0, -491.0, -491.0, -491.0, -491.0, -491.0, -491.0, -491.0, -491.0, -491.0, -492.0, -492.0, -492.0, -492.0, -491.0, -489.0, -483.0, -480.0, -475.0, -472.0, -467.0, -461.0, -451.0, -446.0, -439.0, -432.0, -423.0, -410.0, -394.0, -377.0, -345.0, -302.0, -261.0, -212.0, -146.0, -99.0, -49.0, -5.0, 38.0, 81.0, 118.0, 156.0, 190.0, 217.0, 239.0, 261.0, 301.0, 340.0, 371.0, 391.0, 394.0, 394.0, 388.0, 374.0, 363.0, 356.0, 354.0, 353.0, 353.0, 353.0, 353.0, 353.0, 353.0]	[0.006147681153379381, 0.010532445419812575, 0.01592892080952879, 0.02722124184947461, 0.04406329680932686, 0.060948018392082304, 0.0773374657437671, 0.09440992050804198, 0.11063450400251895, 0.1275629162119003, 0.1440916274441406, 0.16098215170495678, 0.17739446836640127, 0.19445053914387245, 0.21091269042517524, 0.2277492840657942, 0.24383221434254665, 0.2609012557659298, 0.277329956414178, 0.2943809072021395, 0.31043653083906975, 0.3275591615529265, 0.34406261413823813, 0.3609589410480112, 0.3773166444298113, 0.39431639524991624, 0.410411954857409, 0.4275857855391223, 0.44384040632576216, 0.46093914374068845, 0.4770855619572103, 0.4941890780319227, 0.5105792080430547, 0.5275714495510329, 0.5437680437171366, 0.5608855544560356, 0.5773244950833032, 0.5943536005506758, 0.6108560291468166, 0.6278103826771257, 0.6442288433318026, 0.6610053623444401, 0.6773586283961777, 0.6944293764972826, 0.7107058426045114, 0.7276175295119174, 0.7439322249119869, 0.7610196983296191, 0.7773688683810178, 0.7942914779414423, 0.8106956026167609, 0.827740409396938, 0.8441953926958377, 0.8609548450622242, 0.877333028416615, 0.8944235738308635, 0.9107242745812982, 0.9276025108556496, 0.9440404274937464, 0.9609200290869921, 0.9773466817423468, 0.9943477978958981, 1.010687069283449, 1.0275728148844792, 1.04416091805615]
29	animate/a53.jpg	inanimate	animate	right	0.91	[0.0, 0.0, 0.0, 0.0, 0.0, 0.0, 0.0, 0.0, 0.0, 0.0, 0.0, 0.0, 0.0, 2.0, 20.0, 40.0, 65.0, 81.0, 86.0, 86.0, 86.0, 86.0, 86.0, 86.0, 86.0, 86.0, 86.0, 90.0, 114.0, 155.0, 214.0, 277.0, 336.0, 394.0, 456.0, 515.0, 568.0, 588.0, 600.0, 608.0, 612.0, 615.0, 618.0, 621.0, 624.0, 627.0, 629.0, 631.0, 644.0, 667.0, 699.0, 740.0, 777.0, 798.0, 802.0]	[-490.0, -490.0, -490.0, -490.0, -490.0, -490.0, -490.0, -490.0, -490.0, -490.0, -490.0, -490.0, -490.0, -491.0, -491.0, -491.0, -489.0, -487.0, -486.0, -486.0, -486.0, -486.0, -486.0, -486.0, -486.0, -486.0, -486.0, -481.0, -425.0, -331.0, -232.0, -130.0, -43.0, 51.0, 140.0, 225.0, 313.0, 359.0, 385.0, 405.0, 420.0, 430.0, 437.0, 444.0, 450.0, 455.0, 457.0, 460.0, 467.0, 478.0, 485.0, 495.0, 503.0, 506.0, 507.0]	[0.00043308337626513094, 0.006733067333698273, 0.01581013691611588, 0.03245865604549181, 0.049554662793525495, 0.06579119294474367, 0.08273291714431252, 0.09931112166668754, 0.1162654751969967, 0.1326354665652616, 0.14955227346217725, 0.16585877687612083, 0.1828428263834212, 0.1993575429660268, 0.21632111248618457, 0.23271567982737906, 0.24964033738069702, 0.2659744887787383, 0.28289266100910027, 0.2994312709051883, 0.31631087249843404, 0.332638879888691, 0.3496120067429729, 0.36596561412443407, 0.3828827623510733, 0.39938928693300113, 0.4162856138427742, 0.4326856425177539, 0.44962702540215105, 0.4658232782385312, 0.4828370237228228, 0.49910461516992655, 0.5162415818922454, 0.5326436585601186, 0.5496359000535449, 0.5660075980849797, 0.5829179196589394, 0.5993568603007589, 0.6162719605345046, 0.6326740372023778, 0.649652625375893, 0.6656747983652167, 0.6828619410371175, 0.6993763162754476, 0.7162801525264513, 0.7326747198676458, 0.7496655960276257, 0.7659785847790772, 0.7843245531257708, 0.7994418522284832, 0.8162798111879965, 0.8327064638433512, 0.8496150787395891, 0.8659932620939799, 0.8828892476740293]
30	animate/a5.jpg	animate	inanimate	left	1.23	[0.0, 0.0, 0.0, 0.0, 0.0, 1.0, 10.0, 25.0, 41.0, 62.0, 91.0, 104.0, 113.0, 121.0, 129.0, 137.0, 144.0, 154.0, 162.0, 173.0, 185.0, 198.0, 210.0, 232.0, 248.0, 269.0, 299.0, 336.0, 375.0, 412.0, 455.0, 485.0, 510.0, 533.0, 562.0, 578.0, 588.0, 601.0, 608.0, 612.0, 613.0, 613.0, 613.0, 616.0, 618.0, 624.0, 633.0, 638.0, 644.0, 644.0, 639.0, 600.0, 496.0, 338.0, 130.0, -83.0, -278.0, -443.0, -562.0, -655.0, -677.0, -687.0, -693.0, -697.0, -698.0, -700.0, -702.0, -705.0, -715.0, -737.0, -789.0, -810.0, -816.0, -816.0]	[-490.0, -491.0, -491.0, -492.0, -493.0, -495.0, -506.0, -518.0, -525.0, -534.0, -539.0, -539.0, -539.0, -539.0, -539.0, -539.0, -539.0, -539.0, -539.0, -539.0, -539.0, -538.0, -533.0, -521.0, -511.0, -496.0, -470.0, -439.0, -404.0, -365.0, -314.0, -275.0, -232.0, -185.0, -107.0, -53.0, -10.0, 34.0, 66.0, 101.0, 130.0, 153.0, 171.0, 189.0, 205.0, 225.0, 251.0, 260.0, 279.0, 291.0, 305.0, 329.0, 360.0, 397.0, 431.0, 458.0, 469.0, 469.0, 469.0, 469.0, 465.0, 460.0, 456.0, 453.0, 451.0, 449.0, 448.0, 444.0, 438.0, 428.0, 411.0, 405.0, 402.0, 402.0]	[0.01517948997206986, 0.02232768654357642, 0.030685908743180335, 0.04532943757658359, 0.06194348206918221, 0.07875584105204325, 0.09523130432353355, 0.11221808449772652, 0.1285699852160178, 0.14558885068981908, 0.16190832476422656, 0.17876505704771262, 0.19528898962016683, 0.2121999938535737, 0.22857339854817837, 0.24553116540482733, 0.26196669272030704, 0.2788295689970255, 0.2953104935877491, 0.31215220721787773, 0.3285600865492597, 0.345605576003436, 0.361907642101869, 0.37885175563860685, 0.39530776292667724, 0.4122201324935304, 0.4286290358286351, 0.44559226401906926, 0.46186702346312813, 0.4788449289771961, 0.4952852349524619, 0.512199311182485, 0.528582955870661, 0.5455540347174974, 0.5619335834053345, 0.5788858889427502, 0.5952968402707484, 0.6121928258507978, 0.6286372278264025, 0.6455670053692302, 0.6619096900976729, 0.6788353716547135, 0.6949742805445567, 0.712108516599983, 0.7285812492045807, 0.7455642747081583, 0.7618526874721283, 0.7788497076398926, 0.7952746536320774, 0.8133806648402242, 0.8286447371501708, 0.8455820240342291, 0.861631503663375, 0.8787664223782485, 0.8952480296429712, 0.9121586925466545, 0.9285754465381615, 0.9455929466930684, 0.961888868783717, 0.9789094409206882, 0.99540948017966, 1.0122098925057799, 1.028638593154028, 1.0455287760705687, 1.0616454983246513, 1.0787732490425697, 1.0952743122907123, 1.1122655297949677, 1.128566571889678, 1.1457393785676686, 1.1619073007605039, 1.1788736009475542, 1.1952589522989001, 1.2121245592425112]
31	inanimate/n24.jpg	inanimate	animate	left	0.945	[0.0, 0.0, 0.0, 0.0, 0.0, 0.0, 0.0, 0.0, 0.0, 0.0, 0.0, 0.0, 0.0, 0.0, 0.0, 0.0, 5.0, 23.0, 35.0, 45.0, 50.0, 50.0, 50.0, 50.0, 50.0, 50.0, 50.0, 50.0, 50.0, 50.0, 50.0, 50.0, 50.0, 50.0, 57.0, 76.0, 94.0, 96.0, 79.0, 19.0, -64.0, -171.0, -313.0, -468.0, -634.0, -765.0, -862.0, -939.0, -956.0, -959.0, -959.0, -959.0, -959.0, -959.0, -959.0, -959.0, -959.0]	[-490.0, -490.0, -490.0, -490.0, -490.0, -490.0, -490.0, -490.0, -490.0, -490.0, -490.0, -490.0, -490.0, -490.0, -490.0, -490.0, -491.0, -490.0, -487.0, -486.0, -483.0, -483.0, -483.0, -483.0, -483.0, -483.0, -483.0, -483.0, -483.0, -483.0, -483.0, -483.0, -483.0, -483.0, -477.0, -457.0, -421.0, -397.0, -361.0, -271.0, -179.0, -100.0, -13.0, 78.0, 170.0, 245.0, 306.0, 363.0, 379.0, 385.0, 386.0, 386.0, 386.0, 386.0, 388.0, 390.0, 390.0]	[0.011818042170489207, 0.020229512330843136, 0.02695343192317523, 0.03840720347943716, 0.055780713984859176, 0.07190733490278944, 0.0888558857695898, 0.10563206345250364, 0.12226044392446056, 0.13856728868267965, 0.15567694875062443, 0.17203396945842542, 0.18895965101546608, 0.20542828761972487, 0.22233553719706833, 0.23872566720820032, 0.255677972745616, 0.27179025766963605, 0.2888200457964558, 0.3053624103486072, 0.3223635265021585, 0.33845225944241975, 0.3554482556064613, 0.37209165474632755, 0.3889053790626349, 0.40512279456015676, 0.42216589467716403, 0.43867651525943074, 0.4555916154931765, 0.47179196432989556, 0.48883165112056304, 0.5055716475035297, 0.5222778519091662, 0.5387099658983061, 0.5557377060322324, 0.5720745880826144, 0.5890286002831999, 0.6053678716707509, 0.6223522625223268, 0.6387935924867634, 0.6556779727397952, 0.6720817560853902, 0.6888613470946439, 0.7054204369633226, 0.7223710358375683, 0.7385109687311342, 0.75568923674291, 0.7720623000932392, 0.7889627230033511, 0.805377087672241, 0.8222802412492456, 0.8387495605275035, 0.8557346340385266, 0.8720564974355511, 0.8889951496530557, 0.9052129064803012, 0.922240987943951]
32	inanimate/n12.jpg	inanimate	animate	left	1.313	[0.0, 2.0, 2.0, 2.0, 2.0, 8.0, 21.0, 39.0, 64.0, 78.0, 89.0, 103.0, 117.0, 133.0, 154.0, 175.0, 197.0, 219.0, 243.0, 273.0, 332.0, 355.0, 433.0, 491.0, 556.0, 620.0, 674.0, 724.0, 763.0, 798.0, 822.0, 847.0, 874.0, 880.0, 893.0, 897.0, 897.0, 896.0, 886.0, 869.0, 853.0, 839.0, 820.0, 798.0, 775.0, 748.0, 740.0, 737.0, 735.0, 727.0, 717.0, 702.0, 687.0, 676.0, 674.0, 672.0, 668.0, 658.0, 635.0, 585.0, 488.0, 358.0, 202.0, 42.0, -98.0, -217.0, -323.0, -401.0, -489.0, -530.0, -564.0, -595.0, -627.0, -653.0, -672.0, -679.0, -685.0, -690.0, -693.0]	[-490.0, -495.0, -495.0, -495.0, -495.0, -498.0, -503.0, -510.0, -519.0, -523.0, -525.0, -528.0, -529.0, -530.0, -530.0, -530.0, -528.0, -522.0, -515.0, -501.0, -476.0, -467.0, -427.0, -385.0, -338.0, -287.0, -240.0, -192.0, -146.0, -94.0, -52.0, -7.0, 49.0, 66.0, 102.0, 123.0, 146.0, 173.0, 201.0, 232.0, 256.0, 273.0, 291.0, 307.0, 322.0, 338.0, 345.0, 347.0, 350.0, 357.0, 365.0, 376.0, 387.0, 395.0, 397.0, 399.0, 401.0, 405.0, 410.0, 417.0, 431.0, 447.0, 462.0, 469.0, 469.0, 469.0, 469.0, 469.0, 469.0, 469.0, 467.0, 462.0, 458.0, 454.0, 450.0, 447.0, 444.0, 440.0, 437.0]	[0.007314357499126345, 0.013804805290419608, 0.02916991218808107, 0.04624919360503554, 0.06294891268771607, 0.07977185300842393, 0.0960923510720022, 0.11303168594895396, 0.12943615195399616, 0.14637378016777802, 0.16283866211597342, 0.1797561516868882, 0.19616915100777987, 0.21310541388811544, 0.22943034929630812, 0.24638163083000109, 0.26278404882759787, 0.27974488769541495, 0.29614423369639553, 0.3131999631441431, 0.3294197679642821, 0.34639699081890285, 0.36280521148000844, 0.3797814103309065, 0.3961561803589575, 0.41304363260860555, 0.42942659462278243, 0.4464389747736277, 0.46260143564722966, 0.47973294103576336, 0.49610395639319904, 0.5131777764909202, 0.5293921199918259, 0.5463843614852522, 0.5625638890196569, 0.5796742317470489, 0.5961711990094045, 0.6131965498061618, 0.6294327386276564, 0.6463829961576266, 0.6626086036412744, 0.6797759490000317, 0.69613194570411, 0.7130757179111242, 0.7294037253159331, 0.7464120094664395, 0.7629038567247335, 0.779789260981488, 0.7961636896798154, 0.8131808484904468, 0.8293405786971562, 0.8463321375311352, 0.8628024808131158, 0.8797739010042278, 0.8958711672603386, 0.9129535206884611, 0.9294675545970676, 0.9464120094635291, 0.9626553662674269, 0.979742157025612, 0.9959233912231866, 1.0129794620006578, 1.0294545839424245, 1.0463809481589124, 1.062696326232981, 1.0797213357145665, 1.0961326283722883, 1.11307366991241, 1.129457314600586, 1.1464051828079391, 1.1628861074132146, 1.179761954335845, 1.1961623243551003, 1.2130422672780696, 1.2294416132790502, 1.2464184947893955, 1.2628707474214025, 1.2797820929990849, 1.2961425270332256]
33	inanimate/n6.jpg	animate	inanimate	right	0.905	[0.0, 0.0, 0.0, 0.0, 0.0, 1.0, 15.0, 41.0, 65.0, 90.0, 111.0, 130.0, 148.0, 170.0, 196.0, 224.0, 252.0, 281.0, 327.0, 362.0, 407.0, 450.0, 492.0, 534.0, 597.0, 671.0, 753.0, 819.0, 876.0, 919.0, 959.0, 959.0, 959.0, 959.0, 959.0, 953.0, 944.0, 927.0, 905.0, 876.0, 843.0, 819.0, 803.0, 787.0, 778.0, 772.0, 770.0, 770.0, 770.0, 770.0, 770.0, 770.0, 770.0, 770.0]	[-490.0, -490.0, -490.0, -490.0, -490.0, -491.0, -493.0, -496.0, -498.0, -498.0, -498.0, -498.0, -498.0, -498.0, -498.0, -498.0, -496.0, -490.0, -474.0, -458.0, -431.0, -405.0, -376.0, -350.0, -305.0, -252.0, -190.0, -140.0, -91.0, -44.0, 29.0, 57.0, 85.0, 113.0, 141.0, 168.0, 192.0, 219.0, 247.0, 278.0, 308.0, 326.0, 340.0, 356.0, 368.0, 374.0, 378.0, 378.0, 378.0, 378.0, 378.0, 381.0, 383.0, 384.0]	[0.010464997991221026, 0.020014472509501502, 0.03563182451762259, 0.05228614631050732, 0.06941696902504191, 0.0857719417399494, 0.10269250329292845, 0.118846430836129, 0.1359537015814567, 0.1523919595492771, 0.16947260631422978, 0.18571357378095854, 0.202653932661633, 0.2191532892466057, 0.23598134955682326, 0.25241039153479505, 0.2693449477519607, 0.2855097979627317, 0.30264232734043617, 0.31904064933769405, 0.3360711201385129, 0.3524247275199741, 0.3694511023204541, 0.38571289111860096, 0.40279217253555544, 0.4191399772535078, 0.4359673549042782, 0.45242541018524207, 0.46940843570337165, 0.4857442937500309, 0.5027221992640989, 0.5190587399993092, 0.5360905761335744, 0.5524749034811975, 0.5694115076912567, 0.5856712484819582, 0.60262662601599, 0.6191171079408377, 0.6360690721485298, 0.6524155115330359, 0.6693951237102738, 0.6856924111343687, 0.7026993299514288, 0.7191242759436136, 0.736046202830039, 0.7524680768256076, 0.7694807983061764, 0.785738832433708, 0.8025791807303904, 0.8190123186941491, 0.8360359628422884, 0.8523615809099283, 0.8693483610841213, 0.8854725926503306]
34	animate/a2.jpg	animate	inanimate	left	1.097	[0.0, -1.0, -1.0, -1.0, -1.0, -1.0, 5.0, 22.0, 43.0, 59.0, 78.0, 96.0, 115.0, 130.0, 145.0, 161.0, 179.0, 200.0, 233.0, 259.0, 281.0, 302.0, 324.0, 347.0, 373.0, 397.0, 425.0, 458.0, 497.0, 533.0, 568.0, 601.0, 646.0, 669.0, 690.0, 716.0, 734.0, 749.0, 762.0, 769.0, 773.0, 773.0, 773.0, 771.0, 755.0, 737.0, 697.0, 611.0, 484.0, 325.0, 158.0, -7.0, -152.0, -293.0, -474.0, -564.0, -631.0, -677.0, -700.0, -720.0, -738.0, -761.0, -789.0, -809.0, -823.0, -837.0, -850.0]	[-490.0, -491.0, -491.0, -491.0, -491.0, -492.0, -504.0, -514.0, -520.0, -522.0, -522.0, -522.0, -522.0, -522.0, -520.0, -517.0, -512.0, -507.0, -491.0, -475.0, -460.0, -440.0, -413.0, -386.0, -354.0, -321.0, -282.0, -240.0, -197.0, -149.0, -105.0, -62.0, 1.0, 34.0, 65.0, 101.0, 130.0, 163.0, 197.0, 224.0, 249.0, 269.0, 286.0, 302.0, 329.0, 348.0, 371.0, 406.0, 441.0, 480.0, 504.0, 528.0, 540.0, 540.0, 540.0, 540.0, 534.0, 522.0, 514.0, 506.0, 496.0, 481.0, 462.0, 447.0, 434.0, 420.0, 401.0]	[0.006859019209514372, 0.012109404065995477, 0.017417132869013585, 0.029096866899635643, 0.04553444220800884, 0.06251541971869301, 0.0788830217497889, 0.09584420194732957, 0.11220531865546945, 0.12923476545256563, 0.14558188751107082, 0.1626051903149346, 0.17885981110157445, 0.19578480999916792, 0.2120759534300305, 0.22920506948139518, 0.24555662885541096, 0.26255057702655904, 0.2788666377746267, 0.2957612580212299, 0.3123261505534174, 0.32924500544322655, 0.34557164751458913, 0.3624986944050761, 0.37885059510881547, 0.39577695933985524, 0.4120773187605664, 0.4291105202282779, 0.4455723301798571, 0.46255842768005095, 0.47884922978118993, 0.4958401059557218, 0.5120602521055844, 0.5292470534477616, 0.5456365007848945, 0.5625215637119254, 0.5786672992690001, 0.5958233806304634, 0.6120268014783505, 0.6291436295286985, 0.6455463888705708, 0.6625720810116036, 0.6788720991025912, 0.6958032419788651, 0.7122674412676133, 0.729208482807735, 0.7456255781289656, 0.7625249770499067, 0.7788441097945906, 0.795781396664097, 0.8122636866028188, 0.8291518215264659, 0.8455525328608928, 0.8625946089887293, 0.8788669790956192, 0.8958677539339988, 0.9122493506147293, 0.9292009734781459, 0.9457429967005737, 0.9626038249843987, 0.9788505951146362, 0.9957527246879181, 1.012308401230257, 1.0291856135008857, 1.0454975782486144, 1.0626120169763453, 1.0788471817795653]
35	inanimate/n76.jpg	animate	inanimate	right	0.811	[0.0, 0.0, 0.0, 0.0, 0.0, 0.0, 0.0, 0.0, 0.0, 0.0, 0.0, 1.0, 1.0, 1.0, -1.0, -2.0, -3.0, -3.0, 6.0, 29.0, 67.0, 120.0, 188.0, 265.0, 349.0, 423.0, 498.0, 565.0, 637.0, 701.0, 765.0, 852.0, 888.0, 915.0, 929.0, 936.0, 938.0, 940.0, 940.0, 940.0, 940.0, 940.0, 940.0, 940.0, 940.0, 940.0, 940.0, 940.0]	[-490.0, -490.0, -490.0, -490.0, -490.0, -490.0, -490.0, -490.0, -490.0, -490.0, -490.0, -490.0, -487.0, -484.0, -480.0, -472.0, -461.0, -443.0, -414.0, -384.0, -343.0, -300.0, -250.0, -195.0, -136.0, -79.0, -18.0, 38.0, 93.0, 146.0, 201.0, 272.0, 311.0, 345.0, 369.0, 386.0, 398.0, 402.0, 403.0, 403.0, 406.0, 413.0, 420.0, 422.0, 422.0, 422.0, 422.0, 422.0]	[0.006313159407000057, 0.01173523478792049, 0.027485365339089185, 0.04437384159245994, 0.060805955581599846, 0.07745072004036047, 0.0971306179126259, 0.11082967821857892, 0.1279816635797033, 0.14410418849729467, 0.16191699463524856, 0.1772988268348854, 0.19502834770537447, 0.21076857960724737, 0.22882475619553588, 0.24411954848619644, 0.2613213684671791, 0.2774957759975223, 0.29436547894147225, 0.31075936362321954, 0.3276485225360375, 0.344171431104769, 0.36110530464793555, 0.3773111148184398, 0.3943654789327411, 0.41056446245056577, 0.42769801583199296, 0.44411442847922444, 0.4609185954759596, 0.4773575361177791, 0.49428594834171236, 0.5106030330789508, 0.5276440852030646, 0.5441755271021975, 0.5611186166497646, 0.5771906242589466, 0.5944245295540895, 0.6108068089088192, 0.6276918718358502, 0.6442362843808951, 0.6610227020573802, 0.6775817919260589, 0.6943354416289367, 0.710510531833279, 0.7277737917611375, 0.7438758366915863, 0.761017923388863, 0.7772319255600451]
36	animate/a42.jpg	inanimate	animate	right	0.963	[0.0, 6.0, 6.0, 6.0, 10.0, 17.0, 25.0, 30.0, 33.0, 36.0, 38.0, 41.0, 43.0, 48.0, 61.0, 76.0, 93.0, 113.0, 136.0, 159.0, 181.0, 205.0, 234.0, 288.0, 309.0, 386.0, 437.0, 479.0, 519.0, 557.0, 592.0, 626.0, 660.0, 688.0, 713.0, 741.0, 748.0, 760.0, 761.0, 761.0, 761.0, 761.0, 761.0, 763.0, 765.0, 769.0, 771.0, 774.0, 776.0, 781.0, 782.0, 785.0, 785.0, 785.0, 784.0, 778.0, 773.0, 769.0]	[-490.0, -505.0, -505.0, -506.0, -511.0, -516.0, -517.0, -520.0, -520.0, -520.0, -520.0, -520.0, -520.0, -521.0, -524.0, -528.0, -533.0, -536.0, -539.0, -539.0, -539.0, -536.0, -525.0, -499.0, -487.0, -442.0, -413.0, -387.0, -357.0, -323.0, -283.0, -229.0, -173.0, -120.0, -75.0, -12.0, 11.0, 64.0, 95.0, 121.0, 146.0, 170.0, 191.0, 211.0, 230.0, 248.0, 264.0, 283.0, 290.0, 313.0, 321.0, 350.0, 372.0, 393.0, 417.0, 435.0, 452.0, 461.0]	[0.010165648913243786, 0.015515361679717898, 0.020930269063683227, 0.03547856597288046, 0.05176254140678793, 0.06897767339251004, 0.08506879565538839, 0.10220269036653917, 0.11834364726382773, 0.13555536590865813, 0.15169256813533138, 0.16881827086035628, 0.18504421967372764, 0.20218221038521733, 0.2183794872398721, 0.2356106618681224, 0.25171236545429565, 0.269032286683796, 0.2850606036663521, 0.3021805037278682, 0.3186460683355108, 0.33557038455910515, 0.3518359280133154, 0.3688401161780348, 0.3850623103353428, 0.40207571447535884, 0.41851772711379454, 0.4355625339085236, 0.45443756846361794, 0.4689428574201884, 0.4879274598933989, 0.5020982424612157, 0.5212883274216438, 0.5354546726593981, 0.5543160538945813, 0.5688281695183832, 0.5877984359976836, 0.6021569517470198, 0.618738228266011, 0.6354737873189151, 0.6520748611510498, 0.6687401055969531, 0.6850612863345305, 0.7018886639707489, 0.7184341005195165, 0.7351973075565184, 0.7546427096240222, 0.7685906017140951, 0.7880155238090083, 0.8019159706163919, 0.8199485952354735, 0.8354010833718348, 0.8549021227372577, 0.8686554549931316, 0.8879800251743291, 0.9019354266056325, 0.9204216828220524, 0.9353403260902269]
37	inanimate/n66.jpg	animate	inanimate	right	1.495	[0.0, 0.0, 0.0, 0.0, 0.0, 3.0, 18.0, 37.0, 55.0, 78.0, 97.0, 117.0, 135.0, 157.0, 185.0, 209.0, 232.0, 255.0, 278.0, 301.0, 323.0, 352.0, 385.0, 420.0, 454.0, 485.0, 532.0, 565.0, 593.0, 615.0, 638.0, 655.0, 673.0, 686.0, 694.0, 701.0, 707.0, 711.0, 712.0, 709.0, 698.0, 671.0, 609.0, 508.0, 398.0, 282.0, 149.0, 6.0, -114.0, -220.0, -364.0, -440.0, -469.0, -482.0, -488.0, -492.0, -492.0, -492.0, -492.0, -493.0, -486.0, -383.0, -275.0, -135.0, 14.0, 170.0, 304.0, 424.0, 510.0, 576.0, 619.0, 657.0, 693.0, 755.0, 772.0, 815.0, 838.0, 851.0, 853.0, 853.0, 854.0, 854.0, 854.0, 854.0, 852.0, 850.0, 846.0, 841.0, 838.0, 833.0]	[-490.0, -494.0, -494.0, -494.0, -495.0, -495.0, -495.0, -495.0, -495.0, -495.0, -498.0, -498.0, -498.0, -498.0, -498.0, -498.0, -493.0, -483.0, -473.0, -459.0, -443.0, -422.0, -394.0, -356.0, -313.0, -272.0, -199.0, -143.0, -85.0, -39.0, 15.0, 55.0, 96.0, 133.0, 159.0, 184.0, 209.0, 232.0, 261.0, 275.0, 291.0, 309.0, 335.0, 367.0, 395.0, 409.0, 427.0, 446.0, 456.0, 456.0, 458.0, 458.0, 455.0, 450.0, 446.0, 444.0, 443.0, 443.0, 443.0, 442.0, 440.0, 437.0, 437.0, 437.0, 437.0, 437.0, 447.0, 465.0, 476.0, 486.0, 498.0, 509.0, 520.0, 524.0, 524.0, 523.0, 518.0, 514.0, 513.0, 513.0, 512.0, 512.0, 512.0, 512.0, 505.0, 499.0, 491.0, 483.0, 477.0, 466.0]	[0.006934795135748573, 0.017948588414583355, 0.028705357894068584, 0.045415658300044015, 0.062093190746963955, 0.08032378851203248, 0.09523185045691207, 0.11275554751046002, 0.12871696322690696, 0.1455614075093763, 0.16189351091452409, 0.17894719235482626, 0.19541036763985176, 0.21232068921381142, 0.2285770166781731, 0.24552932221558876, 0.26196962817630265, 0.27906495226488914, 0.2953984209889313, 0.3122892865794711, 0.32849134207936004, 0.34562489546078723, 0.3621307373687159, 0.3789314910391113, 0.3954226556379581, 0.41227187859476544, 0.4287483658554265, 0.4456750714161899, 0.4621713560045464, 0.47909089356835466, 0.49557352483680006, 0.5122872385691153, 0.5285869153303793, 0.5455614075181074, 0.5621676013397519, 0.5790751922468189, 0.5952226344670635, 0.612357553181937, 0.6285193313960917, 0.6456122661329573, 0.6619375428708736, 0.6791011335590156, 0.6953311783727258, 0.7123131798871327, 0.7285333260515472, 0.7456631247623591, 0.7617873563285684, 0.7789314910332905, 0.7951458345341962, 0.812354822512134, 0.8285189900634577, 0.8456177274638321, 0.8619269615446683, 0.879091576236533, 0.8953526823606808, 0.9123070358909899, 0.9301198420289438, 0.9453583143476862, 0.9648204417462694, 0.978842744443682, 0.9981403493147809, 1.012295430569793, 1.0313288436591392, 1.0455201062140986, 1.0623304172040662, 1.0791810054943198, 1.095234239794081, 1.1120390894502634, 1.1289033310604282, 1.1453924476518296, 1.1646822018665262, 1.1787720885040471, 1.196353129504132, 1.2122114626399707, 1.2291910748172086, 1.2453968849877128, 1.2623450945247896, 1.2788615177705651, 1.2956322341196937, 1.3122558359318646, 1.328961357678054, 1.3453962023195345, 1.3624208704568446, 1.3787519498582697, 1.395555092851282, 1.412033969463664, 1.4288603230961598, 1.4452323624573182, 1.4623529451928334, 1.47856831268291]
38	animate/a75.jpg	animate	inanimate	left	1.048	[0.0, 0.0, 0.0, 0.0, 0.0, 0.0, 0.0, 0.0, 0.0, 0.0, 0.0, 0.0, 0.0, 5.0, 10.0, 18.0, 25.0, 40.0, 57.0, 90.0, 100.0, 138.0, 167.0, 197.0, 232.0, 273.0, 320.0, 376.0, 440.0, 503.0, 566.0, 631.0, 719.0, 766.0, 808.0, 843.0, 865.0, 877.0, 879.0, 879.0, 873.0, 860.0, 837.0, 806.0, 715.0, 642.0, 575.0, 491.0, 399.0, 275.0, 138.0, -34.0, -191.0, -361.0, -510.0, -623.0, -722.0, -757.0, -778.0, -787.0, -792.0, -798.0, -800.0]	[-490.0, -490.0, -490.0, -490.0, -490.0, -490.0, -490.0, -490.0, -490.0, -490.0, -490.0, -490.0, -490.0, -490.0, -489.0, -487.0, -484.0, -480.0, -474.0, -468.0, -467.0, -461.0, -452.0, -444.0, -429.0, -408.0, -383.0, -341.0, -286.0, -227.0, -157.0, -81.0, 29.0, 92.0, 153.0, 211.0, 257.0, 291.0, 323.0, 352.0, 378.0, 401.0, 428.0, 452.0, 493.0, 511.0, 518.0, 518.0, 518.0, 505.0, 492.0, 492.0, 492.0, 492.0, 492.0, 492.0, 481.0, 477.0, 471.0, 468.0, 464.0, 459.0, 457.0]	[0.013330830232007429, 0.01874334827880375, 0.02755793275719043, 0.04190074717917014, 0.05870935150596779, 0.0752687827043701, 0.09203096573764924, 0.10855182631348725, 0.12517099079559557, 0.1419597977946978, 0.15854107431368902, 0.17517355078598484, 0.19212380833050702, 0.20864023156173062, 0.22522048409155104, 0.24203045373724308, 0.2585591649694834, 0.2752346494089579, 0.2922268909023842, 0.3087016715144273, 0.3252686120395083, 0.3419280538219027, 0.35866805020486936, 0.3752937000244856, 0.39219890159438364, 0.408301287854556, 0.42517133212822955, 0.4421700589591637, 0.4585069410095457, 0.47547597186348867, 0.49194494981202297, 0.5087361461482942, 0.5252788520301692, 0.5421717656136025, 0.5583912291185698, 0.575591001106659, 0.5917561926471535, 0.6086815328599187, 0.6250443562312284, 0.6420915523485746, 0.6583707491372479, 0.6754377425677376, 0.6916712007077876, 0.7086985995119903, 0.7249539029726293, 0.7420755096973153, 0.7583151118451497, 0.7757056890113745, 0.7916729073767783, 0.8088259167416254, 0.8249849642888876, 0.8421666456270032, 0.8583301305043278, 0.8754070225986652, 0.8916998726926977, 0.9087084981729276, 0.9250279722473351, 0.9421922456094762, 0.9583495864790166, 0.975654147710884, 0.9916749553813133, 1.0087859807827044, 1.0251371988269966]
39	animate/a77.jpg	animate	inanimate	left	1.128	[0.0, 0.0, 0.0, 0.0, 0.0, 9.0, 27.0, 54.0, 78.0, 101.0, 117.0, 131.0, 150.0, 169.0, 191.0, 222.0, 248.0, 283.0, 311.0, 358.0, 383.0, 405.0, 433.0, 467.0, 500.0, 552.0, 605.0, 657.0, 712.0, 764.0, 831.0, 856.0, 870.0, 884.0, 888.0, 891.0, 891.0, 891.0, 889.0, 882.0, 878.0, 865.0, 857.0, 849.0, 842.0, 836.0, 828.0, 817.0, 795.0, 752.0, 673.0, 563.0, 439.0, 308.0, 176.0, -29.0, -167.0, -305.0, -443.0, -583.0, -691.0, -748.0, -770.0, -779.0, -782.0, -783.0, -789.0, -794.0]	[-490.0, -490.0, -490.0, -490.0, -490.0, -490.0, -492.0, -499.0, -504.0, -507.0, -507.0, -504.0, -497.0, -487.0, -473.0, -455.0, -437.0, -418.0, -401.0, -369.0, -352.0, -332.0, -310.0, -286.0, -263.0, -226.0, -187.0, -150.0, -110.0, -69.0, -10.0, 18.0, 40.0, 69.0, 92.0, 118.0, 141.0, 171.0, 206.0, 248.0, 283.0, 333.0, 355.0, 372.0, 382.0, 393.0, 405.0, 416.0, 431.0, 449.0, 475.0, 496.0, 515.0, 519.0, 519.0, 519.0, 519.0, 519.0, 519.0, 519.0, 519.0, 516.0, 511.0, 506.0, 505.0, 504.0, 497.0, 493.0]	[0.01590004401805345, 0.021180807510972954, 0.02952981372072827, 0.046847686942783184, 0.06599373994686175, 0.08000443731725682, 0.09844802691077348, 0.11340558214578778, 0.13285064289811999, 0.14691322289581876, 0.16451542654249351, 0.1801553065306507, 0.19757284899242222, 0.21356669135275297, 0.22984384011942893, 0.24655516452912707, 0.2633845901727909, 0.28003652262850665, 0.29653144188341685, 0.3131734756898368, 0.3298892374150455, 0.34653092989174183, 0.362963726525777, 0.379824554809602, 0.39815994183300063, 0.41327792359516025, 0.43121292695286684, 0.4465363912167959, 0.46342555012961384, 0.47989930673793424, 0.496816796308849, 0.5129720891854959, 0.5299616000265814, 0.546590321828262, 0.5635119073995156, 0.5798982827400323, 0.5967440923704999, 0.6133673528529471, 0.6300831145927077, 0.6463025780831231, 0.6635337527113734, 0.6798535681155045, 0.6966266738018021, 0.7133335608814377, 0.7301111038977979, 0.7465152285585646, 0.7633644515153719, 0.7798706347675761, 0.7967645723547321, 0.8129720891884062, 0.8300414719560649, 0.8465452658711001, 0.8635149793990422, 0.8798481067933608, 0.896804849646287, 0.9132540302816778, 0.9301305598783074, 0.9465882738295477, 0.9633839075104333, 0.9796682242740644, 0.9967495536984643, 1.013247203620267, 1.0300680959335295, 1.0465189832320902, 1.0635491127031855, 1.0796982615866, 1.0966870897536865, 1.1133605261857156]
40	animate/a31.jpg	inanimate	animate	right	1.269	[0.0, 0.0, 0.0, 0.0, 2.0, 9.0, 19.0, 30.0, 41.0, 52.0, 64.0, 83.0, 103.0, 136.0, 168.0, 221.0, 274.0, 335.0, 396.0, 433.0, 467.0, 483.0, 490.0, 490.0, 490.0, 490.0, 491.0, 491.0, 491.0, 491.0, 491.0, 491.0, 491.0, 491.0, 491.0, 527.0, 573.0, 633.0, 692.0, 736.0, 760.0, 764.0, 751.0, 717.0, 684.0, 661.0, 646.0, 637.0, 630.0, 626.0, 621.0, 619.0, 619.0, 619.0, 619.0, 619.0, 619.0, 619.0, 619.0, 618.0, 632.0, 652.0, 672.0, 691.0, 704.0, 705.0, 706.0, 707.0, 707.0, 707.0, 707.0, 707.0, 715.0, 741.0, 770.0, 789.0]	[-490.0, -490.0, -490.0, -490.0, -489.0, -487.0, -486.0, -484.0, -481.0, -480.0, -476.0, -468.0, -460.0, -442.0, -421.0, -391.0, -363.0, -328.0, -293.0, -271.0, -252.0, -243.0, -238.0, -238.0, -238.0, -238.0, -237.0, -237.0, -237.0, -237.0, -237.0, -237.0, -237.0, -237.0, -235.0, -190.0, -147.0, -94.0, -40.0, 18.0, 64.0, 108.0, 154.0, 213.0, 273.0, 322.0, 360.0, 383.0, 411.0, 425.0, 437.0, 442.0, 443.0, 443.0, 443.0, 443.0, 443.0, 443.0, 443.0, 443.0, 447.0, 448.0, 451.0, 453.0, 458.0, 458.0, 459.0, 459.0, 459.0, 459.0, 459.0, 459.0, 459.0, 456.0, 453.0, 449.0]	[0.001117456122301519, 0.007024907084996812, 0.017288450326304883, 0.03416463859321084, 0.05105209084285889, 0.06751424212416168, 0.08441603036771994, 0.10066382450168021, 0.11762671136239078, 0.13393082545371726, 0.15115210141811986, 0.16726711700903252, 0.1844201263738796, 0.20062218187376857, 0.2179107004631078, 0.23405950801679865, 0.2511705334036378, 0.2672794050013181, 0.28437780107196886, 0.3005839525721967, 0.3177502739272313, 0.3339284361281898, 0.35105413883866277, 0.36726541034295224, 0.38442558770475443, 0.400652219177573, 0.41750485547527205, 0.434234953194391, 0.4510336588573409, 0.4674173035455169, 0.4844272943591932, 0.5034648034488782, 0.5178199058718747, 0.5354299601749517, 0.5511650720873149, 0.5681539002544014, 0.584332745114807, 0.601197669384419, 0.6178792978171259, 0.6342277851945255, 0.6509841655642958, 0.6673012503160862, 0.6841190706327325, 0.7008420003548963, 0.7176547006820329, 0.7341697585798101, 0.7508660643361509, 0.7688997129444033, 0.7841603719280101, 0.8018031942046946, 0.8174993941356661, 0.8346104195370572, 0.8509124856354902, 0.8679385191062465, 0.8841467185993679, 0.9010925388138276, 0.917248173020198, 0.9343923077249201, 0.9507612750894623, 0.967737815270084, 0.9839798067405354, 1.001046117511578, 1.017518508786452, 1.0345442009274848, 1.0505783205881016, 1.0677637565822806, 1.08414944926335, 1.1011826507310616, 1.1175055381318089, 1.1344175663689384, 1.150903269634, 1.1676814953243593, 1.1841910919029033, 1.2010491895052837, 1.2172440770227695, 1.234321651791106]
