trialIndex	stimulus	left_option	right_option	response	response_time	xTrajectory	yTrajectory	tTrajectory
0	animate/a69.jpg	animate	inanimate	left	1.742	[0.0, 0.0, 0.0, 0.0, 0.0, 0.0, 0.0, 0.0, 0.0, 0.0, 0.0, 0.0, 0.0, 0.0, 0.0, 0.0, 0.0, 0.0, 0.0, 0.0, 0.0, 0.0, 0.0, 0.0, 0.0, 0.0, 0.0, 0.0, 0.0, 0.0, 0.0, 0.0, 0.0, 0.0, 0.0, 0.0, 0.0, 0.0, 0.0, 0.0, 0.0, 0.0, 0.0, 0.0, 0.0, 0.0, 0.0, 0.0, 0.0, -1.0, -1.0, -1.0, -2.0, -2.0, -3.0, -3.0, -4.0, -4.0, -4.0, -5.0, -5.0, -6.0, -9.0, -15.0, -25.0, -44.0, -70.0, -109.0, -194.0, -218.0, -249.0, -257.0, -282.0, -299.0, -315.0, -333.0, -361.0, -392.0, -432.0, -478.0, -536.0, -549.0, -596.0, -612.0, -646.0, -658.0, -664.0, -665.0, -667.0, -669.0, -680.0, -685.0, -697.0, -704.0, -737.0, -748.0, -774.0, -781.0, -788.0, -797.0, -805.0, -807.0, -808.0, -808.0, -808.0]	[-490.0, -490.0, -490.0, -490.0, -490.0, -490.0, -490.0, -490.0, -490.0, -490.0, -490.0, -490.0, -490.0, -490.0, -490.0, -490.0, -490.0, -490.0, -490.0, -490.0, -490.0, -490.0, -490.0, -490.0, -490.0, -490.0, -490.0, -490.0, -490.0, -490.0, -490.0, -490.0, -490.0, -490.0, -490.0, -490.0, -490.0, -490.0, -490.0, -490.0, -490.0, -490.0, -490.0, -490.0, -490.0, -490.0, -490.0, -489.0, -487.0, -486.0, -486.0, -486.0, -486.0, -486.0, -485.0, -484.0, -483.0, -482.0, -481.0, -480.0, -476.0, -469.0, -456.0, -434.0, -405.0, -361.0, -300.0, -211.0, -36.0, 2.0, 43.0, 50.0, 71.0, 85.0, 97.0, 108.0, 123.0, 140.0, 162.0, 186.0, 218.0, 225.0, 251.0, 258.0, 279.0, 287.0, 291.0, 291.0, 293.0, 294.0, 302.0, 304.0, 314.0, 317.0, 338.0, 345.0, 361.0, 370.0, 379.0, 393.0, 403.0, 408.0, 412.0, 412.0, 412.0]	[0.013998882481246255, 0.019956848700530827, 0.029857551540771965, 0.04294698657031404, 0.05992864094878314, 0.0762139761573053, 0.09304578538285568, 0.10953318968677195, 0.12656297200737754, 0.1430193150154082, 0.15993816413538298, 0.17638051249377895, 0.19313620447792346, 0.2096843660401646, 0.22658512451744173, 0.24309847012045793, 0.2598473354446469, 0.2761794332691352, 0.2929846185215865, 0.3097191478664172, 0.3266666689523845, 0.342773828371719, 0.35993161054648226, 0.37608860457112314, 0.3930101843579905, 0.40999525207007537, 0.426269664625579, 0.4431154685007641, 0.4596707980526844, 0.47642410070693586, 0.49303028886788525, 0.5099003273790004, 0.5261218333325814, 0.5432407035477809, 0.5598004704297637, 0.5766947435840848, 0.5930377640615916, 0.6099231625557877, 0.6264395801554201, 0.6434051918840851, 0.6596966710931156, 0.6766261015291093, 0.6930059859660105, 0.709943608395406, 0.7263784474271233, 0.7433140218636254, 0.759520509171125, 0.7766202647399041, 0.7930929917274625, 0.8099343582725851, 0.826387287954276, 0.8434085369517561, 0.8595798669630312, 0.876641051916522, 0.8931629308426636, 0.9100483293368598, 0.9263643845115439, 0.9433620815398172, 0.9597225099932984, 0.9767290816744207, 0.9930632274918025, 1.0100790151700494, 1.0263407984093647, 1.0435149645563797, 1.0594821774793672, 1.0767696661641821, 1.0930154067536932, 1.110066010383889, 1.1263585135820904, 1.1435425783856772, 1.1596644151286455, 1.176807519979775, 1.1928180821851129, 1.2100731442405959, 1.2262253596127266, 1.243398501763295, 1.2594578745774925, 1.27696313366323, 1.2929781331986305, 1.3100918834170443, 1.326357421319699, 1.3434356729194405, 1.3596807308422285, 1.376719387822959, 1.3930019923718646, 1.4101293959101895, 1.4263730884995311, 1.4462171607956407, 1.459509347580024, 1.480154528253479, 1.4927316225584946, 1.5126204094631248, 1.5264324462987133, 1.5459324550029123, 1.5594502628518967, 1.5788290983691695, 1.593028548071743, 1.6123292183474405, 1.6264027161960257, 1.6444087106865481, 1.659433503402397, 1.6768151999713155, 1.6930414845846826, 1.7098173152116942, 1.7261016264237696]
1	inanimate/n66.jpg	animate	inanimate	right	1.267	[0.0, 0.0, 0.0, 0.0, 0.0, 0.0, 0.0, 0.0, 0.0, -1.0, -1.0, -1.0, -1.0, -1.0, -1.0, -1.0, -1.0, -1.0, -1.0, -1.0, -1.0, -1.0, -1.0, -1.0, -1.0, -1.0, -1.0, 1.0, 2.0, 3.0, 3.0, 3.0, 1.0, -2.0, -15.0, -34.0, -63.0, -92.0, -108.0, -119.0, -139.0, -158.0, -184.0, -200.0, -202.0, -187.0, -154.0, -108.0, -38.0, 39.0, 108.0, 165.0, 245.0, 288.0, 318.0, 339.0, 348.0, 353.0, 365.0, 385.0, 412.0, 433.0, 459.0, 504.0, 612.0, 671.0, 702.0, 719.0, 737.0, 755.0, 763.0, 765.0, 765.0, 765.0, 765.0, 765.0]	[-490.0, -490.0, -490.0, -490.0, -490.0, -490.0, -490.0, -490.0, -490.0, -489.0, -489.0, -489.0, -489.0, -489.0, -489.0, -489.0, -489.0, -489.0, -489.0, -489.0, -489.0, -489.0, -489.0, -489.0, -489.0, -489.0, -489.0, -486.0, -485.0, -482.0, -477.0, -469.0, -459.0, -447.0, -430.0, -410.0, -387.0, -365.0, -348.0, -333.0, -296.0, -269.0, -233.0, -190.0, -146.0, -99.0, -50.0, -1.0, 45.0, 87.0, 127.0, 154.0, 190.0, 206.0, 213.0, 222.0, 225.0, 229.0, 236.0, 247.0, 266.0, 281.0, 298.0, 316.0, 355.0, 381.0, 393.0, 403.0, 409.0, 416.0, 419.0, 421.0, 421.0, 421.0, 421.0, 421.0]	[0.006826180644566193, 0.012366014030703809, 0.028909055596159305, 0.04513499887980288, 0.06231462636060314, 0.07874673472542781, 0.09564919986587483, 0.11181302055774722, 0.1288953681505518, 0.14547595634212485, 0.16238797880214406, 0.17879653519776184, 0.19559352846408729, 0.21190582898270804, 0.22897384058887837, 0.245202173202415, 0.2623087554311496, 0.2785917013097787, 0.2957051101984689, 0.3118115869583562, 0.3290796196597512, 0.345153328460583, 0.362414875839022, 0.3785029206192121, 0.3956033588547143, 0.41184841678477824, 0.4290075642784359, 0.445200739603024, 0.46232370581128635, 0.4784885504996055, 0.49568080729659414, 0.5118453106479137, 0.5291966285876697, 0.5453624972797115, 0.5622127384776832, 0.5786465535129537, 0.5956841864899616, 0.6121012762159808, 0.6289593680703547, 0.6478869614584255, 0.662213387011434, 0.6813154015253531, 0.6955093899014173, 0.7146721616736613, 0.7290071205497952, 0.7479224259514012, 0.7622099395521218, 0.7814433672392624, 0.7956503262685146, 0.8131146254017949, 0.8289449638250517, 0.8453378189078649, 0.8619395697387517, 0.8816372102082823, 0.8952191886492074, 0.9146277201289195, 0.9286602580323233, 0.9467857190393261, 0.9618995996497688, 0.9797970502695534, 0.995438290250604, 1.0121762329217745, 1.0287028905149782, 1.0457637341314694, 1.0622518211021088, 1.0789645051336265, 1.0953945655055577, 1.1125178730508196, 1.1287066110380692, 1.1455739188895677, 1.1618855367341894, 1.1789651536673773, 1.1951945102773607, 1.2122161006118404, 1.2287352488710894, 1.2455940233994625]
2	animate/a24.jpg	inanimate	animate	right	1.335	[0.0, 0.0, 0.0, 0.0, 0.0, 0.0, 0.0, 0.0, 0.0, 0.0, 0.0, 0.0, 0.0, 0.0, 0.0, 0.0, 0.0, 0.0, 0.0, 0.0, -2.0, -5.0, -9.0, -14.0, -21.0, -28.0, -36.0, -45.0, -58.0, -75.0, -109.0, -151.0, -204.0, -258.0, -343.0, -369.0, -446.0, -485.0, -512.0, -532.0, -549.0, -566.0, -582.0, -591.0, -592.0, -592.0, -593.0, -589.0, -555.0, -525.0, -464.0, -365.0, -245.0, -107.0, 13.0, 132.0, 243.0, 340.0, 418.0, 468.0, 498.0, 508.0, 515.0, 518.0, 521.0, 526.0, 532.0, 537.0, 544.0, 552.0, 578.0, 628.0, 694.0, 720.0, 743.0, 763.0, 773.0, 773.0, 773.0, 773.0]	[-490.0, -490.0, -490.0, -490.0, -490.0, -490.0, -490.0, -490.0, -490.0, -490.0, -490.0, -488.0, -487.0, -483.0, -477.0, -474.0, -470.0, -464.0, -457.0, -449.0, -437.0, -430.0, -417.0, -401.0, -382.0, -365.0, -346.0, -328.0, -307.0, -278.0, -233.0, -185.0, -128.0, -71.0, 6.0, 28.0, 100.0, 144.0, 174.0, 204.0, 224.0, 244.0, 259.0, 269.0, 271.0, 271.0, 272.0, 275.0, 287.0, 297.0, 315.0, 338.0, 361.0, 386.0, 410.0, 427.0, 440.0, 450.0, 450.0, 450.0, 450.0, 450.0, 450.0, 450.0, 451.0, 451.0, 451.0, 451.0, 451.0, 452.0, 454.0, 454.0, 454.0, 457.0, 458.0, 460.0, 462.0, 462.0, 462.0, 462.0]	[0.013291299328557216, 0.02210827012459049, 0.028257382778974716, 0.04185437987325713, 0.05841448808496352, 0.07491759370168438, 0.09184531748178415, 0.10830575648287777, 0.12506690979353152, 0.14133244769618614, 0.15856225111201638, 0.17473358112329151, 0.19187429664452793, 0.20804562666307902, 0.2251883901844849, 0.2414655333996052, 0.25857894228829537, 0.27469907236809377, 0.2918933771579759, 0.30804559253010666, 0.3250811775069451, 0.3413794833686552, 0.3585062042475329, 0.37498166189470794, 0.3918349750965717, 0.40804999571992084, 0.42524942050658865, 0.44159721964388154, 0.4584157168865204, 0.4775644940091297, 0.49172605575586203, 0.5080424522675457, 0.5249128321083845, 0.5447763603806379, 0.5583149895392125, 0.5781757871445734, 0.5915969977795612, 0.6084298310015583, 0.6248240514178178, 0.6446872383530717, 0.6580507637190749, 0.6775565750867827, 0.6916754702178878, 0.7107269674597774, 0.7250083370599896, 0.7443673752713948, 0.7582159347221022, 0.7765113795321668, 0.7916358414659044, 0.8097251211875118, 0.8249202390361461, 0.8419769866595743, 0.858021682157414, 0.8750910590970307, 0.8916672099585412, 0.9084676165584824, 0.9249758421719889, 0.9417404088089825, 0.958344890306762, 0.9751094569437555, 0.991648402516148, 1.0084156998200342, 1.0249877546884818, 1.0419595104103792, 1.05808578448341, 1.0751401427696692, 1.0916726030191057, 1.1084371696633752, 1.1247457155113807, 1.1419297803149675, 1.1580202144250507, 1.1752080338919768, 1.1913653692536172, 1.2085149594349787, 1.2246914094430394, 1.242045458042412, 1.258017108295462, 1.2752373543917201, 1.2913615804573055, 1.308391362785187]
3	inanimate/n76.jpg	animate	inanimate	right	1.336	[0.0, 0.0, 0.0, 0.0, 0.0, 0.0, 0.0, 0.0, 0.0, 0.0, 0.0, 0.0, 0.0, 0.0, 0.0, 0.0, 0.0, 0.0, 0.0, 0.0, 0.0, -10.0, -13.0, -23.0, -41.0, -98.0, -125.0, -141.0, -153.0, -163.0, -178.0, -196.0, -214.0, -249.0, -261.0, -313.0, -328.0, -374.0, -402.0, -436.0, -471.0, -506.0, -544.0, -587.0, -638.0, -697.0, -713.0, -714.0, -714.0, -703.0, -687.0, -664.0, -622.0, -530.0, -430.0, -309.0, -192.0, -73.0, 43.0, 161.0, 304.0, 380.0, 435.0, 480.0, 507.0, 533.0, 553.0, 572.0, 586.0, 601.0, 624.0, 653.0, 713.0, 754.0, 778.0, 790.0, 792.0, 792.0, 792.0, 792.0]	[-490.0, -490.0, -490.0, -490.0, -490.0, -490.0, -490.0, -490.0, -490.0, -490.0, -490.0, -490.0, -490.0, -490.0, -490.0, -490.0, -490.0, -490.0, -490.0, -490.0, -490.0, -479.0, -476.0, -466.0, -451.0, -422.0, -415.0, -410.0, -405.0, -400.0, -391.0, -379.0, -367.0, -340.0, -329.0, -270.0, -246.0, -159.0, -113.0, -69.0, -15.0, 46.0, 115.0, 188.0, 281.0, 382.0, 420.0, 427.0, 433.0, 439.0, 445.0, 453.0, 458.0, 473.0, 483.0, 499.0, 517.0, 533.0, 540.0, 540.0, 540.0, 540.0, 540.0, 540.0, 540.0, 540.0, 538.0, 532.0, 529.0, 525.0, 521.0, 515.0, 505.0, 500.0, 497.0, 495.0, 495.0, 495.0, 495.0, 495.0]	[0.013193678096286021, 0.018140616186428815, 0.02425696088175755, 0.04099695155309746, 0.05799430724437116, 0.07491998302430147, 0.09406773615046404, 0.10820301526109688, 0.12727840580919292, 0.1416277006646851, 0.1590483091858914, 0.17487557561253197, 0.19411924328596797, 0.2081077492402983, 0.22741046751616523, 0.24146041339554358, 0.2607590356783476, 0.27484891750646057, 0.2938775454458664, 0.3081759816923295, 0.3271366843764554, 0.3415917924430687, 0.35806076476728776, 0.3746754862513626, 0.3911437759088585, 0.4079090252125752, 0.4259709983016364, 0.44138525188463973, 0.46062209290539613, 0.47465531347552314, 0.4938187679144903, 0.5079810123279458, 0.5273762318247464, 0.5412790632108226, 0.5606783787079621, 0.5746658606585697, 0.5925414659723174, 0.608003164830734, 0.6256712397298543, 0.6412937063942081, 0.6581910515451455, 0.6746586585359182, 0.6915310863769264, 0.7079806027250015, 0.7247489240253344, 0.7413418002033723, 0.7581309428132954, 0.77472484298778, 0.791590102839109, 0.8079768139286898, 0.8250284415626084, 0.84143221929844, 0.858332295108994, 0.8746531289434643, 0.8915770980602247, 0.9078166946565034, 0.9248096130249905, 0.9413710865701432, 0.9582018717992469, 0.9747513986949343, 0.9914524774067104, 1.007743956608465, 1.024966592034616, 1.041130754056212, 1.0581455177307362, 1.0743991089766496, 1.091572251127218, 1.107741874482599, 1.1248955606497475, 1.1411570025593392, 1.1582110195158748, 1.1746226479153847, 1.19151521439926, 1.2079940853800508, 1.2247876653127605, 1.2439009438166977, 1.2581051721790573, 1.2743946033879183, 1.2913168658342329, 1.3084688453454874]
4	animate/a35.jpg	animate	inanimate	left	1.167	[0.0, 0.0, 0.0, 0.0, 0.0, 0.0, 0.0, 0.0, 0.0, 0.0, 0.0, 0.0, 0.0, 0.0, 0.0, 2.0, 2.0, 2.0, 3.0, 7.0, 9.0, 11.0, 13.0, 16.0, 19.0, 21.0, 23.0, 27.0, 29.0, 30.0, 30.0, 30.0, 30.0, 25.0, 10.0, -8.0, -33.0, -54.0, -70.0, -87.0, -103.0, -116.0, -156.0, -199.0, -245.0, -290.0, -322.0, -348.0, -368.0, -391.0, -417.0, -443.0, -474.0, -482.0, -499.0, -523.0, -577.0, -622.0, -654.0, -678.0, -696.0, -702.0, -703.0, -705.0, -707.0, -709.0, -709.0, -709.0, -709.0, -709.0]	[-490.0, -490.0, -490.0, -490.0, -490.0, -490.0, -490.0, -490.0, -490.0, -490.0, -490.0, -490.0, -490.0, -485.0, -483.0, -481.0, -478.0, -475.0, -466.0, -450.0, -435.0, -420.0, -403.0, -384.0, -361.0, -344.0, -333.0, -313.0, -290.0, -271.0, -257.0, -240.0, -226.0, -205.0, -173.0, -144.0, -114.0, -97.0, -81.0, -64.0, -46.0, -26.0, 42.0, 107.0, 172.0, 226.0, 268.0, 296.0, 313.0, 323.0, 332.0, 336.0, 339.0, 339.0, 339.0, 339.0, 346.0, 353.0, 357.0, 361.0, 366.0, 369.0, 370.0, 372.0, 375.0, 378.0, 379.0, 380.0, 380.0, 380.0]	[0.004305095651943702, 0.009333612310001627, 0.023470939420803916, 0.040390129877778236, 0.056900744821177796, 0.07345846370299114, 0.09062546186032705, 0.10666572003538022, 0.12377366759756114, 0.1402737012176658, 0.15719289166736417, 0.1735830160905607, 0.19046670792158693, 0.20690564294636715, 0.223739500172087, 0.24022792847245, 0.25709045765688643, 0.2735887846138212, 0.2903861192171462, 0.30693428077938734, 0.3236179515151889, 0.3402661236250424, 0.3572027220579912, 0.37344095332809957, 0.39046493298519636, 0.4069202519967803, 0.42373499457607977, 0.4400394444310223, 0.4571770879556425, 0.4733405673105153, 0.49046865351556335, 0.5067000581257162, 0.5236970724872663, 0.5399448610769468, 0.5573016403432121, 0.573290357242513, 0.5904399474165984, 0.6066532613840536, 0.6238147982148803, 0.63997759490303, 0.6571125077680335, 0.6734077416331274, 0.6904433266172418, 0.7094432825833792, 0.7236263483064249, 0.7427102721703704, 0.7570523990361835, 0.7759646324411733, 0.7903501085893367, 0.8091271741577657, 0.823660788795678, 0.8427259393502027, 0.8569759063320816, 0.8733056148194009, 0.8901568800210953, 0.9095671181639773, 0.9235365094791632, 0.9429778089179308, 0.9566304432737525, 0.9760850547027076, 0.9901838111909456, 1.0078508620863431, 1.0235228220262798, 1.0406553455613903, 1.0569058648106875, 1.0735584742506035, 1.0899806839661323, 1.1071432447934058, 1.1235555558523629, 1.1404310556972632]
5	inanimate/n5.jpg	inanimate	animate	left	1.184	[0.0, 0.0, 0.0, 0.0, 0.0, 0.0, 0.0, 0.0, 0.0, 0.0, 0.0, 1.0, 2.0, 3.0, 3.0, 4.0, 6.0, 7.0, 8.0, 8.0, 8.0, 8.0, 7.0, -6.0, -23.0, -36.0, -55.0, -101.0, -144.0, -181.0, -210.0, -234.0, -262.0, -294.0, -321.0, -338.0, -357.0, -383.0, -407.0, -424.0, -453.0, -465.0, -471.0, -477.0, -478.0, -480.0, -485.0, -491.0, -499.0, -512.0, -540.0, -572.0, -603.0, -627.0, -643.0, -654.0, -665.0, -671.0, -680.0, -688.0, -694.0, -704.0, -706.0, -710.0, -711.0, -711.0, -711.0, -711.0, -711.0, -711.0, -711.0]	[-490.0, -490.0, -490.0, -490.0, -490.0, -490.0, -490.0, -490.0, -490.0, -490.0, -489.0, -488.0, -486.0, -483.0, -477.0, -476.0, -468.0, -463.0, -453.0, -443.0, -421.0, -401.0, -380.0, -348.0, -310.0, -280.0, -248.0, -194.0, -155.0, -126.0, -105.0, -87.0, -69.0, -50.0, -35.0, -22.0, -9.0, 9.0, 22.0, 35.0, 52.0, 59.0, 62.0, 65.0, 68.0, 77.0, 93.0, 109.0, 127.0, 150.0, 191.0, 227.0, 256.0, 281.0, 300.0, 312.0, 324.0, 333.0, 341.0, 351.0, 357.0, 365.0, 368.0, 372.0, 372.0, 373.0, 373.0, 373.0, 373.0, 373.0, 373.0]	[0.01143444821354933, 0.016245535800408106, 0.02239191778789973, 0.037390086537925526, 0.053601011175487656, 0.07110661159094889, 0.08698883261968149, 0.10398721231467789, 0.12003259047924075, 0.13789863846614026, 0.1535388544507441, 0.17182235260406742, 0.18693008922127774, 0.20384927967825206, 0.22027183072350454, 0.23725519176514354, 0.25361835088551743, 0.27057850128767313, 0.28700924432632746, 0.30367448308243183, 0.320255753940728, 0.33712681645556586, 0.35357428480347153, 0.37047060595068615, 0.38690169032634003, 0.4038379474222893, 0.42026459446788067, 0.43708445703668986, 0.45363466659910046, 0.47043541452876525, 0.4868624029040802, 0.5038027560003684, 0.5200334779437981, 0.5371397188355331, 0.5533414274832467, 0.5705446069332538, 0.5866845343189198, 0.6038037458638428, 0.6200044305078336, 0.6371400260395603, 0.653337638686935, 0.6705769994223374, 0.6868363933317596, 0.7037996157378075, 0.7200122470312635, 0.7371198532637209, 0.7533440898769186, 0.7705339573440142, 0.7867295219984953, 0.8038405415500165, 0.8202852792383055, 0.8371618030796526, 0.8533443970809458, 0.870488525928522, 0.8868837703412282, 0.9037466408626642, 0.9224557811830891, 0.937070633051917, 0.9533703042470734, 0.970189825486159, 0.9875271487762802, 1.003585497594031, 1.0209381808599574, 1.036969905711885, 1.0538225362397498, 1.0702601059383596, 1.0899403384246398, 1.1036680660254206, 1.122913781699026, 1.1368947783339536, 1.1562463072114042]
6	inanimate/n12.jpg	inanimate	animate	left	1.563	[0.0, 0.0, 0.0, 0.0, 0.0, 0.0, 0.0, 0.0, 0.0, 0.0, 0.0, 0.0, 0.0, 0.0, 0.0, 0.0, 0.0, 0.0, 0.0, -2.0, -6.0, -8.0, -10.0, -12.0, -18.0, -20.0, -20.0, -20.0, -22.0, -22.0, -20.0, -19.0, -15.0, -11.0, -9.0, -6.0, -6.0, -5.0, -4.0, 0.0, 5.0, 5.0, 7.0, 8.0, 19.0, 28.0, 39.0, 48.0, 55.0, 65.0, 78.0, 83.0, 91.0, 93.0, 94.0, 100.0, 111.0, 132.0, 163.0, 208.0, 240.0, 266.0, 272.0, 264.0, 205.0, 86.0, -160.0, -332.0, -495.0, -636.0, -755.0, -860.0, -939.0, -960.0, -960.0, -960.0, -960.0, -954.0, -938.0, -929.0, -922.0, -918.0, -914.0, -909.0, -904.0, -898.0, -890.0, -882.0, -876.0, -872.0, -870.0, -870.0, -870.0, -870.0]	[-490.0, -490.0, -490.0, -490.0, -490.0, -490.0, -490.0, -490.0, -490.0, -490.0, -489.0, -488.0, -485.0, -481.0, -473.0, -464.0, -453.0, -438.0, -410.0, -390.0, -371.0, -352.0, -333.0, -322.0, -307.0, -294.0, -267.0, -253.0, -188.0, -172.0, -137.0, -123.0, -111.0, -99.0, -92.0, -81.0, -68.0, -57.0, -46.0, -34.0, -20.0, -14.0, -4.0, -2.0, 10.0, 18.0, 27.0, 36.0, 43.0, 52.0, 62.0, 67.0, 76.0, 79.0, 83.0, 90.0, 101.0, 119.0, 149.0, 182.0, 210.0, 238.0, 252.0, 263.0, 272.0, 274.0, 274.0, 255.0, 247.0, 245.0, 245.0, 245.0, 245.0, 254.0, 260.0, 267.0, 278.0, 290.0, 303.0, 312.0, 319.0, 328.0, 337.0, 346.0, 356.0, 369.0, 382.0, 394.0, 404.0, 409.0, 412.0, 412.0, 412.0, 412.0]	[0.006313157253316604, 0.013161661074263975, 0.027496619943121914, 0.0443605144682806, 0.06080047348950757, 0.07775004257564433, 0.094175665617513, 0.11113445069349837, 0.1275129697896773, 0.1444939415086992, 0.16066049286018824, 0.17782476035063155, 0.19389369049167726, 0.21107638996181777, 0.2274747063711402, 0.24455841929739108, 0.26078163191414205, 0.2778185822244268, 0.29412951740960125, 0.3111418917469564, 0.32730605377582833, 0.3445300545281498, 0.36061536864872323, 0.37801754519023234, 0.3940086514194263, 0.4110800763592124, 0.4275545100099407, 0.444591801657225, 0.46086792087589856, 0.47812468959455146, 0.49428100095974514, 0.511340479250066, 0.5275056652681087, 0.5446474047857919, 0.5605593217769638, 0.5779560369992396, 0.59399697783374, 0.6111984506133012, 0.627484127158823, 0.6446303040065686, 0.6606862634944264, 0.677885005614371, 0.6938863518298604, 0.7113219790044241, 0.7273339065432083, 0.7471574988594512, 0.7605565228514024, 0.7806535228373832, 0.7940214855334489, 0.8134337716765003, 0.8273311417433433, 0.8471147981108516, 0.8605619500449393, 0.8800483054292272, 0.8942013338528341, 0.9117779315274674, 0.9276045152801089, 0.9446179136211867, 0.96065646513307, 0.9779958364160848, 0.993915604063659, 1.0111938767586253, 1.027497302609845, 1.044366658461513, 1.0608161748095881, 1.0778493704565335, 1.0941702042910038, 1.1110317094789934, 1.127484980490408, 1.1444946241681464, 1.1606789248398854, 1.1776841311875614, 1.1941742661510943, 1.2110528379926109, 1.2274979170106235, 1.244319144912879, 1.260593216138659, 1.2777346143266186, 1.294036674851668, 1.3110101372440113, 1.3272811364658992, 1.3444931905760313, 1.3606249259682954, 1.377817182765284, 1.3939755421233713, 1.4110118097742088, 1.4272230757414945, 1.4444262551842257, 1.4606037291960092, 1.4777372767275665, 1.4939765319941216, 1.511119636845251, 1.527266049553873, 1.5446033728439943]
7	animate/a56.jpg	inanimate	animate	right	1.535	[0.0, 0.0, 0.0, 0.0, 0.0, 0.0, 0.0, 0.0, 0.0, 0.0, 0.0, 0.0, -1.0, -2.0, -4.0, -6.0, -11.0, -15.0, -20.0, -26.0, -35.0, -46.0, -64.0, -85.0, -101.0, -117.0, -129.0, -137.0, -148.0, -161.0, -177.0, -194.0, -217.0, -239.0, -255.0, -276.0, -299.0, -333.0, -352.0, -363.0, -370.0, -379.0, -392.0, -396.0, -397.0, -397.0, -397.0, -397.0, -404.0, -421.0, -443.0, -450.0, -450.0, -440.0, -422.0, -398.0, -340.0, -245.0, -150.0, -69.0, -2.0, 68.0, 145.0, 213.0, 267.0, 319.0, 360.0, 387.0, 408.0, 434.0, 462.0, 489.0, 515.0, 539.0, 563.0, 592.0, 630.0, 664.0, 697.0, 709.0, 716.0, 720.0, 724.0, 726.0, 726.0, 726.0, 726.0, 726.0, 726.0, 726.0, 726.0, 726.0]	[-490.0, -490.0, -490.0, -490.0, -490.0, -490.0, -490.0, -490.0, -490.0, -490.0, -490.0, -490.0, -487.0, -483.0, -477.0, -468.0, -457.0, -447.0, -425.0, -407.0, -385.0, -363.0, -335.0, -307.0, -284.0, -261.0, -238.0, -226.0, -212.0, -198.0, -178.0, -151.0, -120.0, -101.0, -89.0, -78.0, -70.0, -53.0, -44.0, -34.0, -18.0, -1.0, 31.0, 50.0, 71.0, 98.0, 119.0, 136.0, 156.0, 184.0, 224.0, 247.0, 254.0, 268.0, 280.0, 289.0, 298.0, 311.0, 327.0, 347.0, 362.0, 371.0, 374.0, 374.0, 374.0, 374.0, 371.0, 368.0, 364.0, 359.0, 355.0, 354.0, 354.0, 354.0, 354.0, 354.0, 357.0, 363.0, 374.0, 381.0, 385.0, 388.0, 390.0, 391.0, 391.0, 391.0, 391.0, 391.0, 391.0, 391.0, 391.0, 391.0]	[0.0046355059239431284, 0.010635114755132236, 0.023349083567154594, 0.04027783134370111, 0.0568608088651672, 0.07308982413815102, 0.08984551612229552, 0.10973839902726468, 0.12332310812780634, 0.14129838265216677, 0.15664095632382669, 0.17414826340973377, 0.18999839913885808, 0.20706845874519786, 0.22340977255953476, 0.24023236579523655, 0.2566532101773191, 0.2736290618995554, 0.290015090322413, 0.30694383809895953, 0.32343363173276884, 0.3405982405602117, 0.3566975493231439, 0.37356383317819564, 0.3901478346961085, 0.40678371881949715, 0.42336362434434704, 0.44007391905324766, 0.4568104963909718, 0.4736051003274042, 0.49002526204276364, 0.5066253062104806, 0.5234410727862269, 0.5398858104745159, 0.5569271981148631, 0.5733531624937314, 0.5898576334438985, 0.6067140186351025, 0.6245008773912559, 0.6399956855457276, 0.6565411164483521, 0.6733268457246595, 0.6901252043244313, 0.7064767581250635, 0.7234512445065775, 0.7398396622666041, 0.7567561220566859, 0.7731872064250638, 0.7905272603748017, 0.8067200943623902, 0.8235938875368447, 0.8400174625858199, 0.8569810263215913, 0.8732052629347891, 0.8902821492010844, 0.906560657756927, 0.9236593893292593, 0.9398307193405344, 0.9568519683380146, 0.973281004713499, 0.9902155551462783, 1.0066466395219322, 1.023602693931025, 1.0399409357414697, 1.0569481900893152, 1.0733366078493418, 1.090204257030564, 1.1066438747220673, 1.123646009080403, 1.1398589817108586, 1.1570526038340176, 1.173113000644662, 1.1902247028701822, 1.206685824537999, 1.2236022843280807, 1.2397446010436397, 1.2570201430717134, 1.2733515582294785, 1.2903584712476004, 1.3067311876875465, 1.3237428793581785, 1.3397629988903645, 1.3569921196394716, 1.3733252414604067, 1.390563919529086, 1.406691558935563, 1.423882791728829, 1.4399640098490636, 1.4571907412682776, 1.4733630952832755, 1.4904864028285374, 1.5066471515165176]
8	animate/a66.jpg	inanimate	animate	right	1.262	[0.0, 0.0, 0.0, 0.0, 0.0, 0.0, 0.0, 0.0, 0.0, 0.0, 1.0, 3.0, 3.0, 4.0, 4.0, 4.0, 4.0, 0.0, -14.0, -20.0, -33.0, -37.0, -46.0, -54.0, -64.0, -76.0, -97.0, -120.0, -131.0, -144.0, -172.0, -190.0, -263.0, -283.0, -355.0, -378.0, -386.0, -391.0, -397.0, -403.0, -413.0, -429.0, -442.0, -448.0, -450.0, -449.0, -441.0, -434.0, -418.0, -381.0, -319.0, -235.0, -151.0, -59.0, 58.0, 201.0, 315.0, 415.0, 537.0, 602.0, 662.0, 714.0, 752.0, 774.0, 785.0, 790.0, 793.0, 794.0, 795.0, 801.0, 810.0, 813.0, 813.0, 813.0, 813.0, 813.0]	[-490.0, -490.0, -490.0, -490.0, -490.0, -490.0, -490.0, -490.0, -490.0, -489.0, -481.0, -474.0, -465.0, -453.0, -441.0, -427.0, -413.0, -397.0, -373.0, -362.0, -339.0, -333.0, -317.0, -309.0, -300.0, -292.0, -282.0, -267.0, -253.0, -236.0, -208.0, -191.0, -133.0, -116.0, -51.0, -27.0, -12.0, 4.0, 22.0, 48.0, 78.0, 114.0, 144.0, 164.0, 179.0, 194.0, 212.0, 221.0, 233.0, 246.0, 263.0, 290.0, 314.0, 337.0, 357.0, 378.0, 396.0, 409.0, 418.0, 418.0, 418.0, 418.0, 418.0, 420.0, 422.0, 425.0, 426.0, 427.0, 429.0, 432.0, 436.0, 437.0, 437.0, 437.0, 437.0, 437.0]	[0.003401519134058617, 0.01169932255288586, 0.021773422522528563, 0.038874202087754384, 0.05519913192256354, 0.07210296239645686, 0.08853404676483478, 0.10551911446964368, 0.12187715359323192, 0.1388342320060474, 0.15514141252060654, 0.17211043758288724, 0.18844867940060794, 0.20584334661543835, 0.22157913581759203, 0.23887549915525597, 0.2551499117107596, 0.2722660512663424, 0.28830835743428906, 0.30591635772725567, 0.32165931492636446, 0.34178874154167715, 0.35498945110157365, 0.3749318272821256, 0.3883144672945491, 0.4080158624201431, 0.42167737143608974, 0.44127909735107096, 0.45514608878147556, 0.47464097749616485, 0.4882396812463412, 0.5078690551308682, 0.5218544890885823, 0.5393590655075968, 0.5549668548628688, 0.5720744610953261, 0.5885038388005341, 0.6055250877980143, 0.6215793406154262, 0.6386917255076696, 0.6549794500533608, 0.6719058084927383, 0.6884805940280785, 0.7053888618247584, 0.7218499834925751, 0.7386783793917857, 0.7552224449609639, 0.771976088944939, 0.7884460852656048, 0.8054151103278855, 0.8216878162202192, 0.838683465248323, 0.8549370565015124, 0.8719569401655463, 0.8884982750751078, 0.9053877695623669, 0.9217017767368816, 0.9387117617516196, 0.9550759448684403, 0.9719415460494929, 0.988307777166483, 1.0054054847423686, 1.0217191505871597, 1.0386588210167247, 1.0548659909836715, 1.0720517624577042, 1.0882456204417394, 1.105374047976511, 1.1215580073112505, 1.1387154481490143, 1.154920228786068, 1.1720332963450346, 1.1882418316454277, 1.2053880084931734, 1.2215651411679573, 1.2386901553763892]
9	inanimate/n47.jpg	inanimate	animate	left	1.112	[0.0, 0.0, 0.0, 0.0, 0.0, 0.0, 0.0, 0.0, 0.0, -1.0, -1.0, -2.0, -3.0, -4.0, -7.0, -7.0, -9.0, -12.0, -17.0, -21.0, -28.0, -39.0, -48.0, -52.0, -55.0, -60.0, -68.0, -72.0, -102.0, -127.0, -150.0, -180.0, -229.0, -290.0, -341.0, -384.0, -414.0, -437.0, -449.0, -460.0, -468.0, -478.0, -489.0, -507.0, -530.0, -556.0, -592.0, -634.0, -681.0, -722.0, -757.0, -776.0, -790.0, -795.0, -799.0, -802.0, -804.0, -806.0, -807.0, -808.0, -810.0, -810.0, -810.0, -810.0, -810.0, -810.0, -810.0]	[-490.0, -490.0, -490.0, -490.0, -490.0, -490.0, -490.0, -490.0, -490.0, -491.0, -491.0, -488.0, -484.0, -479.0, -469.0, -466.0, -453.0, -443.0, -432.0, -418.0, -403.0, -384.0, -372.0, -368.0, -363.0, -358.0, -350.0, -348.0, -324.0, -295.0, -272.0, -247.0, -210.0, -166.0, -131.0, -96.0, -70.0, -53.0, -42.0, -30.0, -16.0, 1.0, 22.0, 54.0, 87.0, 121.0, 162.0, 200.0, 234.0, 265.0, 294.0, 311.0, 330.0, 340.0, 349.0, 356.0, 362.0, 367.0, 373.0, 377.0, 381.0, 382.0, 382.0, 382.0, 382.0, 382.0, 382.0]	[0.0157690350242774, 0.021494894856004976, 0.027600999557762407, 0.04690781382669229, 0.0613697485459852, 0.08047654171969043, 0.09474186867737444, 0.11376947261305759, 0.12803377557429485, 0.14733820051333169, 0.16134274911746616, 0.1794709407913615, 0.19475207453797339, 0.21313353523873957, 0.22804637075751089, 0.245615117768466, 0.2614539895148482, 0.2805225534029887, 0.29476262172101997, 0.31369260443898384, 0.3280064006758039, 0.34511707889760146, 0.3614655607016175, 0.3778908424137626, 0.3944813292619074, 0.41245933444588445, 0.4277633374949801, 0.4472452555564814, 0.4612050895448192, 0.4792404386680573, 0.49472500683623366, 0.5121022660750896, 0.5278800392261473, 0.5454054369547521, 0.5609688530312269, 0.5781501871679211, 0.5946713834346156, 0.6114318540785462, 0.6279230130385258, 0.644705670325493, 0.6612459812313318, 0.6780999770926428, 0.6943539096755558, 0.7115721077716444, 0.7278444723342545, 0.7448329533726792, 0.7613135310166399, 0.7781217882729834, 0.7945197633453063, 0.8113525965673034, 0.8276945930483635, 0.844781036634231, 0.8610499878632254, 0.8780695301975356, 0.8943408707564231, 0.9114290210127365, 0.9276911455817753, 0.9447523305352661, 0.9609792978153564, 0.9780913413706003, 0.9942988526745467, 1.0114593655089266, 1.0276412768434966, 1.0447946216809214, 1.0611113595223287, 1.0780319153127493, 1.0945814422084368]
10	animate/a41.jpg	animate	inanimate	left	1.652	[0.0, 0.0, 0.0, 0.0, 0.0, 0.0, 0.0, 0.0, 0.0, 0.0, 0.0, 0.0, 0.0, 0.0, 3.0, 6.0, 9.0, 11.0, 13.0, 19.0, 28.0, 35.0, 63.0, 89.0, 107.0, 124.0, 135.0, 144.0, 153.0, 156.0, 159.0, 160.0, 164.0, 168.0, 173.0, 179.0, 191.0, 207.0, 220.0, 251.0, 306.0, 362.0, 414.0, 453.0, 490.0, 520.0, 539.0, 557.0, 580.0, 593.0, 606.0, 616.0, 628.0, 637.0, 645.0, 653.0, 665.0, 674.0, 676.0, 676.0, 671.0, 652.0, 595.0, 507.0, 380.0, 234.0, 68.0, -101.0, -272.0, -431.0, -550.0, -612.0, -625.0, -625.0, -625.0, -625.0, -625.0, -627.0, -631.0, -633.0, -634.0, -634.0, -637.0, -642.0, -647.0, -658.0, -672.0, -673.0, -674.0, -674.0, -674.0, -676.0, -678.0, -681.0, -681.0, -681.0, -681.0, -681.0, -681.0]	[-490.0, -490.0, -490.0, -490.0, -490.0, -490.0, -490.0, -490.0, -490.0, -490.0, -490.0, -490.0, -490.0, -491.0, -489.0, -485.0, -478.0, -466.0, -450.0, -435.0, -414.0, -390.0, -329.0, -267.0, -229.0, -198.0, -179.0, -161.0, -141.0, -126.0, -116.0, -108.0, -96.0, -83.0, -68.0, -46.0, -15.0, 24.0, 47.0, 92.0, 154.0, 201.0, 234.0, 256.0, 278.0, 293.0, 306.0, 314.0, 320.0, 324.0, 330.0, 337.0, 343.0, 347.0, 351.0, 355.0, 361.0, 365.0, 366.0, 366.0, 368.0, 369.0, 369.0, 373.0, 373.0, 373.0, 365.0, 350.0, 343.0, 343.0, 343.0, 343.0, 343.0, 343.0, 343.0, 343.0, 344.0, 349.0, 354.0, 360.0, 364.0, 370.0, 378.0, 387.0, 395.0, 403.0, 410.0, 411.0, 412.0, 412.0, 412.0, 413.0, 415.0, 415.0, 415.0, 416.0, 416.0, 416.0, 416.0]	[0.005677595348970499, 0.010360000422224402, 0.0267060928963474, 0.04326176378526725, 0.060086063684138935, 0.07632975628075656, 0.09334861594834365, 0.10979267096990952, 0.1266777281271061, 0.1430282579312916, 0.16004541092843283, 0.17654851655242965, 0.19335916313139023, 0.20973256223805947, 0.2266268353923806, 0.2430968317130464, 0.2600614194452646, 0.2763569946473581, 0.2934079396072775, 0.3098161546731717, 0.3266110999393277, 0.3432183121039998, 0.3600231560267275, 0.3764286404257291, 0.39326249765144894, 0.4097966645640554, 0.4266602177522145, 0.4429540862838621, 0.46010231113177724, 0.4765166701909038, 0.4933119567867834, 0.5095836386826704, 0.5266929515782977, 0.5428683775826357, 0.5600695090397494, 0.576212167085032, 0.5933791652423679, 0.6095392312709009, 0.626667317475949, 0.6429178367252462, 0.6600943922094302, 0.6764145433771773, 0.6932600059153629, 0.7096948449470801, 0.7267089259548811, 0.7432383142077015, 0.7600373554741964, 0.779095338039042, 0.7932480251329252, 0.8124172822281253, 0.8266058092776802, 0.8456969011385809, 0.8600117213718477, 0.8788696828414686, 0.8932800762922852, 0.91066313819465, 0.9267419669849914, 0.9434491896899999, 0.9598304394530714, 0.9763093104338623, 0.993055103761435, 1.0127329469178221, 1.026438829212566, 1.0466757757021696, 1.0598365493133315, 1.0794652405311354, 1.0930724776117131, 1.1128243900093366, 1.1262909979268443, 1.1432767482983763, 1.159779171248374, 1.1792204706871416, 1.1930652754817856, 1.2107282303841203, 1.22628447846364, 1.2432197115631425, 1.2599221556156408, 1.2767150528816273, 1.2930812839986174, 1.3100131037717802, 1.3264527214632835, 1.3433125199881033, 1.3598002656217432, 1.3765139736569836, 1.3931037778384052, 1.4099219337440445, 1.4264468846740783, 1.4433565178042045, 1.4596363916862174, 1.4766979179694317, 1.4930993063753704, 1.509798337094253, 1.5264263705612393, 1.5433489743445534, 1.5597961013627355, 1.5767245078022825, 1.5932153254398145, 1.6100700039678486, 1.6262573766289279]
11	animate/a30.jpg	inanimate	animate	right	1.249	[0.0, 1.0, 1.0, 1.0, 1.0, 1.0, 1.0, 1.0, 1.0, 1.0, 2.0, 2.0, 2.0, 1.0, -3.0, -9.0, -18.0, -43.0, -71.0, -91.0, -94.0, -94.0, -94.0, -94.0, -96.0, -96.0, -96.0, -96.0, -96.0, -96.0, -97.0, -97.0, -97.0, -97.0, -97.0, -97.0, -97.0, -97.0, -100.0, -106.0, -107.0, -114.0, -115.0, -120.0, -120.0, -120.0, -114.0, -101.0, -96.0, -89.0, -79.0, -47.0, -32.0, 66.0, 112.0, 215.0, 278.0, 337.0, 401.0, 470.0, 540.0, 595.0, 644.0, 684.0, 729.0, 754.0, 770.0, 773.0, 773.0, 773.0, 773.0, 773.0, 773.0, 773.0, 773.0]	[-490.0, -490.0, -490.0, -490.0, -490.0, -490.0, -490.0, -490.0, -490.0, -490.0, -489.0, -487.0, -483.0, -476.0, -463.0, -445.0, -418.0, -371.0, -318.0, -245.0, -200.0, -162.0, -134.0, -109.0, -86.0, -70.0, -63.0, -60.0, -60.0, -60.0, -58.0, -58.0, -58.0, -58.0, -58.0, -58.0, -58.0, -58.0, -57.0, -57.0, -57.0, -56.0, -56.0, -55.0, -55.0, -54.0, -30.0, 26.0, 67.0, 95.0, 119.0, 165.0, 178.0, 228.0, 243.0, 273.0, 292.0, 308.0, 320.0, 335.0, 351.0, 369.0, 391.0, 407.0, 423.0, 435.0, 442.0, 444.0, 444.0, 444.0, 444.0, 444.0, 444.0, 444.0, 444.0]	[0.013115854198986199, 0.01786550186079694, 0.024260032885649707, 0.04152362826425815, 0.05770212626521243, 0.07463735936471494, 0.0909667265295866, 0.10805009811883792, 0.124451145187777, 0.14133551968552638, 0.157563852299063, 0.17466906919435132, 0.1908793111651903, 0.2076107685061288, 0.22490883850696264, 0.24117266974644735, 0.2580959561964846, 0.27448505661595846, 0.29144145236205077, 0.30781928879150655, 0.3247347245851415, 0.34099241183139384, 0.35804506345448317, 0.37438944926543627, 0.3914277649091673, 0.4075605243051541, 0.42480637036351254, 0.4411797694701818, 0.45814299187622964, 0.4744488070573425, 0.4926254680103739, 0.5077943032229086, 0.5250971518835286, 0.5411947539905668, 0.5582730055830325, 0.5744607195811113, 0.5915976804390084, 0.6078307917123311, 0.6250660564546706, 0.6412278291463736, 0.6582849181068013, 0.6744613681148621, 0.6917744567617774, 0.7078007202799199, 0.7249605504475767, 0.7408847554252134, 0.7583633905451279, 0.7742708702062373, 0.7943060889374465, 0.8076552783240913, 0.8275768331877771, 0.8409970198263181, 0.8606335617005243, 0.8742735667328816, 0.8938688073249068, 0.9077777827114915, 0.9260442142185639, 0.9411594601624529, 0.9587780417787144, 0.9744312284165062, 0.9923945562841254, 1.007781844571582, 1.0247621336166048, 1.041150892706355, 1.058033219203935, 1.074475567562331, 1.0913476540736156, 1.10775894112885, 1.124608841004374, 1.1411730452164193, 1.158034550404409, 1.1744775814222521, 1.1913855078892084, 1.2078210295876488, 1.224606076204509]
12	inanimate/n65.jpg	inanimate	animate	left	1.484	[0.0, 1.0, 1.0, 1.0, 1.0, 1.0, 1.0, 1.0, 1.0, 2.0, 3.0, 5.0, 5.0, 5.0, 6.0, 8.0, 10.0, 13.0, 15.0, 15.0, 15.0, 5.0, -14.0, -21.0, -26.0, -35.0, -44.0, -55.0, -64.0, -67.0, -69.0, -70.0, -73.0, -76.0, -79.0, -84.0, -91.0, -106.0, -124.0, -156.0, -198.0, -239.0, -273.0, -304.0, -329.0, -347.0, -362.0, -383.0, -396.0, -409.0, -421.0, -429.0, -438.0, -451.0, -465.0, -483.0, -503.0, -526.0, -551.0, -590.0, -616.0, -636.0, -649.0, -653.0, -656.0, -657.0, -657.0, -657.0, -657.0, -657.0, -657.0, -657.0, -657.0, -657.0, -657.0, -657.0, -657.0, -660.0, -666.0, -669.0, -670.0, -673.0, -677.0, -677.0, -678.0, -680.0, -683.0, -683.0, -684.0, -684.0]	[-490.0, -490.0, -490.0, -490.0, -490.0, -490.0, -490.0, -490.0, -490.0, -490.0, -490.0, -487.0, -478.0, -468.0, -458.0, -449.0, -437.0, -423.0, -401.0, -365.0, -324.0, -276.0, -211.0, -188.0, -170.0, -149.0, -124.0, -97.0, -76.0, -62.0, -54.0, -47.0, -38.0, -29.0, -24.0, -7.0, 12.0, 32.0, 49.0, 72.0, 104.0, 138.0, 166.0, 190.0, 208.0, 221.0, 232.0, 247.0, 255.0, 262.0, 269.0, 273.0, 277.0, 284.0, 290.0, 297.0, 303.0, 311.0, 318.0, 326.0, 330.0, 334.0, 336.0, 339.0, 339.0, 340.0, 340.0, 340.0, 340.0, 340.0, 340.0, 340.0, 340.0, 340.0, 340.0, 340.0, 340.0, 340.0, 340.0, 340.0, 340.0, 340.0, 341.0, 342.0, 343.0, 344.0, 348.0, 349.0, 350.0, 350.0]	[0.012385401743813418, 0.017544990245369263, 0.023291330042411573, 0.03986475024430547, 0.05641973846650217, 0.07355055533844279, 0.08969423738017213, 0.10689946483034873, 0.1233482985117007, 0.14016679575433955, 0.1566487387244706, 0.17348703328025294, 0.19007274146133568, 0.20686768673476763, 0.22321616853150772, 0.24010600435576634, 0.2565090994248749, 0.27345081785460934, 0.28970065444445936, 0.3069011032275739, 0.32300382532412186, 0.3402387487294618, 0.3563779934484046, 0.3735060796534526, 0.38971222563122865, 0.40692598639725475, 0.4233567294359091, 0.44005917348113144, 0.45648684452316957, 0.4735016081976937, 0.49240360160911223, 0.5068174083935446, 0.5258750496286666, 0.5400386593682924, 0.5587082050697063, 0.5734254568160395, 0.5904409031572868, 0.6069467394409003, 0.6230409282143228, 0.6397737508887076, 0.6593003835587297, 0.6733366761254729, 0.6911109055581619, 0.7066265350222238, 0.7237751011998625, 0.7398819192894734, 0.7568693763314513, 0.7731519808803569, 0.790030894044321, 0.806718319443462, 0.823489712740411, 0.8399774583740509, 0.8568471555554424, 0.8732464959684876, 0.8901400864488096, 0.906610424106475, 0.9235343932232354, 0.9399446562820231, 0.9567733935109572, 0.9729921688049217, 0.9900813430504058, 1.006775936439226, 1.0234456125253928, 1.0397070544349845, 1.05680476201087, 1.0730569879233371, 1.0901680074821343, 1.1063512841501506, 1.1234824423518148, 1.1396469457031344, 1.1568863064458128, 1.173000975191826, 1.190152613366081, 1.2063720713267685, 1.2237134906099527, 1.2397305381382466, 1.2567326724965824, 1.2731023169399123, 1.2901450699137058, 1.3063396105644642, 1.3235257233682205, 1.339906973131292, 1.3568131929278024, 1.3732197013305267, 1.3898514894608525, 1.4071840340911876, 1.4232826601873967, 1.4405117809365038, 1.4566476123291068, 1.4734910268743988]
13	animate/a48.jpg	animate	inanimate	left	1.311	[0.0, 0.0, 0.0, 0.0, 0.0, 0.0, 2.0, 2.0, 2.0, 2.0, 2.0, 2.0, 2.0, 2.0, 2.0, 2.0, 2.0, 2.0, -5.0, -15.0, -33.0, -42.0, -53.0, -63.0, -71.0, -80.0, -88.0, -91.0, -93.0, -95.0, -100.0, -102.0, -99.0, -69.0, -38.0, -8.0, 22.0, 57.0, 98.0, 139.0, 191.0, 243.0, 283.0, 326.0, 362.0, 392.0, 415.0, 431.0, 441.0, 443.0, 443.0, 436.0, 404.0, 342.0, 200.0, 102.0, 1.0, -91.0, -179.0, -261.0, -353.0, -429.0, -508.0, -567.0, -607.0, -626.0, -648.0, -656.0, -682.0, -694.0, -697.0, -701.0, -704.0, -714.0, -729.0, -738.0, -738.0, -738.0, -738.0]	[-490.0, -490.0, -490.0, -490.0, -490.0, -490.0, -490.0, -490.0, -490.0, -490.0, -490.0, -490.0, -488.0, -483.0, -475.0, -463.0, -448.0, -430.0, -398.0, -368.0, -323.0, -293.0, -255.0, -219.0, -191.0, -168.0, -136.0, -123.0, -93.0, -86.0, -69.0, -54.0, -31.0, 7.0, 40.0, 75.0, 112.0, 151.0, 190.0, 226.0, 263.0, 289.0, 305.0, 322.0, 331.0, 339.0, 341.0, 344.0, 345.0, 346.0, 346.0, 345.0, 335.0, 312.0, 292.0, 277.0, 273.0, 273.0, 280.0, 295.0, 319.0, 343.0, 365.0, 381.0, 395.0, 403.0, 411.0, 415.0, 422.0, 426.0, 426.0, 428.0, 430.0, 432.0, 434.0, 435.0, 435.0, 436.0, 436.0]	[0.008483625075314194, 0.013429197832010686, 0.019050609778787475, 0.032999521114106756, 0.05021328188740881, 0.06637198258249555, 0.08348163680784637, 0.09973283872386673, 0.11683020497002872, 0.13307287356292363, 0.15006408526096493, 0.1663552231329959, 0.1831109151171404, 0.2001526440944872, 0.21658953111909796, 0.23362170277687255, 0.2499073793151183, 0.26714605739107355, 0.28327915811678395, 0.30033488174376544, 0.31661202495888574, 0.3337561538137379, 0.3499496704680496, 0.3692558020702563, 0.38325830267422134, 0.4032699694362236, 0.4166068708364037, 0.4362458020405029, 0.4499151617055759, 0.46929502121929545, 0.482980082204449, 0.5027787572180387, 0.5165948900466901, 0.535934813611675, 0.5498789462872082, 0.5690178247532458, 0.5832268317753915, 0.6022598970375839, 0.616587346594315, 0.6346953996253433, 0.6499069014535053, 0.6669162038015202, 0.6846160226559732, 0.7000640681944788, 0.7163838780325023, 0.7335433668704354, 0.7498839980107732, 0.7667847564880503, 0.7833376967100776, 0.8001425406400813, 0.8166019556374522, 0.8334535621761461, 0.8498894252043101, 0.8667942796746502, 0.8832724679887178, 0.9000585386020248, 0.9166285454775789, 0.9335931332097971, 0.9497357912550797, 0.9667201763004414, 0.9832314739032881, 1.0000776191154728, 1.0163885542933713, 1.0334016113047255, 1.049648717227683, 1.0668266380380373, 1.0829945547229727, 1.1001222995910211, 1.116343122885155, 1.1335282116851886, 1.1497415256526438, 1.166807147928921, 1.1830078325729119, 1.200176196063694, 1.216346843408246, 1.2335066735759028, 1.2499271766282618, 1.266692084602255, 1.2833668806779315]
14	animate/a30.jpg	animate	inanimate	left	1.415	[0.0, 0.0, 0.0, 0.0, 0.0, 0.0, 0.0, 0.0, 0.0, 0.0, 1.0, 1.0, 1.0, 1.0, 1.0, 1.0, 1.0, 1.0, 1.0, -1.0, -5.0, -9.0, -18.0, -22.0, -26.0, -30.0, -36.0, -55.0, -79.0, -98.0, -108.0, -108.0, -108.0, -108.0, -108.0, -108.0, -108.0, -101.0, -96.0, -95.0, -94.0, -91.0, -85.0, -72.0, -4.0, 92.0, 175.0, 232.0, 276.0, 332.0, 398.0, 433.0, 449.0, 453.0, 453.0, 453.0, 447.0, 392.0, 293.0, 137.0, -39.0, -204.0, -376.0, -530.0, -668.0, -782.0, -880.0, -959.0, -960.0, -960.0, -960.0, -955.0, -948.0, -943.0, -938.0, -936.0, -933.0, -931.0, -926.0, -920.0, -916.0, -914.0, -914.0, -914.0, -914.0]	[-490.0, -490.0, -490.0, -490.0, -490.0, -490.0, -490.0, -490.0, -490.0, -490.0, -490.0, -485.0, -480.0, -474.0, -468.0, -464.0, -458.0, -451.0, -441.0, -427.0, -412.0, -394.0, -370.0, -349.0, -324.0, -291.0, -254.0, -207.0, -157.0, -116.0, -86.0, -58.0, -23.0, -6.0, 7.0, 23.0, 41.0, 62.0, 78.0, 91.0, 107.0, 130.0, 158.0, 196.0, 266.0, 326.0, 375.0, 415.0, 443.0, 468.0, 488.0, 497.0, 504.0, 506.0, 506.0, 506.0, 505.0, 490.0, 462.0, 428.0, 397.0, 376.0, 358.0, 354.0, 355.0, 373.0, 388.0, 412.0, 428.0, 431.0, 434.0, 440.0, 446.0, 449.0, 451.0, 452.0, 453.0, 456.0, 459.0, 463.0, 466.0, 467.0, 467.0, 467.0, 467.0]	[0.014502348545647692, 0.022128408767457586, 0.02906361115310574, 0.044003411967423744, 0.06115709814184811, 0.07736597477924079, 0.09449098898767261, 0.11088418540020939, 0.12778289587731706, 0.1441296710181632, 0.16105466413137037, 0.17756050041498384, 0.1944872001913609, 0.21317312986502657, 0.22770060050970642, 0.24654388467024546, 0.2610420006822096, 0.28006994594761636, 0.2943393688983633, 0.3136007858920493, 0.327741867658915, 0.34683569018670823, 0.3611484624198056, 0.37820418604678707, 0.39442876399698434, 0.411033928154211, 0.42774592952628154, 0.44429784575186204, 0.4609309992156341, 0.47762934726051753, 0.4942321220951271, 0.5108918995247222, 0.5276994741143426, 0.5442322756935027, 0.5609101437730715, 0.5788523090013769, 0.5939552669588011, 0.6120035867279512, 0.6275632481410867, 0.6444930199140799, 0.6608773416737677, 0.6776589749642881, 0.694068214026629, 0.7112543268231093, 0.7275703819977934, 0.7445032257746789, 0.7606489558165777, 0.7776780554704601, 0.794225534373254, 0.8111921700983658, 0.8276102838208317, 0.8442144239816116, 0.8609861586155603, 0.8777940745349042, 0.8942067269235849, 0.9111416186933639, 0.9275242337898817, 0.9444079256209079, 0.9607792767274077, 0.9778657203132752, 0.994416612542409, 1.0111374885673285, 1.0275999755685916, 1.0444717207428766, 1.0607249706590665, 1.0777902516056201, 1.093988546919718, 1.1111620304000098, 1.1273060537860147, 1.1445157185589778, 1.1606375552946702, 1.1778513160679722, 1.1939874887902988, 1.2111951055630925, 1.227358926254965, 1.244449807170895, 1.2606552704746719, 1.277792913999292, 1.2939843826607103, 1.3111090555321425, 1.3273244174924912, 1.3445248662756057, 1.360679812314629, 1.3775481441625743, 1.3946137664388516]
15	animate/a10.jpg	inanimate	animate	right	1.477	[0.0, 1.0, 1.0, 1.0, 1.0, 1.0, 1.0, 1.0, 1.0, 1.0, 1.0, 1.0, 1.0, 0.0, 0.0, -4.0, -6.0, -14.0, -26.0, -36.0, -59.0, -70.0, -80.0, -80.0, -80.0, -80.0, -80.0, -80.0, -80.0, -80.0, -80.0, -80.0, -80.0, -80.0, -80.0, -80.0, -80.0, -80.0, -80.0, -80.0, -80.0, -80.0, -80.0, -80.0, -80.0, -80.0, -80.0, -80.0, -75.0, -72.0, -61.0, -53.0, -44.0, 13.0, 79.0, 142.0, 305.0, 365.0, 486.0, 595.0, 761.0, 859.0, 952.0, 959.0, 959.0, 959.0, 959.0, 959.0, 959.0, 959.0, 959.0, 959.0, 959.0, 959.0, 949.0, 930.0, 898.0, 865.0, 835.0, 807.0, 793.0, 785.0, 782.0, 782.0, 782.0, 782.0, 782.0, 782.0, 782.0]	[-490.0, -492.0, -492.0, -492.0, -492.0, -492.0, -492.0, -492.0, -492.0, -492.0, -492.0, -492.0, -492.0, -489.0, -483.0, -476.0, -468.0, -451.0, -433.0, -408.0, -360.0, -346.0, -330.0, -330.0, -330.0, -330.0, -330.0, -330.0, -330.0, -330.0, -330.0, -330.0, -330.0, -330.0, -330.0, -330.0, -330.0, -330.0, -330.0, -330.0, -330.0, -330.0, -330.0, -330.0, -330.0, -330.0, -330.0, -330.0, -325.0, -320.0, -296.0, -288.0, -287.0, -279.0, -261.0, -216.0, -140.0, -117.0, -72.0, -31.0, 38.0, 76.0, 105.0, 125.0, 141.0, 149.0, 151.0, 154.0, 155.0, 157.0, 161.0, 168.0, 178.0, 202.0, 223.0, 247.0, 277.0, 307.0, 335.0, 360.0, 377.0, 389.0, 395.0, 397.0, 397.0, 397.0, 397.0, 397.0, 397.0]	[0.01233488447178388, 0.0178426325583132, 0.022925762481463607, 0.03969169445190346, 0.05678462336800294, 0.07556953959283419, 0.08999358635628596, 0.10633353483717656, 0.12306533351511462, 0.1403886621556012, 0.15658661613269942, 0.17332660680403933, 0.18983824574388564, 0.2069653079524869, 0.22321889919840032, 0.24018246293417178, 0.256336726299196, 0.27356140972551657, 0.289799640988349, 0.30691100188414566, 0.3231611798037193, 0.34330596640211297, 0.35649882530560717, 0.3761421938397689, 0.38986855610710336, 0.409583945889608, 0.42302973249024944, 0.443219916371163, 0.4564629512169631, 0.4769217641078285, 0.4898780792937032, 0.507182634624769, 0.5232300607895013, 0.5406086853545276, 0.5565383516586735, 0.5740726240474032, 0.589587570844742, 0.6094947897290695, 0.6229767576223821, 0.643554013040557, 0.6566236507569556, 0.6763485978590325, 0.6898090617760317, 0.7098050272252294, 0.7231477312816423, 0.742745019873837, 0.7562321077566594, 0.7763717743655434, 0.7898247289631399, 0.8097800757896039, 0.8231934357609134, 0.8430504787102109, 0.8565181106168893, 0.8758122955696308, 0.8899503053471562, 0.909236980973219, 0.9231811136414763, 0.9413277372950688, 0.9562392074876698, 0.9760092105352669, 0.9898017913874355, 1.007829631183995, 1.0229506797841168, 1.0402327071424224, 1.0566197595617268, 1.0735935632837936, 1.0898225785640534, 1.1067851182961022, 1.1231759253860218, 1.1400517665533698, 1.1564678322756663, 1.1733603987668175, 1.189898661672487, 1.2066468443299527, 1.2232953577768058, 1.240238100202987, 1.25626231572096, 1.2733784552765428, 1.2898057849815814, 1.3066007302550133, 1.323258459684439, 1.3399615863963845, 1.356472201339784, 1.3734238184188143, 1.3895883217774099, 1.406701047999377, 1.423222585595795, 1.4399438029504381, 1.456300476747856]
16	inanimate/n48.jpg	animate	inanimate	right	1.644	[0.0, 0.0, 0.0, 0.0, 0.0, 0.0, 0.0, 0.0, 0.0, 0.0, 0.0, 0.0, -1.0, -3.0, -5.0, -6.0, -6.0, -9.0, -14.0, -34.0, -37.0, -37.0, -37.0, -38.0, -45.0, -53.0, -63.0, -83.0, -106.0, -138.0, -169.0, -215.0, -235.0, -256.0, -282.0, -322.0, -343.0, -357.0, -366.0, -374.0, -382.0, -390.0, -399.0, -421.0, -440.0, -456.0, -471.0, -485.0, -498.0, -512.0, -526.0, -543.0, -564.0, -592.0, -619.0, -654.0, -675.0, -693.0, -705.0, -709.0, -709.0, -709.0, -709.0, -709.0, -709.0, -709.0, -706.0, -638.0, -535.0, -402.0, -235.0, -65.0, 108.0, 257.0, 378.0, 476.0, 539.0, 571.0, 579.0, 579.0, 579.0, 579.0, 579.0, 580.0, 581.0, 583.0, 593.0, 617.0, 648.0, 667.0, 678.0, 686.0, 694.0, 711.0, 726.0, 733.0, 733.0, 733.0, 734.0]	[-490.0, -490.0, -490.0, -490.0, -490.0, -490.0, -490.0, -490.0, -490.0, -490.0, -490.0, -490.0, -488.0, -488.0, -487.0, -483.0, -483.0, -478.0, -469.0, -451.0, -450.0, -450.0, -450.0, -448.0, -437.0, -422.0, -405.0, -378.0, -347.0, -314.0, -276.0, -228.0, -206.0, -185.0, -159.0, -125.0, -108.0, -97.0, -88.0, -78.0, -66.0, -55.0, -43.0, -13.0, 14.0, 37.0, 54.0, 74.0, 92.0, 107.0, 119.0, 135.0, 157.0, 190.0, 220.0, 252.0, 268.0, 281.0, 289.0, 292.0, 292.0, 292.0, 292.0, 292.0, 292.0, 292.0, 293.0, 302.0, 317.0, 338.0, 362.0, 386.0, 412.0, 434.0, 450.0, 465.0, 475.0, 480.0, 481.0, 481.0, 481.0, 481.0, 481.0, 481.0, 479.0, 472.0, 456.0, 442.0, 431.0, 428.0, 428.0, 428.0, 428.0, 428.0, 431.0, 432.0, 432.0, 432.0, 433.0]	[0.0023909006122266874, 0.007856664749851916, 0.01950430950091686, 0.036574369107256643, 0.05304265877202852, 0.06991303861286724, 0.08635914163460257, 0.10336980930878781, 0.1210641668367316, 0.13672110813786276, 0.15307846459472785, 0.16991402848361759, 0.1890317443103413, 0.20325269798195222, 0.22235778449248755, 0.23655313820199808, 0.2553233771104715, 0.269932767660066, 0.2886832092553959, 0.3032410585292382, 0.32038587005081354, 0.3367039732183912, 0.35348663050535833, 0.3698429629657767, 0.3868215453476296, 0.4033837015595054, 0.4202373560910928, 0.4366192885208875, 0.4531418501137523, 0.46968796368309995, 0.48645014099020045, 0.503118451742921, 0.5197662825230509, 0.5364530252554687, 0.5558397114291438, 0.5698575720161898, 0.5874587456564768, 0.6032819160827785, 0.6205223008219036, 0.6364072525102529, 0.6535367040487472, 0.669546583587362, 0.6866347338363994, 0.7031139461469138, 0.7200979898625519, 0.7362618105471483, 0.7533516674666316, 0.7696148160393932, 0.7867534835604602, 0.8031333679973613, 0.8200634811000782, 0.836366906958574, 0.8533359320208547, 0.869769064389402, 0.8866653855366167, 0.9028507101975265, 0.9199859643922537, 0.9361491024174029, 0.9533249752348638, 0.9695058625657111, 0.986683442046342, 1.0031592410305166, 1.0199968529122998, 1.0364320332810166, 1.0533222104349989, 1.069775822776137, 1.0866769225904136, 1.1029100338637363, 1.1199862374633085, 1.1365350816922728, 1.1534716801252216, 1.169512620959722, 1.18664241382794, 1.2030915888462914, 1.219882779449108, 1.23642377302167, 1.253218718295102, 1.269661066646222, 1.2866567156816018, 1.3029301042333827, 1.3199820731970249, 1.3363708322867751, 1.3534228012504173, 1.369489342054294, 1.3866539508817368, 1.40314067251893, 1.4200161723565543, 1.4364534007181646, 1.453296473933733, 1.469493745251384, 1.4866419700992992, 1.502829001423379, 1.5200588048392092, 1.5362113615410635, 1.5535510741610778, 1.5695128257575561, 1.586636133302818, 1.6028258952937904, 1.6198980029002996]
17	inanimate/n41.jpg	animate	inanimate	right	1.355	[0.0, 0.0, 0.0, 0.0, 0.0, 0.0, 0.0, 0.0, 0.0, 0.0, 0.0, 0.0, 0.0, 0.0, 0.0, 0.0, 0.0, -13.0, -17.0, -38.0, -43.0, -48.0, -53.0, -60.0, -70.0, -80.0, -90.0, -100.0, -112.0, -125.0, -145.0, -166.0, -184.0, -218.0, -271.0, -354.0, -432.0, -507.0, -565.0, -624.0, -674.0, -700.0, -706.0, -706.0, -706.0, -710.0, -713.0, -715.0, -719.0, -719.0, -721.0, -721.0, -721.0, -707.0, -676.0, -558.0, -503.0, -320.0, -179.0, -39.0, 102.0, 239.0, 355.0, 437.0, 486.0, 522.0, 542.0, 554.0, 574.0, 588.0, 608.0, 640.0, 686.0, 746.0, 814.0, 874.0, 906.0, 920.0, 922.0, 922.0, 922.0, 922.0]	[-490.0, -490.0, -490.0, -490.0, -490.0, -490.0, -490.0, -490.0, -490.0, -488.0, -481.0, -467.0, -453.0, -438.0, -424.0, -407.0, -391.0, -338.0, -314.0, -245.0, -212.0, -189.0, -170.0, -152.0, -128.0, -105.0, -87.0, -69.0, -56.0, -45.0, -38.0, -29.0, -19.0, 8.0, 50.0, 100.0, 146.0, 189.0, 223.0, 258.0, 286.0, 301.0, 308.0, 314.0, 338.0, 354.0, 362.0, 368.0, 376.0, 378.0, 380.0, 383.0, 387.0, 390.0, 393.0, 407.0, 411.0, 440.0, 461.0, 480.0, 501.0, 519.0, 533.0, 533.0, 533.0, 533.0, 533.0, 533.0, 527.0, 521.0, 516.0, 508.0, 502.0, 502.0, 502.0, 502.0, 502.0, 502.0, 502.0, 502.0, 502.0, 502.0]	[0.009365014942886773, 0.014103398614679463, 0.018371084188402165, 0.032264358254906256, 0.05059905635425821, 0.06583957147813635, 0.0823689597309567, 0.09908744642598322, 0.11540042960405117, 0.13217694289050996, 0.15229681219352642, 0.16571904682496097, 0.18486577594740083, 0.19897306575876428, 0.218375453245244, 0.23231105259765172, 0.2517120747579611, 0.26560295949457213, 0.2850876082156901, 0.2989150050270837, 0.31850649095576955, 0.33229975448193727, 0.3515953047608491, 0.3654913094942458, 0.3839905300628743, 0.39907232537370874, 0.41811016929568723, 0.43208092594431946, 0.449198089489073, 0.4655861659121001, 0.48248078039614484, 0.4988787554757437, 0.5158522178608109, 0.5323256275150925, 0.5491785993799567, 0.5656410863812198, 0.5824868902564049, 0.5989845345466165, 0.6158569623876247, 0.6323501693550497, 0.6491840265734936, 0.6656396869148011, 0.6825991546575096, 0.6989998603967251, 0.7157193710881984, 0.7323071272694506, 0.7492160777401295, 0.7654553330066847, 0.7825588432388031, 0.7989752502908232, 0.8158497261320008, 0.8321613439766224, 0.8492576862190617, 0.8654918214961071, 0.8825762170818052, 0.8987458404299105, 0.9157848387403646, 0.9320370646601077, 0.9491941641608719, 0.965409184791497, 0.9824969937108108, 0.9987215716610081, 1.0158865218181745, 1.0320786731463159, 1.0492542046267772, 1.0653849160225946, 1.0825744421526906, 1.0987741028002347, 1.1157154798929696, 1.1322994814108824, 1.149225839857536, 1.1656572655629134, 1.1825170640877332, 1.2010852339008125, 1.21578917367151, 1.2347440736921271, 1.2490650379186263, 1.2667122915008804, 1.2825122512949747, 1.2989522103162017, 1.315530067848158, 1.335743462368555]
18	inanimate/n61.jpg	inanimate	animate	left	1.095	[0.0, 0.0, 0.0, 0.0, 0.0, 0.0, 1.0, 2.0, 2.0, 2.0, 2.0, 2.0, 2.0, 2.0, 2.0, 2.0, 2.0, 2.0, 2.0, 3.0, 3.0, 5.0, 7.0, 11.0, 12.0, 12.0, 8.0, -10.0, -32.0, -46.0, -56.0, -62.0, -67.0, -73.0, -81.0, -81.0, -76.0, -76.0, -77.0, -81.0, -84.0, -96.0, -121.0, -162.0, -209.0, -253.0, -304.0, -354.0, -446.0, -529.0, -623.0, -687.0, -730.0, -749.0, -749.0, -749.0, -749.0, -749.0, -749.0, -749.0, -749.0, -749.0, -749.0, -749.0, -749.0, -749.0]	[-490.0, -490.0, -490.0, -490.0, -490.0, -489.0, -485.0, -485.0, -484.0, -483.0, -483.0, -482.0, -482.0, -480.0, -479.0, -478.0, -473.0, -469.0, -465.0, -456.0, -444.0, -427.0, -405.0, -391.0, -379.0, -372.0, -363.0, -344.0, -311.0, -281.0, -250.0, -226.0, -182.0, -125.0, -78.0, -43.0, 15.0, 45.0, 63.0, 70.0, 75.0, 79.0, 85.0, 98.0, 111.0, 126.0, 148.0, 176.0, 236.0, 287.0, 338.0, 364.0, 384.0, 393.0, 394.0, 394.0, 394.0, 394.0, 394.0, 394.0, 394.0, 394.0, 394.0, 394.0, 394.0, 394.0]	[0.008647533140901942, 0.01706548575020861, 0.0314038579526823, 0.050475152500439435, 0.06470190884283511, 0.0821566506565432, 0.09802351169491885, 0.11488365155673819, 0.1313751518537174, 0.14784412417793646, 0.16432879782223608, 0.18408002755313646, 0.19792551501450362, 0.21715075071551837, 0.23121878723759437, 0.24892577408900252, 0.26459466203232296, 0.28209377713210415, 0.29780021170154214, 0.31474022346083075, 0.331128982550581, 0.3479744450887665, 0.3643823188249371, 0.38141790380177554, 0.3975786524970317, 0.41464359210658586, 0.4313327241688967, 0.44826966393884504, 0.46422322354192147, 0.48136086707381764, 0.49780150876176776, 0.514700560575875, 0.5312401888149907, 0.5480180674348958, 0.5644781651062658, 0.5812679903829121, 0.5978861251933267, 0.6146865317932679, 0.6311995360665605, 0.6481999637544504, 0.6642525099086924, 0.6812652255830471, 0.6978239684685832, 0.7146373457144364, 0.7311506913247285, 0.7480238018324599, 0.7645770833914867, 0.7813317513719085, 0.7978532889683265, 0.8147366394623532, 0.8310369933242328, 0.8481613248659414, 0.8643794174931827, 0.8813265972421505, 0.897605105797993, 0.9147492346528452, 0.9309738126030425, 0.948047285535722, 0.9642725461526425, 0.9810954807180678, 0.9982198122670525, 1.014469990186626, 1.0313809886501986, 1.047939390198735, 1.064804650050064, 1.0811521078576334]
19	animate/a64.jpg	animate	inanimate	left	2.483	[0.0, 0.0, 0.0, 0.0, 0.0, 0.0, 0.0, 0.0, 0.0, 0.0, 0.0, 0.0, 3.0, 4.0, 10.0, 15.0, 16.0, 16.0, 23.0, 24.0, 27.0, 27.0, 27.0, 27.0, 26.0, 26.0, 30.0, 37.0, 49.0, 55.0, 57.0, 60.0, 61.0, 61.0, 61.0, 53.0, 33.0, -10.0, -56.0, -102.0, -161.0, -218.0, -275.0, -318.0, -388.0, -445.0, -513.0, -562.0, -594.0, -613.0, -622.0, -627.0, -631.0, -634.0, -637.0, -638.0, -638.0, -640.0, -643.0, -647.0, -648.0, -648.0, -648.0, -647.0, -642.0, -628.0, -585.0, -509.0, -414.0, -375.0, -331.0, -272.0, -190.0, -93.0, 5.0, 62.0, 93.0, 116.0, 137.0, 168.0, 174.0, 181.0, 181.0, 182.0, 182.0, 182.0, 182.0, 182.0, 182.0, 182.0, 182.0, 182.0, 182.0, 193.0, 199.0, 203.0, 203.0, 204.0, 204.0, 204.0, 207.0, 214.0, 220.0, 232.0, 234.0, 235.0, 235.0, 241.0, 258.0, 281.0, 304.0, 331.0, 364.0, 395.0, 420.0, 442.0, 450.0, 452.0, 440.0, 412.0, 372.0, 308.0, 218.0, 113.0, -3.0, -114.0, -215.0, -299.0, -361.0, -428.0, -456.0, -472.0, -480.0, -490.0, -502.0, -523.0, -556.0, -597.0, -636.0, -665.0, -698.0, -734.0, -779.0, -797.0, -805.0, -806.0, -806.0, -806.0, -806.0]	[-490.0, -490.0, -490.0, -490.0, -490.0, -490.0, -490.0, -490.0, -490.0, -489.0, -477.0, -465.0, -451.0, -439.0, -421.0, -400.0, -351.0, -262.0, -156.0, -134.0, -94.0, -72.0, -52.0, -34.0, -8.0, 32.0, 83.0, 132.0, 178.0, 207.0, 226.0, 243.0, 252.0, 265.0, 271.0, 281.0, 295.0, 319.0, 342.0, 360.0, 384.0, 400.0, 417.0, 428.0, 454.0, 470.0, 489.0, 501.0, 509.0, 512.0, 513.0, 514.0, 514.0, 514.0, 514.0, 514.0, 514.0, 514.0, 514.0, 514.0, 512.0, 508.0, 505.0, 502.0, 501.0, 497.0, 484.0, 475.0, 473.0, 473.0, 473.0, 473.0, 473.0, 473.0, 473.0, 473.0, 473.0, 473.0, 473.0, 467.0, 465.0, 463.0, 463.0, 463.0, 463.0, 463.0, 463.0, 463.0, 463.0, 463.0, 463.0, 463.0, 462.0, 457.0, 456.0, 455.0, 455.0, 455.0, 455.0, 455.0, 454.0, 454.0, 454.0, 454.0, 454.0, 454.0, 454.0, 454.0, 454.0, 452.0, 452.0, 452.0, 452.0, 452.0, 452.0, 452.0, 451.0, 449.0, 441.0, 432.0, 424.0, 419.0, 419.0, 419.0, 419.0, 419.0, 419.0, 419.0, 409.0, 401.0, 396.0, 396.0, 396.0, 396.0, 396.0, 396.0, 396.0, 396.0, 396.0, 396.0, 396.0, 396.0, 396.0, 396.0, 396.0, 396.0, 396.0, 396.0, 396.0]	[0.0023185380196082406, 0.010744682622316759, 0.019765770513913594, 0.03821959380002227, 0.05347034891019575, 0.07254778745846124, 0.08668238390237093, 0.10308513764175586, 0.11984390162251657, 0.137157672936155, 0.1531866671211901, 0.17026082272059284, 0.18662398184096674, 0.20366741747420747, 0.2198861927681719, 0.23697809768054867, 0.25326104356645374, 0.2707673266486381, 0.28656421444611624, 0.30624854292545933, 0.31976054811821086, 0.3396032550808741, 0.3532521347733564, 0.37084204442362534, 0.3865836362892878, 0.40432680442609126, 0.4198827111758874, 0.4367377310336451, 0.4532166020144359, 0.4700296379305655, 0.4865057782444637, 0.503341683470353, 0.519944116967963, 0.5367318942444399, 0.5531718532729428, 0.5701118650322314, 0.5863934455774142, 0.6033235586874071, 0.6198850322398357, 0.6368588359619025, 0.6532974296496832, 0.6700933989195619, 0.686687640431046, 0.7034819030304789, 0.7199433660352952, 0.7366816500361892, 0.7546685298802913, 0.7700612794942572, 0.7864060066349339, 0.8033176877652295, 0.8199218279260094, 0.8366345119575271, 0.853072081656137, 0.8700516880344367, 0.886250324685534, 0.9034149335129769, 0.9196152768272441, 0.9367143497293, 0.9529815942951245, 0.970157808442309, 0.9864086690286058, 1.0034094380534953, 1.019642549326818, 1.0367327475760248, 1.0529740508427494, 1.0701174970236025, 1.0863120376816369, 1.1034653825190617, 1.1196578751769266, 1.1366453322116286, 1.152969238042715, 1.1701044922374422, 1.1864447820553323, 1.2034912896851893, 1.2196359957306413, 1.2367463326227153, 1.2529654492464033, 1.2700911461215583, 1.2863908173167147, 1.303318882426538, 1.3197298281520489, 1.3366415092823445, 1.355545892030932, 1.3699682321384898, 1.389346726318763, 1.403295978991082, 1.420763691450702, 1.436752408350003, 1.4536709161402541, 1.47014091246092, 1.4863436451050802, 1.5030365318307304, 1.523093254538253, 1.536236961503164, 1.5560172045370564, 1.56984460134845, 1.5891169409951544, 1.6030651696637506, 1.6223962185686105, 1.6366219509072835, 1.6534517121326644, 1.669721346028382, 1.6891957547632046, 1.7032313646632247, 1.7209540528274374, 1.7365106422439567, 1.7534165207107435, 1.7700602554905345, 1.7869360966651584, 1.8033606957105803, 1.8200849850618397, 1.836539962736424, 1.8533970306016272, 1.8698922855619458, 1.8867179507942637, 1.9032063790946268, 1.9201457081944682, 1.9364914593315916, 1.9533454551929026, 1.9699680273406557, 1.986883121797291, 2.003024755846127, 2.020092084785574, 2.036497227854852, 2.053394914335513, 2.0698318013673997, 2.0867376798341866, 2.103352742655261, 2.12015178391448, 2.1363429112388985, 2.153304085644777, 2.1698211859111325, 2.1866840564325685, 2.203012058263994, 2.2200189712748397, 2.2363715490719187, 2.2535160192564945, 2.269634442665847, 2.286760139541002, 2.302942050875572, 2.319821988043259, 2.3368589383608196, 2.3529729244401096, 2.3701286586147035, 2.386255956676905, 2.4034062295249896, 2.4198615485292976, 2.4368019016255857, 2.4532411779873655]
20	inanimate/n54.jpg	inanimate	animate	left	1.409	[0.0, 0.0, 0.0, 0.0, 0.0, 0.0, 0.0, 0.0, 0.0, -1.0, -1.0, -1.0, -2.0, -4.0, -4.0, -5.0, -7.0, -7.0, -7.0, -7.0, -7.0, -7.0, -7.0, -7.0, -7.0, -7.0, -7.0, -7.0, -7.0, -7.0, -6.0, -5.0, -6.0, -9.0, -12.0, -21.0, -52.0, -78.0, -107.0, -148.0, -184.0, -212.0, -235.0, -263.0, -301.0, -346.0, -383.0, -406.0, -410.0, -413.0, -410.0, -383.0, -333.0, -274.0, -221.0, -194.0, -182.0, -179.0, -179.0, -189.0, -213.0, -241.0, -270.0, -307.0, -359.0, -416.0, -476.0, -541.0, -623.0, -636.0, -649.0, -650.0, -651.0, -653.0, -659.0, -669.0, -688.0, -707.0, -718.0, -723.0, -723.0, -723.0, -723.0, -723.0, -723.0]	[-490.0, -490.0, -490.0, -490.0, -491.0, -491.0, -491.0, -488.0, -485.0, -480.0, -477.0, -475.0, -472.0, -470.0, -469.0, -467.0, -465.0, -465.0, -465.0, -465.0, -465.0, -465.0, -465.0, -465.0, -465.0, -465.0, -465.0, -465.0, -465.0, -464.0, -457.0, -441.0, -432.0, -423.0, -411.0, -387.0, -331.0, -284.0, -233.0, -171.0, -114.0, -59.0, -3.0, 62.0, 126.0, 189.0, 243.0, 300.0, 331.0, 355.0, 376.0, 404.0, 443.0, 483.0, 522.0, 540.0, 540.0, 540.0, 540.0, 540.0, 540.0, 540.0, 540.0, 540.0, 540.0, 540.0, 540.0, 540.0, 540.0, 540.0, 540.0, 540.0, 540.0, 540.0, 540.0, 538.0, 533.0, 524.0, 520.0, 518.0, 518.0, 518.0, 518.0, 518.0, 518.0]	[0.0104200067507918, 0.015617824537912384, 0.021018394087150227, 0.03580015776242362, 0.05510014537139796, 0.06929515774390893, 0.08804491667979164, 0.10259662196040154, 0.120190968940733, 0.1361581818709965, 0.15243737308628624, 0.16911592382530216, 0.18767931498587132, 0.202444694674341, 0.21956356488954043, 0.23588235073111719, 0.2551703916906263, 0.26911930302594556, 0.2883960799954366, 0.30245490053493995, 0.321845682701678, 0.33566386352322297, 0.35496453379892046, 0.3691800261512981, 0.3870706501111272, 0.40220740002405364, 0.41938156617834466, 0.4357672532714787, 0.4527106783571071, 0.4692021786540863, 0.48605276119633345, 0.5024459576088702, 0.5193706093923538, 0.5357856511109276, 0.5527140575577505, 0.5691287579466007, 0.5859366738659446, 0.6024773261015071, 0.6192582767253043, 0.6356019798622583, 0.6526648714789189, 0.6692140570448828, 0.6861878607669496, 0.7022980921829003, 0.7192930585515569, 0.7356497323416988, 0.7527262772709946, 0.7690488177759107, 0.7860195495013613, 0.802263242090703, 0.8194203415987431, 0.8355414956677123, 0.8526712885432062, 0.8688596852007322, 0.8859952807324589, 0.9022034746958525, 0.9192772889655316, 0.9355472641982487, 0.9527473716516397, 0.9689948189043207, 0.985914009361295, 1.0025021068722708, 1.0193885293701896, 1.0359322536023683, 1.0527452895184979, 1.0695767574070487, 1.0860901030173409, 1.1049275845143711, 1.1192243140976643, 1.1382597686897498, 1.1526083808785188, 1.1703081997329718, 1.1859234984149225, 1.202611265143787, 1.2191526000533486, 1.2360083025778295, 1.2527472692527226, 1.2688595486688428, 1.2858285737311235, 1.302474356511084, 1.3189665394747863, 1.336621302383719, 1.3523243236195412, 1.369646628263581, 1.3858002089618822]
21	inanimate/n49.jpg	inanimate	animate	left	1.368	[0.0, 0.0, 0.0, 0.0, 0.0, 0.0, 0.0, 0.0, 1.0, 1.0, 1.0, 1.0, 1.0, 1.0, 1.0, 1.0, 1.0, 0.0, -4.0, -12.0, -33.0, -47.0, -57.0, -78.0, -96.0, -116.0, -140.0, -159.0, -175.0, -186.0, -194.0, -205.0, -214.0, -225.0, -234.0, -246.0, -251.0, -255.0, -257.0, -257.0, -257.0, -257.0, -257.0, -257.0, -257.0, -257.0, -257.0, -257.0, -257.0, -257.0, -257.0, -257.0, -257.0, -259.0, -270.0, -290.0, -321.0, -352.0, -385.0, -436.0, -465.0, -494.0, -515.0, -528.0, -532.0, -532.0, -536.0, -549.0, -572.0, -598.0, -628.0, -648.0, -665.0, -683.0, -699.0, -708.0, -713.0, -713.0, -713.0, -713.0, -713.0, -713.0]	[-490.0, -490.0, -490.0, -490.0, -490.0, -490.0, -490.0, -490.0, -490.0, -487.0, -485.0, -477.0, -469.0, -459.0, -451.0, -440.0, -427.0, -407.0, -379.0, -341.0, -291.0, -239.0, -196.0, -123.0, -80.0, -36.0, 13.0, 56.0, 89.0, 113.0, 134.0, 158.0, 177.0, 193.0, 209.0, 226.0, 231.0, 236.0, 237.0, 238.0, 238.0, 238.0, 238.0, 238.0, 238.0, 238.0, 238.0, 238.0, 238.0, 238.0, 238.0, 238.0, 238.0, 239.0, 242.0, 245.0, 250.0, 254.0, 259.0, 266.0, 272.0, 278.0, 285.0, 289.0, 292.0, 292.0, 296.0, 307.0, 324.0, 338.0, 356.0, 363.0, 371.0, 378.0, 387.0, 392.0, 395.0, 395.0, 395.0, 395.0, 395.0, 395.0]	[0.0014396057449630462, 0.006092656185501255, 0.01791642872558441, 0.034408953026286326, 0.051292303520313, 0.06799816089915112, 0.08428383744467283, 0.10099856947635999, 0.12051257283019368, 0.13428535637649475, 0.1535464320331812, 0.1675799939330318, 0.18751827411324484, 0.20098931935353903, 0.21916154297650792, 0.23415595706319436, 0.25390206680458505, 0.2676222850786871, 0.28481522454239894, 0.3008998559889733, 0.3184573390171863, 0.3344392292565317, 0.3514567235906725, 0.3675768536704709, 0.3848377183821867, 0.400865005896776, 0.4185126008160296, 0.4345542243172531, 0.4513406362675596, 0.4677863979522954, 0.48462332716735546, 0.5012025500327582, 0.518287969614903, 0.5344275556708453, 0.5519550013996195, 0.5677457451965893, 0.5852697775990237, 0.6008663029642776, 0.6180984957100009, 0.6344227428780869, 0.6514146372428513, 0.6677491243972327, 0.6847819787144545, 0.7008857248074492, 0.7179455444274936, 0.7345701645681402, 0.7513398512019194, 0.767771959566744, 0.7846863713639323, 0.8011017544195056, 0.8181124220936908, 0.8345598904488725, 0.8513012464463827, 0.8678234667095239, 0.8846474252713961, 0.9012508827727288, 0.9178795989064383, 0.9344878350675572, 0.9513660655647982, 0.9675940568486112, 0.9846962017472833, 1.0008787957485765, 1.0182226043616538, 1.0342058599344455, 1.0513817327519064, 1.0675182468039566, 1.0846794423050596, 1.1008746656225412, 1.1180481491028331, 1.134220503117831, 1.151304898710805, 1.1675714606099064, 1.1845725709645194, 1.201179441792192, 1.2180180776776979, 1.234348810161464, 1.2510017609383794, 1.2680742098746123, 1.284480376940337, 1.3015384898972115, 1.3177927638098481, 1.334828690123686]
22	inanimate/n38.jpg	animate	inanimate	right	2.154	[0.0, 1.0, 1.0, 1.0, 1.0, 1.0, 1.0, 1.0, 1.0, 1.0, 1.0, -1.0, -2.0, -3.0, -4.0, -4.0, -4.0, -5.0, -5.0, -7.0, -7.0, -9.0, -9.0, -9.0, -9.0, -9.0, -9.0, -9.0, -9.0, -9.0, -9.0, -9.0, -9.0, -9.0, -9.0, -9.0, -10.0, -11.0, -15.0, -16.0, -19.0, -20.0, -21.0, -22.0, -23.0, -24.0, -24.0, -24.0, -24.0, -26.0, -26.0, -26.0, -32.0, -47.0, -71.0, -93.0, -108.0, -120.0, -142.0, -186.0, -223.0, -262.0, -302.0, -352.0, -379.0, -401.0, -431.0, -481.0, -551.0, -599.0, -611.0, -619.0, -631.0, -644.0, -647.0, -650.0, -652.0, -660.0, -667.0, -674.0, -678.0, -679.0, -679.0, -679.0, -679.0, -679.0, -680.0, -680.0, -677.0, -675.0, -673.0, -673.0, -664.0, -628.0, -549.0, -468.0, -376.0, -277.0, -158.0, 48.0, 189.0, 317.0, 412.0, 488.0, 575.0, 648.0, 692.0, 721.0, 741.0, 759.0, 778.0, 816.0, 843.0, 865.0, 876.0, 879.0, 879.0, 879.0, 879.0, 879.0, 879.0, 879.0, 879.0, 879.0, 879.0, 879.0, 879.0, 879.0, 879.0]	[-490.0, -490.0, -490.0, -490.0, -490.0, -490.0, -490.0, -490.0, -490.0, -490.0, -488.0, -483.0, -479.0, -474.0, -466.0, -464.0, -457.0, -451.0, -444.0, -435.0, -427.0, -418.0, -409.0, -402.0, -391.0, -380.0, -359.0, -348.0, -329.0, -314.0, -301.0, -289.0, -277.0, -263.0, -251.0, -237.0, -223.0, -209.0, -191.0, -180.0, -167.0, -159.0, -150.0, -144.0, -138.0, -133.0, -129.0, -125.0, -123.0, -120.0, -119.0, -114.0, -104.0, -92.0, -80.0, -70.0, -57.0, -39.0, -20.0, 10.0, 31.0, 50.0, 67.0, 88.0, 100.0, 111.0, 126.0, 164.0, 225.0, 272.0, 283.0, 286.0, 291.0, 301.0, 303.0, 305.0, 309.0, 316.0, 322.0, 329.0, 331.0, 332.0, 332.0, 332.0, 332.0, 332.0, 336.0, 340.0, 344.0, 345.0, 346.0, 346.0, 347.0, 347.0, 349.0, 349.0, 349.0, 355.0, 356.0, 356.0, 367.0, 385.0, 399.0, 411.0, 422.0, 422.0, 422.0, 423.0, 426.0, 426.0, 426.0, 426.0, 426.0, 429.0, 430.0, 431.0, 431.0, 431.0, 431.0, 431.0, 431.0, 431.0, 431.0, 431.0, 431.0, 431.0, 431.0, 431.0, 431.0]	[0.009903570040478371, 0.01951687055407092, 0.03510929992626188, 0.051834613281243946, 0.06823327102028998, 0.08516577346017584, 0.10148421796475304, 0.1184846456599189, 0.134758716878423, 0.1517697258896078, 0.16821207424800377, 0.18510088607581565, 0.20154425843065837, 0.2183958649620763, 0.23491774388821796, 0.25177583574986784, 0.26824071208102396, 0.2848305162624456, 0.3015742615898489, 0.3184350841183914, 0.33506789624516387, 0.35174371632456314, 0.36821849130501505, 0.38507487650349503, 0.4013615770454635, 0.41836712473013904, 0.43471833719377173, 0.4517109142325353, 0.46794334283913486, 0.48501818110526074, 0.5013652975758305, 0.5184152185393032, 0.5346019085336593, 0.5517573013712536, 0.5679470633622259, 0.5850754909042735, 0.6012918768610689, 0.6185117816276033, 0.6346322530298494, 0.6517487339151558, 0.6679774078656919, 0.6852311045804527, 0.7017280662112171, 0.7183107023956836, 0.7347103841384524, 0.7517896597346407, 0.7682477094058413, 0.7849870174104581, 0.8036029738359503, 0.8182966736130766, 0.8374082454465679, 0.8516926870506722, 0.8708496561666834, 0.8850791431686957, 0.9028909192202264, 0.9183761700551258, 0.9351195740528055, 0.9515554370809696, 0.9684206969322986, 0.9850231304299086, 1.0012787696759915, 1.0180139816875453, 1.0379683045102865, 1.0515366296385764, 1.0709676890910487, 1.0846500194093096, 1.1048262086405884, 1.1179924435782596, 1.1376361534421449, 1.1515444461620064, 1.1683602127377526, 1.1848674143548124, 1.2043056417969638, 1.2181644412412425, 1.2350279944294016, 1.2515580653416691, 1.2684926157817245, 1.2849912840683828, 1.3028102281168685, 1.3179043114141678, 1.3354976343980525, 1.3515136579298996, 1.3682806139040622, 1.3848728074153769, 1.4022435813240008, 1.418340500764316, 1.435164459333464, 1.4514938264910597, 1.4683809316484258, 1.4848219146733754, 1.5018397503445158, 1.5179274537877063, 1.5351183452512487, 1.5515422616299475, 1.5683938681686413, 1.5848338271898683, 1.6016304791264702, 1.618170790032309, 1.6349005407100776, 1.6514999022110715, 1.6683381967668538, 1.6849054729755153, 1.7017601515035494, 1.7180058920930605, 1.7349803784818505, 1.7515674520036555, 1.7684716238072724, 1.7847624203423038, 1.8017225707517355, 1.8179410047087003, 1.8351295068350737, 1.8512322289316216, 1.8684313123885659, 1.8846449676857446, 1.9014255769725423, 1.9184939299157122, 1.9348441183828982, 1.9519046206623898, 1.9681739132283838, 1.985142596953665, 2.0012651163633564, 2.01826076539146, 2.034859444225731, 2.0518189119684394, 2.0679424553745775, 2.085045965606696, 2.1014767086453503, 2.118540282921458, 2.134876135409286]
23	animate/a63.jpg	animate	inanimate	left	1.265	[0.0, 0.0, 0.0, 0.0, 0.0, 0.0, 0.0, 0.0, 0.0, 0.0, -2.0, -3.0, -4.0, -6.0, -7.0, -8.0, -13.0, -18.0, -26.0, -40.0, -60.0, -78.0, -111.0, -124.0, -161.0, -187.0, -208.0, -226.0, -243.0, -256.0, -271.0, -286.0, -306.0, -325.0, -352.0, -377.0, -412.0, -442.0, -461.0, -477.0, -495.0, -527.0, -584.0, -605.0, -639.0, -645.0, -667.0, -676.0, -711.0, -728.0, -738.0, -741.0, -744.0, -746.0, -747.0, -747.0, -747.0, -747.0, -747.0, -747.0, -747.0, -747.0, -747.0, -747.0, -747.0, -747.0, -747.0, -747.0, -748.0, -751.0, -751.0, -752.0, -752.0, -752.0, -752.0, -752.0]	[-490.0, -490.0, -490.0, -490.0, -490.0, -490.0, -490.0, -490.0, -490.0, -490.0, -489.0, -482.0, -476.0, -465.0, -454.0, -435.0, -410.0, -380.0, -344.0, -305.0, -259.0, -221.0, -171.0, -152.0, -100.0, -63.0, -33.0, -8.0, 14.0, 32.0, 47.0, 60.0, 74.0, 89.0, 113.0, 130.0, 154.0, 174.0, 186.0, 196.0, 210.0, 228.0, 266.0, 276.0, 301.0, 306.0, 326.0, 332.0, 355.0, 366.0, 373.0, 377.0, 380.0, 383.0, 385.0, 385.0, 385.0, 385.0, 385.0, 385.0, 385.0, 385.0, 385.0, 385.0, 385.0, 385.0, 385.0, 385.0, 385.0, 387.0, 387.0, 388.0, 388.0, 388.0, 388.0, 388.0]	[0.0023765646255924366, 0.007806488807545975, 0.01940907761309063, 0.0365368224811391, 0.052966882853070274, 0.06988812131021405, 0.08632398433837807, 0.10328857207059627, 0.11960462724528043, 0.13657262831111439, 0.15292111010785447, 0.16984917521767784, 0.1863038115625386, 0.20318443139694864, 0.21954281185026048, 0.2364483489873237, 0.25292483063822147, 0.2698614290711703, 0.2862594041507691, 0.3032082905701827, 0.31960558297578245, 0.33658416535763536, 0.35292547917197226, 0.36987641358427936, 0.38629691663663834, 0.4032096217633807, 0.41966664743813453, 0.4367053044188651, 0.45270528530090814, 0.47016753644129494, 0.4862409039051272, 0.5034236033752677, 0.5194867308528046, 0.5366810356426868, 0.5529561308649136, 0.5700391611244413, 0.5862760270611034, 0.603413329256, 0.6196379072061973, 0.6396052006821265, 0.6529250354360556, 0.6732353685074486, 0.6862551716185408, 0.7035334443135071, 0.7194579906208673, 0.7367191966623068, 0.7527888094700756, 0.7701022394539905, 0.7861315749687492, 0.8058585700637195, 0.8194497644944931, 0.8390852823722525, 0.8529048285272438, 0.8723969865750405, 0.886281044658972, 0.9057271227575256, 0.9197149460451328, 0.9372932503829361, 0.9529266397003084, 0.9706725385040045, 0.986308999825269, 1.0032339929384761, 1.0195677974261343, 1.036533750484523, 1.0529279709007824, 1.069839652031078, 1.0862792697225814, 1.1030766043259064, 1.1196513898539706, 1.136522111031809, 1.152969238049991, 1.1697539433371276, 1.1863007395659224, 1.2031451781076612, 1.219604593112308, 1.2365760075044818]
24	animate/a1.jpg	animate	inanimate	left	1.203	[0.0, 0.0, 0.0, 0.0, 0.0, 0.0, 0.0, 0.0, 0.0, 0.0, 0.0, 0.0, -1.0, -2.0, -6.0, -16.0, -42.0, -100.0, -183.0, -271.0, -375.0, -516.0, -590.0, -646.0, -688.0, -714.0, -725.0, -727.0, -729.0, -729.0, -729.0, -729.0, -729.0, -723.0, -716.0, -701.0, -688.0, -679.0, -671.0, -666.0, -663.0, -661.0, -660.0, -660.0, -660.0, -667.0, -673.0, -678.0, -680.0, -683.0, -693.0, -708.0, -724.0, -734.0, -742.0, -747.0, -756.0, -762.0, -763.0, -767.0, -768.0, -768.0, -768.0, -768.0, -768.0, -768.0, -768.0, -768.0, -768.0, -768.0, -768.0, -768.0]	[-490.0, -489.0, -489.0, -489.0, -489.0, -489.0, -489.0, -489.0, -489.0, -489.0, -489.0, -489.0, -488.0, -487.0, -484.0, -470.0, -444.0, -402.0, -356.0, -321.0, -281.0, -239.0, -217.0, -192.0, -172.0, -153.0, -142.0, -134.0, -121.0, -117.0, -108.0, -95.0, -75.0, -57.0, -43.0, -24.0, -7.0, 9.0, 22.0, 34.0, 42.0, 47.0, 51.0, 57.0, 67.0, 82.0, 97.0, 114.0, 128.0, 142.0, 162.0, 188.0, 215.0, 239.0, 257.0, 273.0, 302.0, 326.0, 346.0, 362.0, 371.0, 373.0, 374.0, 374.0, 374.0, 374.0, 374.0, 374.0, 374.0, 374.0, 374.0, 374.0]	[0.005372102379624266, 0.010108438051247504, 0.026006701729784254, 0.042278724955394864, 0.059271984653605614, 0.07554946920572547, 0.09275776864524232, 0.1089990719119669, 0.12614047009992646, 0.14222373622033047, 0.15945456363260746, 0.17570337621873477, 0.19270107324700803, 0.2088761579216225, 0.22601789744658163, 0.24222028875374235, 0.2593988922308199, 0.2755282383004669, 0.2926846551345079, 0.30887612378865015, 0.32600898865348427, 0.34220250530779595, 0.3593794021217036, 0.37581936115020653, 0.3927132929675281, 0.40890442029194674, 0.4261048690750613, 0.44227995374967577, 0.4592605841316981, 0.47556196199002443, 0.4926767362121609, 0.5091067965840921, 0.526013357717602, 0.5450122896872927, 0.5594243898012792, 0.5782017967067077, 0.5925688408751739, 0.6114387489942601, 0.6259232116935891, 0.6435441826397437, 0.6592809958383441, 0.6764674499790999, 0.6926892972624046, 0.7095344184708665, 0.7259979294685763, 0.7423307099597878, 0.7590870846033795, 0.7785362347058253, 0.7922748849596246, 0.8104198019500473, 0.8258309835364344, 0.8448742887849221, 0.8591645330452593, 0.8762448326451704, 0.8924694105953677, 0.9101159815108986, 0.9257947681107908, 0.942693819924898, 0.9591382162761874, 0.9759887988111586, 0.99223112607433, 1.0093612602795474, 1.0255506809407962, 1.0427067564451136, 1.0591538834632956, 1.0760723912462709, 1.0925191769347293, 1.10935235148645, 1.1258827637429931, 1.1426394797235844, 1.1591821799593163, 1.1763481541202054]
25	inanimate/n27.jpg	inanimate	animate	left	1.604	[0.0, 0.0, 0.0, 0.0, 0.0, 0.0, 0.0, 0.0, 0.0, 0.0, 0.0, 0.0, 0.0, 0.0, 0.0, 0.0, 0.0, 0.0, 0.0, -2.0, -4.0, -9.0, -17.0, -28.0, -40.0, -51.0, -61.0, -68.0, -81.0, -95.0, -102.0, -109.0, -114.0, -117.0, -123.0, -128.0, -133.0, -138.0, -146.0, -151.0, -160.0, -186.0, -201.0, -214.0, -221.0, -228.0, -237.0, -251.0, -274.0, -317.0, -404.0, -437.0, -522.0, -551.0, -647.0, -696.0, -717.0, -725.0, -725.0, -725.0, -725.0, -725.0, -725.0, -725.0, -725.0, -725.0, -725.0, -725.0, -727.0, -732.0, -736.0, -737.0, -740.0, -742.0, -745.0, -746.0, -747.0, -748.0, -748.0, -748.0, -748.0, -748.0, -748.0, -748.0, -748.0, -748.0, -748.0, -748.0, -748.0, -748.0, -748.0, -748.0, -748.0, -748.0, -748.0, -748.0]	[-490.0, -490.0, -490.0, -490.0, -490.0, -490.0, -490.0, -490.0, -490.0, -490.0, -490.0, -490.0, -486.0, -482.0, -477.0, -471.0, -459.0, -434.0, -414.0, -389.0, -364.0, -334.0, -279.0, -195.0, -111.0, -37.0, 20.0, 62.0, 103.0, 160.0, 183.0, 200.0, 209.0, 216.0, 223.0, 230.0, 238.0, 245.0, 253.0, 259.0, 267.0, 286.0, 293.0, 299.0, 302.0, 303.0, 306.0, 310.0, 317.0, 329.0, 337.0, 337.0, 337.0, 337.0, 337.0, 337.0, 336.0, 336.0, 336.0, 336.0, 336.0, 336.0, 336.0, 336.0, 336.0, 336.0, 336.0, 336.0, 336.0, 341.0, 347.0, 351.0, 356.0, 360.0, 366.0, 371.0, 374.0, 375.0, 375.0, 375.0, 375.0, 375.0, 375.0, 375.0, 375.0, 375.0, 375.0, 375.0, 375.0, 375.0, 375.0, 375.0, 375.0, 375.0, 375.0, 375.0]	[0.0002787324629025534, 0.00547484358685324, 0.015625743464624975, 0.03273164302663645, 0.04898728227271931, 0.06572522494388977, 0.08245463429193478, 0.09942570734710898, 0.11563526665122481, 0.1324192892643623, 0.14936885835049907, 0.165824177362083, 0.18270411452976987, 0.19911130559194135, 0.21596666678669862, 0.23242812979151495, 0.2492032777518034, 0.26578284193965374, 0.2826238671550527, 0.29933484452340053, 0.31605333121842705, 0.33231750378763536, 0.3493247581354808, 0.3655704987322679, 0.38251631314778933, 0.39883032032958, 0.41597137718054, 0.43215294718538644, 0.44932335866906215, 0.4654922993577202, 0.48263881753518945, 0.49885793415887747, 0.5161054868876818, 0.5321966036644881, 0.5492970418999903, 0.5654967025475344, 0.5825694928207668, 0.5988541453625658, 0.615981207571167, 0.6322190975042759, 0.649308271757036, 0.6654976924182847, 0.6826728825617465, 0.6988493325698073, 0.7157203950846451, 0.7327413027451257, 0.7490836405559094, 0.7661079615500057, 0.7824369873778778, 0.7997514413582394, 0.815515561196662, 0.8328511778163374, 0.8490873610862764, 0.8662215912845568, 0.8824717692041304, 0.8996356953648501, 0.9157981507232762, 0.9355876097470173, 0.9488804791981238, 0.9689440285656019, 0.9824150738058961, 1.0024830604961608, 1.0157199513487285, 1.0353988185088383, 1.0491070901334751, 1.0684787576537929, 1.0824225489996024, 1.1000124586498714, 1.1158223170932615, 1.1337139650568133, 1.1491609865988721, 1.165961734528537, 1.1824382161794347, 1.1992109748025541, 1.215780299011385, 1.2325182416825555, 1.248907683431753, 1.266191076123505, 1.2821422463966883, 1.2993802418059204, 1.3158714007659, 1.332677610022074, 1.3489837665474624, 1.36600057821488, 1.3824432679029997, 1.3992999944312032, 1.4157856920719496, 1.4327045411919244, 1.449164980193018, 1.4659899627586128, 1.4822875859608757, 1.4993081522916327, 1.5156016794935567, 1.532627707150823, 1.5488464824447874, 1.565939411353611]
26	inanimate/n65.jpg	animate	inanimate	right	1.462	[0.0, 1.0, 1.0, 1.0, 1.0, 1.0, 1.0, 1.0, 1.0, 1.0, 1.0, 1.0, 1.0, 3.0, 4.0, 8.0, 15.0, 27.0, 31.0, 38.0, 45.0, 53.0, 54.0, 54.0, 51.0, 45.0, 38.0, 34.0, 30.0, 25.0, 15.0, 7.0, -59.0, -123.0, -201.0, -280.0, -357.0, -439.0, -518.0, -601.0, -676.0, -749.0, -807.0, -814.0, -826.0, -826.0, -826.0, -826.0, -826.0, -826.0, -826.0, -826.0, -815.0, -736.0, -623.0, -493.0, -323.0, -192.0, -49.0, 92.0, 235.0, 360.0, 459.0, 527.0, 568.0, 589.0, 595.0, 596.0, 598.0, 601.0, 605.0, 616.0, 637.0, 657.0, 677.0, 692.0, 699.0, 704.0, 706.0, 707.0, 713.0, 719.0, 723.0, 723.0, 723.0, 723.0, 723.0, 723.0]	[-490.0, -490.0, -490.0, -490.0, -490.0, -490.0, -490.0, -490.0, -490.0, -490.0, -490.0, -490.0, -490.0, -488.0, -479.0, -464.0, -436.0, -388.0, -306.0, -228.0, -178.0, -126.0, -103.0, -85.0, -64.0, -45.0, -28.0, -12.0, 6.0, 22.0, 41.0, 52.0, 127.0, 195.0, 262.0, 322.0, 363.0, 407.0, 442.0, 476.0, 510.0, 540.0, 540.0, 540.0, 540.0, 540.0, 540.0, 540.0, 540.0, 540.0, 540.0, 540.0, 535.0, 509.0, 481.0, 464.0, 464.0, 493.0, 533.0, 540.0, 540.0, 540.0, 540.0, 540.0, 540.0, 540.0, 540.0, 540.0, 540.0, 539.0, 536.0, 528.0, 519.0, 512.0, 504.0, 499.0, 497.0, 496.0, 495.0, 495.0, 493.0, 491.0, 490.0, 490.0, 490.0, 490.0, 490.0, 490.0]	[0.0012180806734249927, 0.006884207235998474, 0.01754369316768134, 0.03398023886256851, 0.05103391448938055, 0.06737693496688735, 0.08432786938647041, 0.10063061257096706, 0.11752488572528819, 0.13388838617538568, 0.15108439763571369, 0.1673352582147345, 0.18442238447460113, 0.20054217321012402, 0.2176999553848873, 0.23390985601872671, 0.25100858759105904, 0.2673027974597062, 0.28443088365747826, 0.30059641101252055, 0.317726545217738, 0.3339077738855849, 0.3511365533049684, 0.36739526454766747, 0.38442470553854946, 0.4006584994713194, 0.41760636189428624, 0.43405314757546876, 0.4509119221038418, 0.46734334780921927, 0.4842857488984009, 0.500761206552852, 0.5176056450945907, 0.5340804200823186, 0.5511040584096918, 0.5675784920604201, 0.5844242959356052, 0.603500710480148, 0.6175940056418767, 0.6363874551898334, 0.6509319924807642, 0.6699749563995283, 0.6842689553232049, 0.7013523269124562, 0.7177953579375753, 0.733997749244736, 0.7509087477083085, 0.770586249534972, 0.7841866599555942, 0.8024251021633972, 0.817523622790759, 0.8355917398730526, 0.8508670709561557, 0.8680381651138305, 0.8840965139243053, 0.9023083321735612, 0.9174969646919635, 0.9348216586586204, 0.9508397301906371, 0.9680821629226557, 0.983879733386857, 1.0011853127143695, 1.01748498390225, 1.0343137211311841, 1.050793274778698, 1.067600508031319, 1.0841602749205776, 1.1010057374587632, 1.117589738983952, 1.1343949242364033, 1.150608579533582, 1.167981742779375, 1.1839366677158978, 1.201015260645363, 1.2173360944871092, 1.2342778129095677, 1.2508341664652107, 1.267566647809872, 1.2841352893447038, 1.3008971253220807, 1.3175780653909897, 1.334532754473912, 1.3508310603356222, 1.3676758402143605, 1.3841820178276976, 1.4011053042704589, 1.4174940633602091, 1.4343579578780918]
27	inanimate/n40.jpg	inanimate	animate	left	2.335	[0.0, 0.0, 0.0, 0.0, 0.0, 0.0, 0.0, 0.0, 0.0, 0.0, 0.0, 0.0, 0.0, 0.0, -5.0, -15.0, -26.0, -36.0, -48.0, -70.0, -93.0, -118.0, -172.0, -203.0, -231.0, -254.0, -274.0, -297.0, -325.0, -348.0, -374.0, -398.0, -422.0, -444.0, -463.0, -482.0, -489.0, -495.0, -505.0, -523.0, -553.0, -583.0, -590.0, -611.0, -619.0, -645.0, -653.0, -663.0, -666.0, -671.0, -679.0, -689.0, -697.0, -706.0, -707.0, -710.0, -711.0, -720.0, -726.0, -733.0, -737.0, -738.0, -740.0, -740.0, -740.0, -740.0, -740.0, -740.0, -740.0, -740.0, -740.0, -740.0, -740.0, -740.0, -740.0, -740.0, -740.0, -740.0, -740.0, -740.0, -740.0, -740.0, -740.0, -740.0, -740.0, -740.0, -740.0, -740.0, -740.0, -740.0, -740.0, -740.0, -740.0, -740.0, -740.0, -740.0, -740.0, -740.0, -740.0, -740.0, -740.0, -740.0, -740.0, -740.0, -740.0, -740.0, -740.0, -740.0, -740.0, -740.0, -740.0, -740.0, -740.0, -740.0, -740.0, -740.0, -741.0, -743.0, -746.0, -748.0, -750.0, -751.0, -753.0, -753.0, -754.0, -755.0, -755.0, -756.0, -756.0, -757.0, -757.0, -757.0, -757.0, -757.0, -757.0, -757.0, -757.0, -757.0, -757.0, -757.0]	[-490.0, -490.0, -490.0, -490.0, -490.0, -490.0, -490.0, -490.0, -490.0, -490.0, -490.0, -490.0, -490.0, -484.0, -467.0, -443.0, -415.0, -386.0, -350.0, -301.0, -247.0, -198.0, -119.0, -77.0, -44.0, -23.0, -11.0, 8.0, 33.0, 51.0, 73.0, 86.0, 100.0, 109.0, 118.0, 127.0, 132.0, 140.0, 155.0, 174.0, 198.0, 221.0, 227.0, 243.0, 247.0, 262.0, 266.0, 276.0, 281.0, 290.0, 301.0, 316.0, 329.0, 341.0, 342.0, 346.0, 348.0, 359.0, 370.0, 378.0, 384.0, 387.0, 388.0, 388.0, 388.0, 388.0, 388.0, 388.0, 388.0, 388.0, 388.0, 388.0, 388.0, 388.0, 388.0, 388.0, 388.0, 388.0, 388.0, 388.0, 388.0, 388.0, 388.0, 388.0, 388.0, 388.0, 388.0, 388.0, 388.0, 388.0, 388.0, 388.0, 388.0, 388.0, 388.0, 388.0, 388.0, 388.0, 388.0, 388.0, 388.0, 388.0, 388.0, 388.0, 388.0, 388.0, 388.0, 388.0, 388.0, 388.0, 388.0, 388.0, 388.0, 388.0, 388.0, 388.0, 389.0, 390.0, 394.0, 397.0, 400.0, 404.0, 405.0, 407.0, 407.0, 408.0, 410.0, 410.0, 410.0, 411.0, 411.0, 411.0, 411.0, 411.0, 411.0, 411.0, 411.0, 411.0, 411.0, 411.0]	[0.01593246522679692, 0.020799531412194483, 0.030001867082319222, 0.0471087906480534, 0.06346170977485599, 0.08034881493949797, 0.09687444852897897, 0.11368748444510857, 0.13018581140204333, 0.1470893005389371, 0.16347669429524103, 0.18040714873495745, 0.19687031840294367, 0.21383763679477852, 0.22994684421428246, 0.24708312241273234, 0.2635398067504866, 0.28030437338748015, 0.2965692286234116, 0.3136515762162162, 0.3299246234455495, 0.347039397667686, 0.36326909560739296, 0.38046374173427466, 0.3966487250654609, 0.41376998461055337, 0.42990957065921975, 0.44716804604104254, 0.46329602677724324, 0.4804282089753542, 0.4965906643337803, 0.5136692572632455, 0.5299347951659001, 0.5467956176871667, 0.5637929733857163, 0.5802728683629539, 0.5971350562176667, 0.6136272391813691, 0.6307519120528013, 0.6468959354388062, 0.6641073068749392, 0.6801905729953432, 0.6972817952409969, 0.7133971466537332, 0.7306358247296885, 0.7467102161899675, 0.7665119632001733, 0.78003762170556, 0.7999851178756217, 0.8133878965309123, 0.8336115310376044, 0.8466589821182424, 0.8664870117645478, 0.8799993582870229, 0.8996403374912916, 0.9135769608401461, 0.9311719904872007, 0.9468521424205392, 0.963797615513613, 0.9799740655216738, 0.99709225307015, 1.0132338871189859, 1.0302954134022002, 1.0468063696753234, 1.0636822108499473, 1.0801412845175946, 1.0970427256615949, 1.1135038473294117, 1.1304698003950762, 1.1466213331004838, 1.1637316699925577, 1.1801979116498842, 1.197099011456885, 1.2135492104716832, 1.2304489449525136, 1.2465711230252055, 1.263765086485364, 1.2799056965304771, 1.2970918093342334, 1.3132549473593826, 1.3303990762069589, 1.3466216061642626, 1.3637804123281967, 1.3799445743570686, 1.3970798285517958, 1.4132344332465436, 1.4304905192984734, 1.4467840465003974, 1.4638155354914488, 1.4799441988870967, 1.4970756984184845, 1.513531358759792, 1.5302785174208111, 1.546755681738432, 1.5636311815760564, 1.5800735299344524, 1.5970538189794752, 1.6157714926157496, 1.630266195301374, 1.6466808956902241, 1.663813077888335, 1.682736575283343, 1.6970954274656833, 1.7134712159022456, 1.7304375102976337, 1.7491937545564724, 1.763627699976496, 1.7829396342422115, 1.7969851427988033, 1.8143873193403124, 1.8304316735084285, 1.846821797924349, 1.8633453835209366, 1.8801372567904764, 1.8968059088729206, 1.9163311762167723, 1.930185879667988, 1.9495042992493836, 1.963478127894632, 1.9817111087759258, 1.996816456063243, 2.0142223872680916, 2.0298899098852417, 2.0470562253758544, 2.0634774110949365, 2.0802645057046902, 2.0968338299062452, 2.113705575087806, 2.130163624759007, 2.1470954445321695, 2.1635183369071456, 2.1803716501090094, 2.1966559613210848, 2.2136922289719223, 2.2300461720951716, 2.2470448931271676, 2.263454473519232, 2.280417695918004, 2.2968013350182446, 2.313654989549832]
28	animate/a25.jpg	animate	inanimate	left	1.469	[0.0, 0.0, 0.0, 0.0, 0.0, 0.0, 0.0, 0.0, 0.0, 0.0, 0.0, 0.0, 0.0, 0.0, -9.0, -16.0, -22.0, -36.0, -52.0, -77.0, -104.0, -127.0, -140.0, -150.0, -164.0, -180.0, -194.0, -209.0, -217.0, -225.0, -232.0, -242.0, -250.0, -258.0, -265.0, -272.0, -279.0, -291.0, -295.0, -304.0, -313.0, -323.0, -333.0, -341.0, -345.0, -345.0, -345.0, -345.0, -345.0, -346.0, -348.0, -348.0, -348.0, -336.0, -315.0, -297.0, -279.0, -250.0, -198.0, -122.0, -48.0, 6.0, 49.0, 70.0, 70.0, 70.0, 50.0, -15.0, -101.0, -196.0, -296.0, -388.0, -499.0, -526.0, -616.0, -655.0, -680.0, -695.0, -705.0, -716.0, -722.0, -723.0, -723.0, -723.0, -723.0, -724.0, -724.0, -724.0, -724.0]	[-490.0, -490.0, -490.0, -490.0, -490.0, -490.0, -490.0, -490.0, -490.0, -490.0, -490.0, -489.0, -483.0, -473.0, -448.0, -432.0, -414.0, -366.0, -304.0, -240.0, -188.0, -146.0, -125.0, -104.0, -81.0, -55.0, -32.0, -1.0, 18.0, 39.0, 61.0, 83.0, 100.0, 115.0, 131.0, 143.0, 155.0, 172.0, 176.0, 194.0, 209.0, 223.0, 236.0, 245.0, 251.0, 254.0, 255.0, 255.0, 256.0, 261.0, 267.0, 271.0, 276.0, 280.0, 290.0, 298.0, 306.0, 318.0, 334.0, 356.0, 381.0, 406.0, 425.0, 434.0, 434.0, 434.0, 433.0, 418.0, 407.0, 397.0, 397.0, 397.0, 397.0, 397.0, 397.0, 397.0, 397.0, 401.0, 405.0, 409.0, 410.0, 410.0, 410.0, 410.0, 410.0, 410.0, 410.0, 410.0, 410.0]	[0.0072657491837162524, 0.01217411665857071, 0.020226160369929858, 0.029359888125327416, 0.04595105764019536, 0.06316311174305156, 0.07934672974079149, 0.09639255471120123, 0.1126389779674355, 0.129799832131539, 0.14627392445254372, 0.16298319515772164, 0.1795200927372207, 0.19623994475841755, 0.21532762328570243, 0.22965473150543403, 0.24879053798213135, 0.26312891018460505, 0.2793695307773305, 0.29616959604027215, 0.3139776174357394, 0.3297673372362624, 0.3468230608632439, 0.36305822013673605, 0.37940670193347614, 0.39609685799950967, 0.4126016702794004, 0.42935258360375883, 0.4477480389541597, 0.4627663463470526, 0.4806815462798113, 0.4962022957406589, 0.5137768454078468, 0.5293272908311337, 0.5463823317913921, 0.5628386747921468, 0.579691646664287, 0.5962677975257975, 0.6131613880133955, 0.6296078323648544, 0.6464700202195672, 0.6628942779279896, 0.6797769457625691, 0.6962308994334307, 0.713104009948438, 0.7296405661909375, 0.7464559914369602, 0.7627061693565338, 0.7797813489523833, 0.7960035375726875, 0.813105341141636, 0.8292701858299552, 0.8464201173410402, 0.8627395858493401, 0.8797342108809971, 0.895930799531925, 0.9129960804712027, 0.9292725410268758, 0.9464067712251563, 0.9626873277738923, 0.9798017606663052, 0.9960079066368053, 1.0131493048247648, 1.0295558132274891, 1.0465009449835634, 1.062963090647827, 1.0796737266864511, 1.0960826244117925, 1.113121281392523, 1.1321372800084646, 1.1463575510206283, 1.1650608886775444, 1.1797723377676448, 1.1986716005194467, 1.2129492154635955, 1.2304039572773036, 1.246395404843497, 1.2628066918987315, 1.2795562398896436, 1.2960081455676118, 1.3127498429021216, 1.331990779915941, 1.3461605336560751, 1.3655373211731785, 1.379304984722694, 1.3975065629783785, 1.4128126140276436, 1.430459526280174, 1.4459430704446277]
29	animate/a41.jpg	inanimate	animate	right	1.349	[0.0, 0.0, 0.0, 0.0, 0.0, 0.0, 0.0, 0.0, 0.0, 0.0, 0.0, 0.0, 0.0, -9.0, -11.0, -24.0, -33.0, -49.0, -65.0, -78.0, -87.0, -100.0, -113.0, -121.0, -131.0, -144.0, -158.0, -182.0, -202.0, -224.0, -241.0, -255.0, -269.0, -286.0, -318.0, -363.0, -399.0, -428.0, -448.0, -500.0, -543.0, -578.0, -594.0, -599.0, -599.0, -598.0, -592.0, -591.0, -592.0, -592.0, -592.0, -584.0, -512.0, -404.0, -284.0, -170.0, -51.0, 68.0, 180.0, 272.0, 345.0, 397.0, 438.0, 516.0, 552.0, 568.0, 580.0, 596.0, 620.0, 645.0, 662.0, 676.0, 687.0, 706.0, 738.0, 747.0, 750.0, 750.0, 750.0, 750.0, 750.0]	[-490.0, -490.0, -490.0, -490.0, -490.0, -490.0, -490.0, -490.0, -490.0, -488.0, -483.0, -473.0, -466.0, -444.0, -434.0, -402.0, -377.0, -332.0, -265.0, -206.0, -153.0, -110.0, -71.0, -42.0, -15.0, 7.0, 29.0, 53.0, 67.0, 84.0, 101.0, 117.0, 133.0, 151.0, 172.0, 198.0, 223.0, 246.0, 261.0, 296.0, 323.0, 344.0, 356.0, 361.0, 362.0, 367.0, 371.0, 375.0, 380.0, 384.0, 387.0, 395.0, 405.0, 421.0, 439.0, 459.0, 475.0, 491.0, 497.0, 497.0, 497.0, 497.0, 497.0, 488.0, 483.0, 482.0, 480.0, 477.0, 475.0, 475.0, 475.0, 475.0, 476.0, 476.0, 476.0, 476.0, 476.0, 476.0, 476.0, 476.0, 476.0]	[0.004640284591005184, 0.010067136776342522, 0.027643393113976344, 0.04085024666710524, 0.06127356093929848, 0.07432169467938365, 0.0935486370435683, 0.10749072171893204, 0.127516383130569, 0.14102360966353444, 0.1604485251227743, 0.17439299912803108, 0.1937871946283849, 0.20770129000447923, 0.22540657018544152, 0.24103381551685743, 0.25788849404489156, 0.27442641562083736, 0.2912681235029595, 0.3074694908136735, 0.3245419397499063, 0.3408914455503691, 0.35796628382377094, 0.37422601906291675, 0.391192996125028, 0.4074974459799705, 0.42466239613713697, 0.4410590058832895, 0.458003113642917, 0.4743836807392654, 0.49144623102620244, 0.5074520145644783, 0.5246712366642896, 0.5410217664611991, 0.557969628884166, 0.5744003719228203, 0.5912349118079874, 0.6077499640814494, 0.6246582318781293, 0.6410254869915661, 0.6579146401491016, 0.674338897857524, 0.6913427388790296, 0.707497684910777, 0.7246834563848097, 0.7410578794879257, 0.7580019872475532, 0.7741961865613121, 0.7912467901915079, 0.8078099704071064, 0.8246404142992105, 0.8411076799602597, 0.8579316385294078, 0.8742494003672618, 0.8913023933273507, 0.9075262886108248, 0.9245990788840572, 0.9407871342118597, 0.9579370657229447, 0.9741319477107027, 0.9912497939221794, 1.0074685692161438, 1.024678233989107, 1.0408615106571233, 1.0579974475185736, 1.074156489543384, 1.0914811835173168, 1.107490721718932, 1.1246304132437217, 1.1409597804013174, 1.1579366561200004, 1.1744438577370602, 1.1911510804420686, 1.2103302361938404, 1.2245330992300296, 1.2422226780981873, 1.2579502753069391, 1.2747708205424715, 1.2911315903329523, 1.3074923601161572, 1.3242791133961873]
30	animate/a70.jpg	animate	inanimate	left	1.015	[0.0, 0.0, 0.0, 0.0, 0.0, 0.0, 0.0, 0.0, 0.0, 0.0, 0.0, 1.0, 2.0, 6.0, 7.0, 9.0, 9.0, 8.0, 4.0, -2.0, -7.0, -12.0, -16.0, -23.0, -44.0, -62.0, -84.0, -95.0, -107.0, -123.0, -136.0, -155.0, -186.0, -222.0, -265.0, -313.0, -358.0, -407.0, -478.0, -533.0, -571.0, -592.0, -601.0, -605.0, -606.0, -606.0, -606.0, -608.0, -625.0, -648.0, -671.0, -682.0, -691.0, -699.0, -701.0, -701.0, -701.0, -701.0, -701.0, -701.0, -701.0]	[-490.0, -490.0, -490.0, -490.0, -490.0, -490.0, -490.0, -490.0, -490.0, -490.0, -490.0, -489.0, -476.0, -454.0, -448.0, -425.0, -388.0, -309.0, -224.0, -164.0, -129.0, -100.0, -70.0, -38.0, -4.0, 19.0, 47.0, 65.0, 86.0, 112.0, 136.0, 165.0, 207.0, 257.0, 307.0, 355.0, 392.0, 425.0, 463.0, 482.0, 493.0, 500.0, 502.0, 503.0, 503.0, 503.0, 503.0, 503.0, 503.0, 497.0, 484.0, 477.0, 474.0, 473.0, 472.0, 472.0, 472.0, 472.0, 472.0, 472.0, 472.0]	[0.00019749523198697716, 0.005494982236996293, 0.015491599631786812, 0.03219745700334897, 0.04866028533433564, 0.06528115081164287, 0.08233687443862436, 0.09864064162684372, 0.11566871728427941, 0.1319827244587941, 0.1489995361334877, 0.1653862472230685, 0.182299635016534, 0.19872389272495639, 0.21556048061029287, 0.23201204495853744, 0.2489817526875413, 0.26553332757612225, 0.282241915614577, 0.29850233352772193, 0.3156498757089139, 0.33185909367603017, 0.3489892278739717, 0.365194349848025, 0.38238831330818357, 0.3985340433573583, 0.41553822570858756, 0.4318884141757735, 0.44911548692471115, 0.4652926195994951, 0.48233639656973537, 0.49873983297584346, 0.5157068100379547, 0.532064849161543, 0.5489656076388201, 0.5654431132861646, 0.582340458429826, 0.5987971427748562, 0.6157651438334142, 0.6343486736368504, 0.648918469560158, 0.6680911399889737, 0.682296392355056, 0.6998446593861445, 0.7156780698060174, 0.7321729834366124, 0.7487197796654073, 0.7652082079657703, 0.7820359211982577, 0.8018403988680802, 0.8154920092274551, 0.8337826753777335, 0.8488081507603056, 0.8656659012849559, 0.8820536363782594, 0.899639791365189, 0.9154701297884458, 0.9321995391364908, 0.948811529953673, 0.9656761071382789, 0.9821519061224535]
31	animate/a57.jpg	animate	inanimate	left	1.129	[0.0, 0.0, 0.0, 0.0, 0.0, 0.0, 0.0, 0.0, 0.0, 0.0, 0.0, 0.0, 0.0, -7.0, -53.0, -67.0, -123.0, -138.0, -185.0, -205.0, -249.0, -263.0, -269.0, -270.0, -270.0, -272.0, -275.0, -277.0, -279.0, -282.0, -284.0, -293.0, -309.0, -321.0, -324.0, -324.0, -325.0, -335.0, -359.0, -389.0, -413.0, -434.0, -456.0, -481.0, -521.0, -542.0, -561.0, -581.0, -626.0, -677.0, -722.0, -742.0, -753.0, -758.0, -761.0, -765.0, -766.0, -768.0, -770.0, -773.0, -776.0, -778.0, -781.0, -781.0, -782.0, -782.0, -782.0, -782.0]	[-490.0, -490.0, -490.0, -490.0, -490.0, -490.0, -490.0, -490.0, -490.0, -490.0, -490.0, -490.0, -490.0, -478.0, -410.0, -386.0, -309.0, -287.0, -223.0, -198.0, -139.0, -109.0, -88.0, -77.0, -69.0, -55.0, -38.0, -33.0, -23.0, -19.0, -13.0, -6.0, 0.0, 8.0, 9.0, 9.0, 9.0, 18.0, 35.0, 55.0, 68.0, 77.0, 83.0, 90.0, 117.0, 142.0, 160.0, 176.0, 211.0, 253.0, 288.0, 307.0, 319.0, 325.0, 333.0, 340.0, 342.0, 345.0, 351.0, 359.0, 367.0, 378.0, 386.0, 388.0, 388.0, 388.0, 388.0, 388.0]	[0.011880911668413319, 0.01809044025139883, 0.024318400806805585, 0.038457775917777326, 0.05568075267365202, 0.07181248807319207, 0.0890965634243912, 0.10516003223165171, 0.12194849217485171, 0.13900660513172625, 0.15538034556811908, 0.17242173320846632, 0.18874563903955277, 0.20569998678547563, 0.22208499121188652, 0.23922024540661369, 0.2553516394691542, 0.27257052023196593, 0.2884718558998429, 0.30586242712888634, 0.32207744775223546, 0.33913317137921695, 0.3555174931389047, 0.3725619527758681, 0.3885534003347857, 0.4084718832091312, 0.4219794510718202, 0.44210478169406997, 0.4553696618459071, 0.47478775065246737, 0.4887267633312149, 0.5080434762567165, 0.522052120853914, 0.5394614653851022, 0.5553604117230861, 0.5722823328396771, 0.5886765532559366, 0.6055643410800258, 0.6217950630234554, 0.6388965252626804, 0.6553979242162313, 0.6721181175744277, 0.6887488817010308, 0.7055960509096622, 0.7218970874382649, 0.7388173018916859, 0.7553750207734993, 0.7722180939890677, 0.7887317809218075, 0.8054652862701914, 0.8220441677913186, 0.8388882650033338, 0.8554217492492171, 0.87228223044076, 0.8886327602449455, 0.9055778920010198, 0.9218495738896308, 0.9389305561562651, 0.9551851713986252, 0.9722627403316437, 0.9884617183124647, 1.0055904871842358, 1.0217788838417619, 1.0390059565979755, 1.055176945279527, 1.0722555382089922, 1.0885364360947278, 1.1054750825205701]
