trialIndex	left_option	right_option	response	response_time	xTrajectory	yTrajectory	tTrajectory
0	images/0028.jpg	images/0460.jpg	left	1.243	[0.0, 0.0, 0.0, 0.0, 0.0, 0.0, 0.0, 0.0, 0.0, 0.0, 0.0, 0.0, 0.0, 0.0, 0.0, 0.0, 0.0, 0.0, 0.0, 0.0, 0.0, 0.0, 0.0, 0.0, 0.0, 0.0, 0.0, 0.0, -2.0, -5.0, -1.0, 25.0, 65.0, 126.0, 214.0, 320.0, 426.0, 529.0, 616.0, 650.0, 657.0, 657.0, 656.0, 621.0, 569.0, 475.0, 369.0, 255.0, 131.0, 11.0, -89.0, -167.0, -215.0, -248.0, -269.0, -294.0, -314.0, -339.0, -370.0, -410.0, -451.0, -509.0, -574.0, -634.0, -683.0, -723.0, -739.0, -753.0, -759.0, -760.0, -760.0, -760.0, -760.0]	[-490.0, -490.0, -490.0, -490.0, -490.0, -490.0, -490.0, -490.0, -490.0, -490.0, -490.0, -490.0, -490.0, -490.0, -490.0, -490.0, -490.0, -490.0, -490.0, -490.0, -490.0, -490.0, -490.0, -490.0, -490.0, -490.0, -482.0, -469.0, -448.0, -426.0, -388.0, -338.0, -288.0, -225.0, -162.0, -82.0, -5.0, 67.0, 126.0, 155.0, 163.0, 166.0, 167.0, 167.0, 161.0, 147.0, 134.0, 116.0, 101.0, 97.0, 97.0, 97.0, 99.0, 110.0, 116.0, 126.0, 134.0, 146.0, 156.0, 172.0, 185.0, 205.0, 234.0, 262.0, 284.0, 311.0, 323.0, 332.0, 337.0, 339.0, 339.0, 339.0, 339.0]	[0.006037978688254952, 0.01062208297662437, 0.02827446861192584, 0.04479055618867278, 0.061950739356689155, 0.07827909372281283, 0.095306157018058, 0.11146555130835623, 0.12849705200642347, 0.14479912363458425, 0.1619872961891815, 0.17839518107939512, 0.19526830315589905, 0.2116608280921355, 0.2286930113332346, 0.24496572837233543, 0.26212181558366865, 0.27818666060920805, 0.295190513250418, 0.3116482328623533, 0.32868007477372885, 0.34496678644791245, 0.36193957773502916, 0.3783235694281757, 0.39524174737744033, 0.4116294936975464, 0.42872414097655565, 0.4447698714211583, 0.46193688130006194, 0.4783031234983355, 0.49520696559920907, 0.5116592238191515, 0.5286415724549443, 0.5450296599883586, 0.5618761581135914, 0.5784495895495638, 0.5952257730532438, 0.6118958018487319, 0.6285651479847729, 0.6449914649128914, 0.6618942829081789, 0.6780645999824628, 0.695222393842414, 0.7117145879892632, 0.7285863447468728, 0.7449580483371392, 0.761949954321608, 0.7783779778983444, 0.7952145772287622, 0.8113845529733226, 0.8284699842333794, 0.8450202051317319, 0.8618929857620969, 0.8781281561823562, 0.8952077847206965, 0.9117419630056247, 0.9286932502873242, 0.945122639182955, 0.9619152066297829, 0.9783674648497254, 0.9951924588531256, 1.0117034264840186, 1.0286984044359997, 1.0449926253641024, 1.0626262377481908, 1.0781640644418076, 1.0951631383504719, 1.1116437272867188, 1.1285410838900134, 1.144962280872278, 1.1618371095973998, 1.1783262317767367, 1.1951078765559942]
1	images/0234.jpg	images/0049.jpg	right	1.044	[0.0, 0.0, 0.0, 0.0, 0.0, 0.0, 0.0, 0.0, 0.0, 0.0, 0.0, 0.0, 0.0, 0.0, 0.0, 0.0, 0.0, 0.0, 0.0, 0.0, 0.0, 0.0, 0.0, 0.0, -2.0, -13.0, -33.0, -68.0, -123.0, -194.0, -270.0, -322.0, -352.0, -357.0, -352.0, -321.0, -274.0, -120.0, 16.0, 154.0, 292.0, 424.0, 530.0, 596.0, 624.0, 630.0, 631.0, 631.0, 632.0, 633.0, 634.0, 635.0, 635.0, 635.0, 636.0, 637.0, 639.0, 639.0, 641.0, 642.0, 642.0, 643.0, 643.0]	[-490.0, -490.0, -490.0, -490.0, -490.0, -490.0, -490.0, -490.0, -490.0, -490.0, -490.0, -490.0, -490.0, -490.0, -490.0, -490.0, -490.0, -490.0, -490.0, -490.0, -490.0, -490.0, -490.0, -486.0, -460.0, -430.0, -384.0, -323.0, -246.0, -153.0, -65.0, 4.0, 69.0, 117.0, 151.0, 186.0, 208.0, 237.0, 243.0, 243.0, 243.0, 243.0, 245.0, 246.0, 251.0, 253.0, 256.0, 259.0, 265.0, 269.0, 272.0, 274.0, 275.0, 277.0, 280.0, 283.0, 286.0, 288.0, 290.0, 292.0, 292.0, 292.0, 292.0]	[0.0003511635586619377, 0.005014798487536609, 0.017416797461919487, 0.03396053297910839, 0.05086847092024982, 0.06729137455113232, 0.08429829915985465, 0.10067170951515436, 0.1176021754508838, 0.13394588977098465, 0.15087294240947813, 0.1674344273051247, 0.1841880826978013, 0.200622932985425, 0.2175950416130945, 0.23390564660076052, 0.2508787792176008, 0.2673143121646717, 0.2841294074896723, 0.30067075369879603, 0.3176380837103352, 0.33387052337639034, 0.3508846160257235, 0.3673597435699776, 0.3843308282084763, 0.40057419054210186, 0.41761012852657586, 0.43408184277359396, 0.4508539302041754, 0.4673154044430703, 0.4840943184681237, 0.5005516967503354, 0.5174531494267285, 0.5339688956737518, 0.5507853563176468, 0.5672922278754413, 0.5841380432248116, 0.6006438907934353, 0.617480831569992, 0.6338395645143464, 0.6507662758231163, 0.6672844113782048, 0.6840906321303919, 0.700565759674646, 0.7174327376997098, 0.7339191292412579, 0.7507806459907442, 0.7672854694537818, 0.7841080742655322, 0.800611873739399, 0.8176310863345861, 0.8339089234359562, 0.8508370000636205, 0.8672568316105753, 0.884093772387132, 0.9005405692150816, 0.9174478246131912, 0.933690162957646, 0.9508158714743331, 0.9669919912703335, 0.9839944785926491, 1.0004102141829208, 1.0174809680320323]
2	images/0367.jpg	images/0036.jpg	right	1.082	[0.0, 0.0, 0.0, 0.0, 0.0, 0.0, 0.0, 0.0, 0.0, 0.0, 0.0, 0.0, 0.0, 0.0, 0.0, 0.0, 0.0, 0.0, 0.0, 0.0, 0.0, 0.0, 0.0, 0.0, 0.0, -10.0, -26.0, -97.0, -180.0, -280.0, -390.0, -508.0, -623.0, -705.0, -753.0, -766.0, -766.0, -740.0, -708.0, -660.0, -563.0, -529.0, -518.0, -518.0, -518.0, -518.0, -521.0, -524.0, -524.0, -513.0, -435.0, -302.0, -22.0, 202.0, 412.0, 569.0, 662.0, 692.0, 697.0, 697.0, 697.0, 697.0, 695.0, 694.0, 694.0]	[-490.0, -490.0, -490.0, -490.0, -490.0, -490.0, -490.0, -490.0, -490.0, -490.0, -490.0, -490.0, -490.0, -490.0, -490.0, -490.0, -490.0, -490.0, -490.0, -490.0, -490.0, -490.0, -490.0, -490.0, -490.0, -475.0, -451.0, -382.0, -313.0, -226.0, -131.0, -30.0, 66.0, 156.0, 224.0, 274.0, 318.0, 365.0, 405.0, 443.0, 495.0, 511.0, 518.0, 518.0, 518.0, 518.0, 519.0, 518.0, 518.0, 513.0, 512.0, 512.0, 512.0, 512.0, 512.0, 512.0, 506.0, 502.0, 500.0, 499.0, 498.0, 498.0, 497.0, 496.0, 496.0]	[0.0027022321010008454, 0.006596502149477601, 0.021986190229654312, 0.038822789560072124, 0.054976722691208124, 0.07221302320249379, 0.08850519615225494, 0.10559472336899489, 0.12164420855697244, 0.13881292508449405, 0.15506038337480277, 0.1720171320484951, 0.1885659876279533, 0.20554901892319322, 0.22188215190544724, 0.23886484187096357, 0.25496040692087263, 0.27218783274292946, 0.288605616427958, 0.3054790797177702, 0.32185249007306993, 0.33884678536560386, 0.3551932303234935, 0.37217114155646414, 0.388490621233359, 0.40556547115556896, 0.42189382552169263, 0.4388365794438869, 0.4550628751749173, 0.4723619809374213, 0.4885445859981701, 0.5054552546935156, 0.5218034063000232, 0.5387366029899567, 0.5552110478747636, 0.5720752952620387, 0.5883534735767171, 0.6054180834908038, 0.6218502031406388, 0.6387216184521094, 0.6551452047424391, 0.672118678689003, 0.688438841025345, 0.705433136317879, 0.7218772025080398, 0.7386909326305613, 0.7551346574909985, 0.7721009635133669, 0.788297904538922, 0.8053836771287024, 0.8218373006675392, 0.838748652022332, 0.85505755036138, 0.8720815416891128, 0.8884505146415904, 0.9054335459368303, 0.9218967268243432, 0.9387497102143243, 0.9550671417964622, 0.9720471011241898, 0.9885713807307184, 1.0054206093773246, 1.0218776463298127, 1.0387453070143238, 1.0551313465693966]
3	images/0182.jpg	images/0485.jpg	left	1.476	[0.0, 0.0, 0.0, 0.0, 0.0, 0.0, 0.0, 0.0, 0.0, 0.0, 0.0, 0.0, 0.0, 0.0, 0.0, 0.0, 0.0, 0.0, 0.0, 0.0, -1.0, -1.0, -3.0, -3.0, -5.0, -14.0, -27.0, -56.0, -98.0, -152.0, -218.0, -279.0, -341.0, -412.0, -478.0, -525.0, -545.0, -554.0, -554.0, -554.0, -554.0, -554.0, -552.0, -535.0, -513.0, -479.0, -447.0, -390.0, -300.0, -186.0, -64.0, 73.0, 233.0, 398.0, 533.0, 687.0, 747.0, 768.0, 771.0, 771.0, 771.0, 771.0, 771.0, 771.0, 771.0, 771.0, 771.0, 766.0, 749.0, 719.0, 651.0, 551.0, 436.0, 291.0, 126.0, -41.0, -209.0, -354.0, -455.0, -524.0, -545.0, -553.0, -557.0, -564.0, -567.0, -571.0, -572.0, -575.0, -575.0]	[-490.0, -490.0, -490.0, -490.0, -490.0, -490.0, -490.0, -490.0, -490.0, -490.0, -490.0, -490.0, -490.0, -490.0, -490.0, -490.0, -490.0, -490.0, -490.0, -490.0, -489.0, -485.0, -480.0, -473.0, -463.0, -445.0, -421.0, -379.0, -331.0, -264.0, -162.0, -75.0, 5.0, 76.0, 142.0, 189.0, 211.0, 226.0, 230.0, 233.0, 235.0, 235.0, 239.0, 249.0, 259.0, 273.0, 285.0, 300.0, 317.0, 335.0, 353.0, 368.0, 374.0, 374.0, 374.0, 374.0, 374.0, 374.0, 374.0, 374.0, 374.0, 374.0, 374.0, 374.0, 374.0, 374.0, 374.0, 374.0, 369.0, 367.0, 355.0, 343.0, 339.0, 325.0, 320.0, 320.0, 320.0, 320.0, 320.0, 320.0, 320.0, 320.0, 320.0, 318.0, 318.0, 317.0, 317.0, 317.0, 317.0]	[0.013967216364108026, 0.01892610441427678, 0.02775673463474959, 0.04421650222502649, 0.06121728278230876, 0.07764701300766319, 0.09448736708145589, 0.11069693742319942, 0.12771307805087417, 0.14402846177108586, 0.16116543428506702, 0.1774436125997454, 0.19451197725720704, 0.21085364348255098, 0.22787900012917817, 0.24423739174380898, 0.2611596657661721, 0.2775446813320741, 0.29444545134902, 0.31095914961770177, 0.32793774362653494, 0.34423503652215004, 0.3611129372147843, 0.37762834213208407, 0.3944973681354895, 0.4109977544285357, 0.4277630151482299, 0.4440005748765543, 0.46115393133368343, 0.4775539656402543, 0.4944588316138834, 0.5107288180151954, 0.5278572571696714, 0.5444245447870344, 0.5611382641363889, 0.5776372851105407, 0.5944230258464813, 0.6107926814584062, 0.627779126050882, 0.6442228510277346, 0.6611423942958936, 0.6773215860594064, 0.6944834758760408, 0.7108708808664232, 0.727861080202274, 0.7442723783897236, 0.7611345777986571, 0.7775776199996471, 0.7943657501600683, 0.8108719389420003, 0.8277682716725394, 0.8440136819845065, 0.861094334628433, 0.8775090462295339, 0.8944309789221734, 0.9108729971339926, 0.9279058630345389, 0.9442144200438634, 0.9611616113688797, 0.9775490163592622, 0.9944576369598508, 1.0108221726259217, 1.0278570865048096, 1.0441939742304385, 1.0611855388851836, 1.0775773810455576, 1.0944139804923907, 1.110835860017687, 1.127860534004867, 1.144092291011475, 1.1612166343256831, 1.1773719326592982, 1.1944450759328902, 1.210956726106815, 1.2278322374913841, 1.2442315891385078, 1.2610883271554485, 1.2775416093645617, 1.2943734300788492, 1.3108335389988497, 1.3278397809481248, 1.3442882845411077, 1.3611286386149004, 1.377305099624209, 1.3944188616005704, 1.4107291251420975, 1.4277944178320467, 1.4442354120546952, 1.4611276487121359]
4	images/0382.jpg	images/0149.jpg	right	2.224	[0.0, 0.0, 0.0, 0.0, 0.0, -2.0, -2.0, -2.0, -2.0, -2.0, -3.0, -3.0, -3.0, -3.0, -3.0, -3.0, -3.0, -3.0, -3.0, -3.0, -3.0, -3.0, -3.0, -3.0, -3.0, -3.0, -3.0, -3.0, -3.0, -3.0, -3.0, -10.0, -29.0, -58.0, -97.0, -142.0, -178.0, -198.0, -213.0, -225.0, -230.0, -238.0, -245.0, -252.0, -258.0, -263.0, -263.0, -263.0, -264.0, -250.0, -189.0, 1.0, 191.0, 428.0, 658.0, 882.0, 959.0, 959.0, 959.0, 959.0, 959.0, 959.0, 959.0, 943.0, 917.0, 882.0, 845.0, 826.0, 813.0, 807.0, 804.0, 799.0, 791.0, 781.0, 773.0, 766.0, 763.0, 759.0, 751.0, 740.0, 722.0, 692.0, 635.0, 538.0, 416.0, 259.0, 76.0, -110.0, -369.0, -502.0, -597.0, -641.0, -663.0, -673.0, -677.0, -680.0, -681.0, -683.0, -683.0, -683.0, -683.0, -683.0, -683.0, -683.0, -683.0, -677.0, -657.0, -601.0, -499.0, -357.0, -171.0, 48.0, 395.0, 611.0, 794.0, 932.0, 959.0, 959.0, 959.0, 959.0, 959.0, 953.0, 944.0, 934.0, 925.0, 917.0, 912.0, 900.0, 883.0, 868.0, 862.0, 861.0, 861.0, 861.0]	[-490.0, -490.0, -490.0, -490.0, -490.0, -490.0, -490.0, -490.0, -490.0, -490.0, -490.0, -489.0, -488.0, -487.0, -487.0, -487.0, -487.0, -487.0, -487.0, -487.0, -486.0, -486.0, -485.0, -485.0, -485.0, -483.0, -481.0, -475.0, -470.0, -459.0, -444.0, -422.0, -384.0, -327.0, -268.0, -200.0, -133.0, -85.0, -41.0, 0.0, 15.0, 31.0, 41.0, 49.0, 53.0, 55.0, 55.0, 55.0, 57.0, 64.0, 82.0, 138.0, 178.0, 213.0, 252.0, 288.0, 313.0, 331.0, 342.0, 345.0, 345.0, 345.0, 345.0, 343.0, 338.0, 332.0, 328.0, 325.0, 323.0, 323.0, 323.0, 323.0, 323.0, 323.0, 323.0, 323.0, 323.0, 323.0, 323.0, 323.0, 323.0, 323.0, 323.0, 323.0, 323.0, 323.0, 323.0, 321.0, 321.0, 321.0, 321.0, 321.0, 320.0, 317.0, 316.0, 316.0, 315.0, 315.0, 315.0, 315.0, 315.0, 315.0, 315.0, 315.0, 315.0, 315.0, 315.0, 321.0, 333.0, 341.0, 343.0, 346.0, 346.0, 346.0, 346.0, 346.0, 346.0, 346.0, 346.0, 346.0, 346.0, 346.0, 343.0, 341.0, 338.0, 336.0, 335.0, 333.0, 330.0, 329.0, 328.0, 328.0, 328.0, 328.0]	[0.008558485191315413, 0.01262444572057575, 0.017699728487059474, 0.0337761789560318, 0.050107263843528926, 0.06714217783883214, 0.08330771618057042, 0.10035560082178563, 0.11682185367681086, 0.133766655693762, 0.15015747398138046, 0.16707701736595482, 0.18343677429948002, 0.20035870699211955, 0.21687991451472044, 0.2337615698343143, 0.2501950548030436, 0.26711493940092623, 0.28347742708865553, 0.3003450877731666, 0.3168526419904083, 0.33375750796403736, 0.35017051291652024, 0.3670873255468905, 0.383439231896773, 0.40042635914869606, 0.41684038809034973, 0.43372545682359487, 0.4501667923759669, 0.4672061436576769, 0.4835034366697073, 0.5003704146947712, 0.5169199529336765, 0.5336295763263479, 0.5501599998679012, 0.5671447378117591, 0.5834631934994832, 0.6003588434541598, 0.616846259101294, 0.6336828584317118, 0.6502184019191191, 0.6671492093009874, 0.6834669823292643, 0.7003725309623405, 0.7168903251877055, 0.7337269245181233, 0.7500955561408773, 0.7670393341686577, 0.7832147711887956, 0.80040362640284, 0.8168418899876997, 0.8337505107047036, 0.8501993556274101, 0.8670646268874407, 0.8834411092102528, 0.9004302845569327, 0.9168449961580336, 0.9336433662101626, 0.9500956244301051, 0.967018922441639, 0.9834947326453403, 1.0003565907245502, 1.0168177236337215, 1.0337161042261869, 1.0501867944840342, 1.0672636923845857, 1.0834524414967746, 1.100445371470414, 1.1168549630092457, 1.1336420690640807, 1.1501291433814913, 1.1670162599766627, 1.1835105022182688, 1.2003361789975315, 1.2168276904849336, 1.2337144658667967, 1.2500977747840807, 1.2671562407631427, 1.2834777684183791, 1.300433151773177, 1.3168635646579787, 1.3336940200533718, 1.3498827690491453, 1.3669972136849537, 1.3832487679319456, 1.4003714045975357, 1.4165471829473972, 1.4336769875371829, 1.4501275391085073, 1.4670467410469428, 1.4834078634157777, 1.5003349160542712, 1.5168434942606837, 1.5336309416452423, 1.5501552212517709, 1.5670327806146815, 1.5834471507696435, 1.6003724968759343, 1.6167889151256531, 1.633630634401925, 1.6501200980274007, 1.6670553426956758, 1.6831928917672485, 1.70035546424333, 1.7169217278715223, 1.7336658259155229, 1.7501788414083421, 1.7670912167523056, 1.7834912510588765, 1.800467114429921, 1.816783522022888, 1.83371467073448, 1.850140304886736, 1.8670892029767856, 1.883331882650964, 1.90041628992185, 1.916569881606847, 1.9337611261289567, 1.9499365631490946, 1.967001514392905, 1.9834404606372118, 2.000349764013663, 2.016807824955322, 2.0339065681910142, 2.049989503924735, 2.067207372514531, 2.083472921513021, 2.1003774461569265, 2.11685769376345, 2.1336290984181687, 2.150063607376069, 2.16702308668755, 2.183242555707693, 2.2003535869298503]
5	images/0039.jpg	images/0099.jpg	left	1.765	[0.0, 0.0, 0.0, 0.0, 0.0, 0.0, 0.0, 0.0, 0.0, 0.0, 1.0, 2.0, 3.0, 4.0, 4.0, 4.0, 4.0, 4.0, 4.0, 4.0, 4.0, 4.0, 4.0, 4.0, 4.0, 4.0, 4.0, 4.0, 4.0, 4.0, 4.0, 4.0, 4.0, 4.0, 4.0, 4.0, 4.0, 4.0, -1.0, -13.0, -48.0, -110.0, -169.0, -260.0, -343.0, -423.0, -534.0, -599.0, -641.0, -659.0, -665.0, -665.0, -660.0, -638.0, -599.0, -530.0, -422.0, -278.0, -105.0, 175.0, 354.0, 524.0, 694.0, 823.0, 916.0, 959.0, 959.0, 959.0, 959.0, 959.0, 955.0, 932.0, 896.0, 813.0, 702.0, 558.0, 391.0, 219.0, 43.0, -125.0, -262.0, -376.0, -444.0, -470.0, -470.0, -470.0, -470.0, -470.0, -470.0, -465.0, -462.0, -458.0, -458.0, -458.0, -458.0, -484.0, -519.0, -549.0, -587.0, -610.0, -625.0, -631.0, -635.0, -635.0, -635.0, -635.0]	[-490.0, -490.0, -490.0, -490.0, -490.0, -490.0, -490.0, -490.0, -490.0, -490.0, -490.0, -490.0, -489.0, -488.0, -488.0, -488.0, -488.0, -488.0, -488.0, -488.0, -488.0, -488.0, -488.0, -488.0, -488.0, -488.0, -488.0, -488.0, -488.0, -488.0, -488.0, -488.0, -488.0, -488.0, -488.0, -488.0, -488.0, -484.0, -479.0, -469.0, -443.0, -406.0, -378.0, -325.0, -277.0, -229.0, -158.0, -113.0, -84.0, -66.0, -56.0, -51.0, -39.0, -22.0, 2.0, 38.0, 85.0, 136.0, 185.0, 261.0, 294.0, 318.0, 347.0, 359.0, 363.0, 366.0, 366.0, 366.0, 366.0, 366.0, 363.0, 356.0, 349.0, 340.0, 322.0, 301.0, 279.0, 259.0, 255.0, 255.0, 255.0, 255.0, 256.0, 256.0, 256.0, 256.0, 256.0, 256.0, 258.0, 260.0, 262.0, 265.0, 265.0, 265.0, 265.0, 271.0, 275.0, 280.0, 284.0, 288.0, 291.0, 293.0, 294.0, 294.0, 294.0, 294.0]	[0.0030070769134908915, 0.007035832153633237, 0.02285150403622538, 0.03908223705366254, 0.05627177492715418, 0.07245233200956136, 0.08973573648836464, 0.10594325885176659, 0.12289625289849937, 0.13929150847252458, 0.15629297168925405, 0.1726230327039957, 0.18973645323421806, 0.20597537828143686, 0.22294168430380523, 0.23929802794009447, 0.2562295178649947, 0.2726298935012892, 0.28964398615062237, 0.3059365004301071, 0.32288164377678186, 0.3392885046778247, 0.35620292800012976, 0.37254220503382385, 0.3895085110561922, 0.4059832972707227, 0.42286495259031653, 0.4392779575427994, 0.45634598075412214, 0.47270573768764734, 0.4895181024912745, 0.5059935713652521, 0.5229489547200501, 0.5393752716481686, 0.556173300370574, 0.572579137282446, 0.5896027872804552, 0.6059980428544804, 0.6229114421876147, 0.6394759990507737, 0.6561473931651562, 0.6726143286796287, 0.6895290934480727, 0.7059089889517054, 0.722863006987609, 0.7390172813320532, 0.7561532299732789, 0.7724320909474045, 0.7897540660342202, 0.8059452044544742, 0.8228739637415856, 0.839386296691373, 0.856126640108414, 0.8725447650067508, 0.8895923083182424, 0.9059715212788433, 0.9228241632226855, 0.9392562828725204, 0.9561024395516142, 0.9725099832285196, 0.9895012064371258, 1.0058746167924255, 1.0228102027904242, 1.0392832823563367, 1.0561410443624482, 1.072305217385292, 1.0894118113210425, 1.1058794296113774, 1.122817746247165, 1.1392536205239594, 1.1561782838543877, 1.1725042487960309, 1.1895466720452532, 1.2057173304492608, 1.2227829643525183, 1.2390836706617847, 1.256142819300294, 1.2723496590042487, 1.289424167596735, 1.3057016632519662, 1.3227130251470953, 1.3392236514482647, 1.3561175947543234, 1.372525821090676, 1.3895054389722645, 1.4058617826085538, 1.4227318327175453, 1.439286149572581, 1.456095100962557, 1.4724961591418833, 1.4895368757424876, 1.506012003403157, 1.5228277813876048, 1.5392247437266633, 1.5561128844274208, 1.572526230593212, 1.5895775285316631, 1.6058321548625827, 1.6227267809445038, 1.6392053217859939, 1.6561412491137162, 1.6725535714067519, 1.6895533280912787, 1.7058659810572863, 1.7228469643741846, 1.7392469985643402]
6	images/0525.jpg	images/0238.jpg	right	1.392	[0.0, 2.0, 3.0, 3.0, 3.0, 3.0, 3.0, 4.0, 5.0, 5.0, 5.0, 5.0, 5.0, 6.0, 6.0, 6.0, 6.0, 6.0, 6.0, 8.0, 10.0, 19.0, 41.0, 74.0, 120.0, 172.0, 253.0, 351.0, 460.0, 567.0, 668.0, 755.0, 834.0, 862.0, 870.0, 871.0, 871.0, 871.0, 869.0, 845.0, 769.0, 629.0, 432.0, 216.0, -107.0, -283.0, -418.0, -483.0, -504.0, -507.0, -507.0, -507.0, -507.0, -507.0, -509.0, -517.0, -525.0, -535.0, -550.0, -577.0, -608.0, -646.0, -676.0, -692.0, -695.0, -695.0, -692.0, -623.0, -514.0, -354.0, -144.0, 79.0, 303.0, 493.0, 636.0, 717.0, 736.0, 736.0, 736.0, 736.0, 735.0, 732.0, 729.0, 729.0]	[-490.0, -489.0, -489.0, -489.0, -489.0, -489.0, -489.0, -488.0, -487.0, -486.0, -485.0, -484.0, -483.0, -483.0, -483.0, -483.0, -483.0, -483.0, -482.0, -478.0, -473.0, -458.0, -434.0, -403.0, -363.0, -315.0, -242.0, -170.0, -91.0, 2.0, 74.0, 139.0, 204.0, 228.0, 237.0, 239.0, 239.0, 239.0, 240.0, 240.0, 240.0, 238.0, 238.0, 238.0, 238.0, 238.0, 238.0, 238.0, 238.0, 238.0, 238.0, 238.0, 238.0, 238.0, 238.0, 237.0, 237.0, 235.0, 235.0, 235.0, 235.0, 235.0, 235.0, 235.0, 236.0, 236.0, 239.0, 260.0, 284.0, 310.0, 333.0, 351.0, 362.0, 369.0, 369.0, 369.0, 369.0, 369.0, 369.0, 369.0, 369.0, 368.0, 366.0, 366.0]	[0.016231961897574365, 0.022576662711799145, 0.032433340325951576, 0.04927096364554018, 0.06548565404955298, 0.0825922479853034, 0.09916533809155226, 0.11591080157086253, 0.13216201460454613, 0.1491740591591224, 0.1657078959979117, 0.18265645275823772, 0.1990943750133738, 0.21598285692743957, 0.23239449656102806, 0.24970350100193173, 0.2657099781790748, 0.28254589485004544, 0.2990094171836972, 0.3159586564870551, 0.3322962267557159, 0.3492867674212903, 0.3656833883142099, 0.3826415023067966, 0.39902378723490983, 0.4159160238923505, 0.43231093825306743, 0.44924379349686205, 0.4656619185116142, 0.4825507418718189, 0.49904020538087934, 0.5159129861276597, 0.532125287107192, 0.5492731822887436, 0.5657428485574201, 0.5825985625851899, 0.5990306822350249, 0.6158597721951082, 0.6324485637014732, 0.6492254298646003, 0.6657019227277488, 0.6825630980310962, 0.6990508550079539, 0.7159164677141234, 0.7321915740612894, 0.7493954478995875, 0.7657552048331127, 0.7827068334445357, 0.7991188144078478, 0.8158888538600877, 0.832063949550502, 0.8492050181375816, 0.8654333618469536, 0.8825699930312112, 0.8991028058808297, 0.9159213146194816, 0.932435012771748, 0.9492606895510107, 0.9657231877790764, 0.9826959790661931, 0.9990973786916584, 1.0158513754140586, 1.032352444366552, 1.0492562863510102, 1.0656617819331586, 1.0825499226339161, 1.0990738607943058, 1.1159152388572693, 1.1322992304340005, 1.1492631471483037, 1.1656467973953113, 1.1826311940094456, 1.199093009578064, 1.2159606703789905, 1.2323194033233449, 1.2493338371859863, 1.2656444421736524, 1.2825994841987267, 1.2990356998052448, 1.3158774191979319, 1.3322818907909095, 1.349349231342785, 1.365620241733268, 1.3825691397069022]
7	images/0073.jpg	images/0397.jpg	right	1.534	[0.0, 0.0, 0.0, 1.0, 2.0, 2.0, 10.0, 21.0, 33.0, 45.0, 45.0, 45.0, 45.0, 45.0, 45.0, 45.0, 45.0, 45.0, 45.0, 45.0, 45.0, 45.0, 45.0, 45.0, 45.0, 45.0, 45.0, 45.0, 51.0, 31.0, -4.0, -6.0, -8.0, -25.0, -57.0, -89.0, -129.0, -202.0, -289.0, -395.0, -512.0, -618.0, -691.0, -717.0, -722.0, -722.0, -722.0, -722.0, -722.0, -722.0, -711.0, -684.0, -619.0, -504.0, -350.0, -180.0, -16.0, 138.0, 317.0, 412.0, 477.0, 513.0, 529.0, 536.0, 540.0, 540.0, 540.0, 540.0, 540.0, 540.0, 540.0, 541.0, 542.0, 542.0, 543.0, 543.0, 545.0, 555.0, 583.0, 627.0, 671.0, 691.0, 697.0, 697.0, 697.0, 697.0, 697.0, 697.0, 697.0, 697.0, 697.0, 697.0, 697.0]	[-490.0, -490.0, -490.0, -491.0, -491.0, -491.0, -480.0, -475.0, -459.0, -449.0, -449.0, -449.0, -449.0, -449.0, -449.0, -449.0, -449.0, -449.0, -449.0, -449.0, -449.0, -449.0, -449.0, -449.0, -449.0, -449.0, -449.0, -449.0, -356.0, -242.0, -120.0, 2.0, 68.0, 132.0, 195.0, 243.0, 276.0, 308.0, 337.0, 356.0, 372.0, 374.0, 374.0, 374.0, 374.0, 374.0, 374.0, 374.0, 374.0, 375.0, 378.0, 380.0, 388.0, 394.0, 394.0, 394.0, 394.0, 394.0, 394.0, 394.0, 394.0, 394.0, 394.0, 394.0, 394.0, 394.0, 394.0, 394.0, 394.0, 394.0, 394.0, 394.0, 395.0, 395.0, 395.0, 395.0, 395.0, 395.0, 395.0, 395.0, 395.0, 396.0, 396.0, 396.0, 396.0, 396.0, 396.0, 396.0, 396.0, 396.0, 396.0, 396.0, 396.0]	[0.00615447573363781, 0.011353321140632033, 0.014855399262160063, 0.028744586859829724, 0.04581534082535654, 0.06203344452660531, 0.0791175103513524, 0.09540046739857644, 0.11235892272088677, 0.1287531543057412, 0.14568293769843876, 0.1618925080401823, 0.1790134379407391, 0.19541825086344033, 0.21236066345591098, 0.22885319904889911, 0.24572359037119895, 0.26210860605351627, 0.2790766187245026, 0.2954172609606758, 0.3123859562911093, 0.3287726786220446, 0.3457335232524201, 0.3622444907668978, 0.3790739221731201, 0.39524253259878606, 0.41234912641812116, 0.42860307008959353, 0.4457021546550095, 0.46214622096158564, 0.4790852202568203, 0.4952022893121466, 0.5124092352343723, 0.5287106242030859, 0.5456987755605951, 0.5619052738184109, 0.5790244970703498, 0.5955084993038327, 0.6122966294642538, 0.6288270528893918, 0.6456295190146193, 0.6619162306888029, 0.6789685526164249, 0.695414325571619, 0.7123249941505492, 0.7287762283813208, 0.745704646455124, 0.7619384514400735, 0.7790474346838892, 0.7955211969092488, 0.8125182228395715, 0.8286305132787675, 0.8456763499416411, 0.8621057388372719, 0.8790843328461051, 0.8954154177336022, 0.9123291585128754, 0.9288319339975715, 0.9456436160253361, 0.9620928022777662, 0.9791137216379866, 0.9954417345579714, 1.0124343232018873, 1.0288159254705533, 1.0456880235578865, 1.0620665537426248, 1.0791028330568224, 1.0954349420499057, 1.1123514133505523, 1.1288115222705528, 1.1456771349767223, 1.1622550038155168, 1.1790980885270983, 1.1954650135012344, 1.2123773888451979, 1.2288709484273568, 1.2457075477577746, 1.2621137259993702, 1.279049311997369, 1.2954616342904046, 1.3123675242532045, 1.3288047638488933, 1.345695293857716, 1.3620891842292622, 1.37901145813521, 1.3954466497525573, 1.412356294458732, 1.4288092353381217, 1.445727072074078, 1.4620738583616912, 1.4791060416027904, 1.4954634092282504, 1.5123696405207738]
8	images/0375.jpg	images/0053.jpg	left	1.099	[0.0, 0.0, 0.0, 0.0, 0.0, 0.0, 0.0, 0.0, 0.0, 0.0, 0.0, 0.0, 0.0, 0.0, 0.0, 0.0, 0.0, 0.0, 0.0, 0.0, 0.0, -2.0, -8.0, -19.0, -31.0, -42.0, -52.0, -60.0, -71.0, -81.0, -93.0, -104.0, -116.0, -141.0, -166.0, -207.0, -259.0, -311.0, -371.0, -425.0, -480.0, -524.0, -556.0, -579.0, -592.0, -608.0, -617.0, -622.0, -624.0, -624.0, -621.0, -610.0, -596.0, -582.0, -576.0, -576.0, -583.0, -607.0, -629.0, -653.0, -670.0, -683.0, -688.0, -690.0, -691.0, -691.0]	[-490.0, -490.0, -490.0, -490.0, -490.0, -490.0, -490.0, -490.0, -490.0, -490.0, -490.0, -490.0, -490.0, -490.0, -490.0, -490.0, -490.0, -490.0, -490.0, -490.0, -490.0, -483.0, -475.0, -458.0, -439.0, -421.0, -405.0, -389.0, -374.0, -361.0, -349.0, -336.0, -326.0, -304.0, -287.0, -258.0, -222.0, -187.0, -145.0, -107.0, -68.0, -36.0, -12.0, 11.0, 30.0, 60.0, 76.0, 93.0, 108.0, 121.0, 138.0, 159.0, 183.0, 207.0, 229.0, 249.0, 266.0, 286.0, 298.0, 310.0, 317.0, 324.0, 326.0, 328.0, 328.0, 328.0]	[0.005893390043638647, 0.011248565977439284, 0.02821111725643277, 0.04517230321653187, 0.06112416705582291, 0.07837821694556624, 0.0946697072358802, 0.11158993316348642, 0.12788893282413483, 0.14487094013020396, 0.16131193446926773, 0.17827755771577358, 0.19441954419016838, 0.21157699672039598, 0.22800365497823805, 0.24497098487336189, 0.26106928067747504, 0.2780079386429861, 0.2946144795278087, 0.3115760068176314, 0.3279658011160791, 0.34497101907618344, 0.3613362374017015, 0.3784322498831898, 0.39470257761422545, 0.4116320195607841, 0.42803478450514376, 0.4448922051815316, 0.46133490616921335, 0.47824591619428247, 0.4946664304006845, 0.5115627631312236, 0.5279904453782365, 0.5448977006599307, 0.561338012223132, 0.5783568836050108, 0.5946422298438847, 0.6115511918906122, 0.6280911727808416, 0.6448833987815306, 0.6611052572261542, 0.6782084377482533, 0.694695170619525, 0.7115338180446997, 0.7280598042998463, 0.7449185902951285, 0.7613926938502118, 0.7783241838915274, 0.7947887300979346, 0.8116912067634985, 0.8280287770321593, 0.8449080430436879, 0.8613913626177236, 0.8782317166915163, 0.8946611055871472, 0.9115915716392919, 0.928076256532222, 0.9448906691977754, 0.9614129008259624, 0.9783143535023555, 0.9947696836898103, 1.0115704430500045, 1.0280995012726635, 1.0451217859517783, 1.0611944816773757, 1.0782154009211808]
9	images/0539.jpg	images/0567.jpg	right	1.187	[0.0, 0.0, 0.0, 0.0, 0.0, 0.0, 0.0, 0.0, 0.0, 0.0, 0.0, 0.0, 0.0, 0.0, 0.0, 0.0, 0.0, 0.0, 0.0, 0.0, 0.0, 0.0, 0.0, 0.0, 0.0, 0.0, 0.0, 0.0, 0.0, 0.0, 0.0, 0.0, 0.0, -5.0, -16.0, -37.0, -64.0, -105.0, -150.0, -187.0, -229.0, -265.0, -291.0, -337.0, -357.0, -378.0, -391.0, -406.0, -418.0, -426.0, -429.0, -429.0, -417.0, -368.0, -280.0, -97.0, 74.0, 276.0, 485.0, 668.0, 803.0, 879.0, 901.0, 903.0, 903.0, 903.0, 899.0, 895.0, 889.0, 889.0, 889.0]	[-490.0, -490.0, -490.0, -490.0, -490.0, -490.0, -490.0, -490.0, -490.0, -490.0, -490.0, -490.0, -490.0, -490.0, -490.0, -490.0, -490.0, -490.0, -490.0, -490.0, -490.0, -490.0, -490.0, -490.0, -490.0, -490.0, -490.0, -490.0, -490.0, -490.0, -490.0, -490.0, -490.0, -483.0, -469.0, -450.0, -427.0, -391.0, -338.0, -288.0, -228.0, -169.0, -122.0, -35.0, 14.0, 62.0, 106.0, 141.0, 168.0, 191.0, 204.0, 217.0, 233.0, 258.0, 287.0, 338.0, 369.0, 394.0, 403.0, 405.0, 405.0, 405.0, 405.0, 405.0, 405.0, 405.0, 403.0, 401.0, 398.0, 398.0, 398.0]	[0.004184983437880874, 0.009356863447465003, 0.024669751641340554, 0.04173299623653293, 0.057844604016281664, 0.0749866965925321, 0.09146694408264011, 0.10832504753489047, 0.12470460182521492, 0.14166954241227359, 0.1580770859727636, 0.1750280320411548, 0.19143182097468525, 0.20845615351572633, 0.224442150676623, 0.24169483524747193, 0.25791771756485105, 0.275078242062591, 0.2911352365044877, 0.3082961024483666, 0.3247879553819075, 0.3416692693717778, 0.35803448769729584, 0.3751253802329302, 0.3913602092070505, 0.4082954538753256, 0.42453233094420284, 0.44143002899363637, 0.4581703724106774, 0.4749957077438012, 0.4914179287152365, 0.5083303040592, 0.5247825622791424, 0.5417212202446535, 0.5580949719296768, 0.5750268031843007, 0.5914432214340195, 0.6083357995375991, 0.6246027138549834, 0.641655377112329, 0.6581311873160303, 0.6750456106383353, 0.6913988823071122, 0.7083262762753293, 0.7248587477952242, 0.7417346005095169, 0.7581732054241002, 0.7750326741952449, 0.7914456790313125, 0.8083013930590823, 0.8248048513196409, 0.8416383786825463, 0.8581227222457528, 0.8749613696709275, 0.8914132865611464, 0.9083888084860519, 0.9247369602089748, 0.941658892785199, 0.9581483564106748, 0.9750334250275046, 0.9914088833611459, 1.0082727894186974, 1.0244728024117649, 1.0414841644233093, 1.0580350678646937, 1.0750006912276149, 1.0911443842342123, 1.1083086634753272, 1.1245066284900531, 1.1414582572178915, 1.1582238592673093]
10	images/0409.jpg	images/0377.jpg	right	1.411	[0.0, 0.0, 0.0, 0.0, 0.0, 0.0, 0.0, 0.0, 0.0, 0.0, 0.0, 0.0, 0.0, 0.0, 0.0, 0.0, 0.0, 0.0, 0.0, 0.0, 0.0, 0.0, 0.0, 0.0, 0.0, 0.0, 0.0, 0.0, 0.0, 0.0, 0.0, 0.0, 0.0, 0.0, 0.0, 0.0, 0.0, 0.0, 0.0, 0.0, 0.0, 0.0, 0.0, 0.0, 0.0, 0.0, 0.0, 0.0, 0.0, 0.0, 0.0, 0.0, -1.0, -1.0, -1.0, -1.0, -1.0, 1.0, 20.0, 64.0, 147.0, 319.0, 464.0, 612.0, 763.0, 886.0, 959.0, 959.0, 959.0, 959.0, 959.0, 959.0, 959.0, 959.0, 958.0, 948.0, 935.0, 917.0, 897.0, 877.0, 856.0, 836.0, 824.0, 820.0, 820.0]	[-490.0, -490.0, -490.0, -490.0, -490.0, -490.0, -490.0, -490.0, -490.0, -490.0, -490.0, -490.0, -490.0, -490.0, -490.0, -490.0, -490.0, -489.0, -489.0, -489.0, -489.0, -489.0, -489.0, -489.0, -489.0, -489.0, -489.0, -489.0, -489.0, -489.0, -489.0, -489.0, -489.0, -489.0, -489.0, -489.0, -489.0, -489.0, -489.0, -489.0, -489.0, -488.0, -488.0, -487.0, -486.0, -486.0, -485.0, -485.0, -484.0, -484.0, -484.0, -484.0, -483.0, -483.0, -482.0, -480.0, -474.0, -459.0, -429.0, -373.0, -274.0, -89.0, 45.0, 176.0, 306.0, 405.0, 490.0, 540.0, 540.0, 540.0, 540.0, 540.0, 540.0, 540.0, 540.0, 538.0, 535.0, 526.0, 513.0, 502.0, 485.0, 471.0, 463.0, 461.0, 461.0]	[0.015813828795216978, 0.020213613170199096, 0.03135097282938659, 0.048172212205827236, 0.0643780279206112, 0.08148086722940207, 0.09805737074930221, 0.11482570343650877, 0.13122437242418528, 0.14817531837616116, 0.16453882993664593, 0.18153414933476597, 0.19766589568462223, 0.2148639669176191, 0.23121860378887504, 0.24813507520593703, 0.26462726935278624, 0.2815816287184134, 0.297920222976245, 0.314810753101483, 0.3312288779998198, 0.3482016692869365, 0.3643457037396729, 0.38134409498889, 0.3979226464871317, 0.41484253120142967, 0.43129956803750247, 0.448197266086936, 0.46456487372051924, 0.48151343036442995, 0.4978882059222087, 0.5148050186689943, 0.5312248502159491, 0.5481815988896415, 0.5643283639801666, 0.5812830645591021, 0.5979268107330427, 0.6148036874365062, 0.6312224949942902, 0.6482045023003593, 0.664564942009747, 0.6816152159590274, 0.6977879223413765, 0.7148006495554, 0.7312587104970589, 0.7481724511599168, 0.7645632694475353, 0.7815049993805587, 0.7978248203871772, 0.8148030730662867, 0.8312607926782221, 0.8481868213275447, 0.8645213196286932, 0.8816060682293028, 0.897775019868277, 0.9148508937796578, 0.9312741387402639, 0.948136679478921, 0.9646213643718511, 0.9813804810401052, 0.997978147235699, 1.0147816373500973, 1.0312028342159465, 1.048090974916704, 1.0646637238096446, 1.0815129524562508, 1.0977805495494977, 1.114783719414845, 1.131232223007828, 1.148109441041015, 1.1646391819231212, 1.1814604212995619, 1.1978761568898335, 1.2147895562229678, 1.2312558091944084, 1.2481118645519018, 1.264339184272103, 1.2816154207102954, 1.2977908577304333, 1.3147421451285481, 1.3313684832537547, 1.348132719984278, 1.3644286476774141, 1.3814587829401717, 1.3979438091628253]
11	images/0570.jpg	images/0316.jpg	left	0.99	[0.0, 1.0, 1.0, 1.0, 1.0, 1.0, 1.0, 1.0, 1.0, 1.0, 1.0, 1.0, 1.0, 1.0, 1.0, 1.0, 1.0, 1.0, 1.0, 1.0, 1.0, -4.0, -22.0, -69.0, -119.0, -176.0, -231.0, -269.0, -286.0, -302.0, -313.0, -320.0, -328.0, -339.0, -351.0, -369.0, -407.0, -434.0, -459.0, -482.0, -505.0, -523.0, -544.0, -562.0, -581.0, -599.0, -617.0, -642.0, -670.0, -681.0, -685.0, -685.0, -684.0, -682.0, -679.0, -679.0, -679.0, -679.0, -679.0, -679.0]	[-490.0, -490.0, -490.0, -490.0, -490.0, -490.0, -490.0, -490.0, -490.0, -490.0, -490.0, -490.0, -490.0, -490.0, -490.0, -490.0, -490.0, -490.0, -490.0, -489.0, -487.0, -480.0, -459.0, -424.0, -398.0, -373.0, -343.0, -320.0, -309.0, -295.0, -277.0, -255.0, -233.0, -212.0, -193.0, -171.0, -141.0, -121.0, -103.0, -83.0, -62.0, -40.0, -11.0, 21.0, 55.0, 91.0, 124.0, 156.0, 199.0, 220.0, 236.0, 250.0, 261.0, 271.0, 277.0, 280.0, 280.0, 280.0, 280.0, 280.0]	[0.015478264074772596, 0.02229400468058884, 0.030678853625431657, 0.04754787974525243, 0.06393938069231808, 0.08074218803085387, 0.09729957685340196, 0.11421468295156956, 0.13052358117420226, 0.1474840845912695, 0.1639039161382243, 0.180779768852517, 0.19727947236970067, 0.21419321303255856, 0.23054272995796055, 0.24745851871557534, 0.26390360889490694, 0.2808330509578809, 0.29730954382102937, 0.31411644723266363, 0.3304454841418192, 0.34747152344789356, 0.3638497124193236, 0.3807559438282624, 0.3969907728023827, 0.4140386574435979, 0.43065031827427447, 0.4473841763101518, 0.4637562212301418, 0.48072901263367385, 0.4971590841887519, 0.5140076301759109, 0.5303578298771754, 0.5474166370695457, 0.563874356681481, 0.5807218786794692, 0.5970041530672461, 0.6141035789623857, 0.6304971278877929, 0.647396873915568, 0.6638897508382797, 0.6808294327929616, 0.6969529872294515, 0.7140718691516668, 0.7304623461095616, 0.7473958840128034, 0.7638652089517564, 0.7807506190147251, 0.7971673785941675, 0.8141343671595678, 0.830339158885181, 0.8473948942264542, 0.8638959630625322, 0.8807673783740029, 0.8969868475105613, 0.9140811533434317, 0.9303231503581628, 0.9473973176209256, 0.963913063867949, 0.98073908186052]
12	images/0483.jpg	images/0200.jpg	left	1.552	[0.0, 0.0, 0.0, 0.0, 0.0, 0.0, 0.0, 0.0, 0.0, 0.0, 0.0, 0.0, 0.0, 0.0, 0.0, 0.0, 0.0, 0.0, 0.0, 0.0, 0.0, 0.0, 0.0, 0.0, 0.0, 0.0, 0.0, 0.0, 0.0, 0.0, 0.0, 0.0, 0.0, 0.0, 0.0, 0.0, -1.0, -5.0, -10.0, -18.0, -35.0, -72.0, -130.0, -203.0, -295.0, -374.0, -443.0, -500.0, -528.0, -547.0, -546.0, -527.0, -490.0, -428.0, -334.0, -209.0, -69.0, 79.0, 255.0, 392.0, 502.0, 589.0, 636.0, 646.0, 647.0, 642.0, 611.0, 546.0, 436.0, 293.0, 120.0, -47.0, -193.0, -380.0, -472.0, -550.0, -602.0, -633.0, -658.0, -682.0, -706.0, -739.0, -780.0, -815.0, -831.0, -832.0, -833.0, -830.0, -822.0, -821.0, -818.0, -815.0, -815.0, -815.0]	[-490.0, -490.0, -490.0, -490.0, -490.0, -490.0, -490.0, -490.0, -490.0, -490.0, -490.0, -490.0, -490.0, -490.0, -490.0, -490.0, -490.0, -490.0, -490.0, -490.0, -490.0, -490.0, -490.0, -490.0, -490.0, -490.0, -490.0, -490.0, -490.0, -490.0, -490.0, -490.0, -490.0, -490.0, -490.0, -489.0, -485.0, -475.0, -466.0, -453.0, -434.0, -396.0, -338.0, -271.0, -194.0, -117.0, -43.0, 29.0, 81.0, 139.0, 161.0, 186.0, 212.0, 241.0, 281.0, 318.0, 361.0, 393.0, 423.0, 440.0, 448.0, 448.0, 446.0, 443.0, 442.0, 440.0, 431.0, 412.0, 386.0, 365.0, 341.0, 319.0, 319.0, 319.0, 319.0, 319.0, 319.0, 319.0, 319.0, 319.0, 319.0, 319.0, 319.0, 319.0, 319.0, 319.0, 319.0, 320.0, 322.0, 323.0, 324.0, 324.0, 324.0, 324.0]	[0.0066572594223544, 0.011121214483864605, 0.014339986140839756, 0.029641951667144895, 0.047778006410226226, 0.06336771580390632, 0.07967183541040868, 0.09659206145443022, 0.11283815442584455, 0.12996864167507738, 0.14632293721660972, 0.1632643259363249, 0.1797111228806898, 0.19660779682453722, 0.21295492444187403, 0.2299816464073956, 0.2463315047789365, 0.26328484003897756, 0.2796425489941612, 0.29652659373823553, 0.31302049453370273, 0.3300851045642048, 0.34630286693573, 0.36319305561482906, 0.3796456551644951, 0.39655256911646575, 0.41296420875005424, 0.42991208273451775, 0.4463285009842366, 0.46324736170936376, 0.47965695324819535, 0.49655772326514125, 0.5129615121986717, 0.5299916474614292, 0.5462889404734597, 0.5631501158932224, 0.5797672379994765, 0.5965813094517216, 0.6127181758638471, 0.6298906470183283, 0.6461090920493007, 0.6631597073283046, 0.6797191441291943, 0.6965547195868567, 0.7127550739096478, 0.7299056998454034, 0.7463388433679938, 0.7631976294796914, 0.7796666129725054, 0.7965018471004441, 0.8129455719608814, 0.8299183632479981, 0.8463596988003701, 0.8632283835904673, 0.8796977084130049, 0.896515193162486, 0.9129742780933157, 0.9299003067426383, 0.9462272956734523, 0.9632055483525619, 0.9796690705697984, 0.9964937233598903, 1.0127398163313046, 1.0298300262074918, 1.0464242791058496, 1.063431203714572, 1.07972542475909, 1.0965541733894497, 1.1130849382607266, 1.129901399021037, 1.1463113318895921, 1.1631950353039429, 1.1797094162320718, 1.1965367995435372, 1.2130771217634901, 1.2298888037912548, 1.246430491330102, 1.263176296139136, 1.2797237862832844, 1.2964945083949715, 1.312732750782743, 1.329865627340041, 1.346334610832855, 1.3631637009093538, 1.3796613564481959, 1.3965095612220466, 1.4131133713526651, 1.4299035493750125, 1.446337717003189, 1.46312823635526, 1.4797893905779347, 1.4965874193003401, 1.513163240160793, 1.5298919782508165]
13	images/0261.jpg	images/0424.jpg	right	2.386	[0.0, 0.0, 0.0, 0.0, 0.0, 0.0, 0.0, 0.0, 0.0, 0.0, 0.0, 0.0, 0.0, 0.0, 0.0, 0.0, 0.0, 0.0, 0.0, 0.0, 0.0, 0.0, 0.0, 0.0, 0.0, 0.0, 0.0, 0.0, 0.0, 0.0, 0.0, 0.0, 0.0, -2.0, -3.0, -3.0, -7.0, -11.0, -13.0, -17.0, -17.0, -5.0, 22.0, 62.0, 142.0, 250.0, 370.0, 507.0, 644.0, 758.0, 850.0, 912.0, 959.0, 959.0, 959.0, 959.0, 959.0, 959.0, 959.0, 959.0, 955.0, 935.0, 905.0, 836.0, 804.0, 689.0, 594.0, 476.0, 335.0, 181.0, 19.0, -151.0, -294.0, -413.0, -506.0, -617.0, -671.0, -710.0, -734.0, -750.0, -758.0, -761.0, -763.0, -763.0, -763.0, -763.0, -763.0, -763.0, -732.0, -652.0, -541.0, -383.0, -182.0, 47.0, 290.0, 522.0, 711.0, 848.0, 927.0, 953.0, 956.0, 956.0, 956.0, 956.0, 955.0, 940.0, 913.0, 858.0, 746.0, 587.0, 371.0, 34.0, -190.0, -370.0, -508.0, -592.0, -636.0, -651.0, -656.0, -656.0, -656.0, -656.0, -652.0, -589.0, -540.0, -327.0, -111.0, 132.0, 358.0, 560.0, 717.0, 796.0, 817.0, 819.0, 819.0, 815.0, 798.0, 782.0, 765.0, 750.0, 741.0, 739.0, 739.0, 739.0]	[-490.0, -490.0, -490.0, -490.0, -490.0, -490.0, -490.0, -490.0, -490.0, -490.0, -490.0, -490.0, -490.0, -490.0, -490.0, -490.0, -490.0, -490.0, -490.0, -490.0, -490.0, -490.0, -490.0, -490.0, -490.0, -490.0, -490.0, -490.0, -490.0, -490.0, -490.0, -490.0, -489.0, -485.0, -482.0, -477.0, -466.0, -453.0, -437.0, -408.0, -324.0, -242.0, -150.0, -51.0, 48.0, 145.0, 231.0, 295.0, 344.0, 366.0, 376.0, 376.0, 375.0, 372.0, 368.0, 368.0, 368.0, 368.0, 368.0, 368.0, 365.0, 361.0, 356.0, 347.0, 340.0, 326.0, 313.0, 301.0, 282.0, 276.0, 276.0, 276.0, 276.0, 276.0, 276.0, 276.0, 276.0, 276.0, 276.0, 276.0, 276.0, 276.0, 276.0, 276.0, 276.0, 276.0, 276.0, 276.0, 284.0, 304.0, 316.0, 331.0, 344.0, 344.0, 344.0, 344.0, 344.0, 344.0, 344.0, 344.0, 344.0, 344.0, 344.0, 344.0, 344.0, 343.0, 342.0, 342.0, 338.0, 338.0, 336.0, 336.0, 336.0, 336.0, 336.0, 336.0, 336.0, 336.0, 335.0, 335.0, 335.0, 335.0, 335.0, 345.0, 347.0, 349.0, 349.0, 349.0, 349.0, 349.0, 349.0, 349.0, 349.0, 349.0, 349.0, 349.0, 345.0, 341.0, 340.0, 337.0, 336.0, 336.0, 336.0, 336.0]	[0.00599370792042464, 0.010158996446989477, 0.014871783321723342, 0.02859849634114653, 0.04485551198013127, 0.06185117259155959, 0.07815768162254244, 0.09527827019337565, 0.11153904057573527, 0.12860194372478873, 0.14483540749642998, 0.16208228934556246, 0.178230419754982, 0.19530390424188226, 0.2117230532458052, 0.22868662851396948, 0.24483475892338902, 0.26188025425653905, 0.2784076057141647, 0.29528482374735177, 0.31165652733761817, 0.32862419867888093, 0.34499487827997655, 0.3619980482617393, 0.37834415188990533, 0.3953104579122737, 0.411795825464651, 0.4286580248735845, 0.4450686404015869, 0.46214553830213845, 0.4783663727575913, 0.4952818200690672, 0.5116985796485096, 0.528558048303239, 0.5450287385610864, 0.5619370179483667, 0.5783073562197387, 0.595248403493315, 0.6117334297159687, 0.6285847064573318, 0.6450243353610858, 0.6621807639021426, 0.6783302596304566, 0.6953378668986261, 0.711728343856521, 0.7286581272492185, 0.7449328922666609, 0.7618889581644908, 0.7783787631196901, 0.7952617837581784, 0.8116338287945837, 0.8286298307357356, 0.8448916249908507, 0.8618934296537191, 0.8783221358899027, 0.8952160793123767, 0.9117089561186731, 0.9286500035086647, 0.9448964378098026, 0.9620398957049474, 0.978421839303337, 0.9952348867664114, 1.011740734335035, 1.0285483202897012, 1.0447469680802897, 1.0617760793538764, 1.0784454254899174, 1.0952550595393404, 1.1117684163618833, 1.1285418691113591, 1.144745295518078, 1.1617546094348654, 1.17832394503057, 1.1951888750772923, 1.2117889305809513, 1.2285685272654518, 1.2448118895990774, 1.2618969795294106, 1.2784536856925115, 1.2952288450906053, 1.3116988526890054, 1.3285463746869937, 1.3448849690612406, 1.3618987203808501, 1.3783492719521746, 1.3952237592311576, 1.411689329543151, 1.4286215021274984, 1.445019147126004, 1.46203255711589, 1.4784568259492517, 1.495299228001386, 1.5118016622727737, 1.5285133336437866, 1.5447659119963646, 1.5619144899537787, 1.5783496814547107, 1.595207784906961, 1.6115603737998754, 1.6285731011303142, 1.6447843781206757, 1.6618974574375898, 1.6783148996764794, 1.6952163523528725, 1.7117409731727093, 1.728697380516678, 1.7447895322693512, 1.7620350487995893, 1.778419381706044, 1.7952706584474072, 1.8116747887106612, 1.8285550787113607, 1.84510973689612, 1.8621064216131344, 1.8784228292061016, 1.8952082286123186, 1.9116891588782892, 1.9285643288167194, 1.945114549715072, 1.9618958531646058, 1.9783713220385835, 1.9952028014231473, 2.011678270297125, 2.0285025817574933, 2.045121069182642, 2.0619283139239997, 2.078385009546764, 2.0952158061554655, 2.1116974190808833, 2.128553133108653, 2.14472891157493, 2.1618549614213407, 2.1783328196033835, 2.1952284696744755, 2.2116445465944707, 2.228562041884288, 2.244959686882794, 2.2618962968699634, 2.2783895151223987, 2.2952349891420454, 2.3116633540485054, 2.3285985987167805, 2.344774377066642, 2.361977568245493]
14	images/0486.jpg	images/0521.jpg	left	1.893	[0.0, 0.0, 0.0, 0.0, 0.0, 0.0, 0.0, 0.0, 0.0, 2.0, 5.0, 6.0, 7.0, 8.0, 9.0, 10.0, 10.0, 10.0, 10.0, 10.0, 10.0, 11.0, 11.0, 11.0, 11.0, 12.0, 12.0, 12.0, 12.0, 12.0, 11.0, 9.0, 9.0, 5.0, 5.0, 5.0, 5.0, 5.0, 5.0, 5.0, 5.0, 5.0, 5.0, 5.0, 5.0, 5.0, 5.0, 5.0, 5.0, 5.0, 6.0, 20.0, 40.0, 65.0, 101.0, 157.0, 235.0, 327.0, 420.0, 507.0, 574.0, 613.0, 656.0, 699.0, 714.0, 720.0, 722.0, 722.0, 722.0, 722.0, 722.0, 722.0, 719.0, 713.0, 701.0, 660.0, 581.0, 436.0, 230.0, -15.0, -277.0, -538.0, -751.0, -900.0, -960.0, -960.0, -960.0, -960.0, -960.0, -960.0, -960.0, -960.0, -960.0, -960.0, -960.0, -960.0, -960.0, -960.0, -960.0, -960.0, -956.0, -942.0, -925.0, -903.0, -871.0, -839.0, -813.0, -798.0, -790.0, -784.0, -781.0, -781.0, -781.0, -781.0]	[-490.0, -490.0, -490.0, -490.0, -490.0, -490.0, -490.0, -490.0, -490.0, -487.0, -486.0, -485.0, -484.0, -484.0, -484.0, -483.0, -483.0, -483.0, -483.0, -483.0, -483.0, -482.0, -482.0, -480.0, -479.0, -477.0, -471.0, -468.0, -456.0, -449.0, -442.0, -437.0, -433.0, -428.0, -426.0, -426.0, -426.0, -426.0, -426.0, -426.0, -426.0, -426.0, -426.0, -426.0, -426.0, -426.0, -426.0, -426.0, -424.0, -420.0, -411.0, -388.0, -362.0, -328.0, -288.0, -238.0, -172.0, -95.0, -18.0, 46.0, 98.0, 137.0, 177.0, 215.0, 229.0, 235.0, 237.0, 238.0, 238.0, 238.0, 238.0, 239.0, 239.0, 239.0, 240.0, 240.0, 239.0, 226.0, 213.0, 213.0, 213.0, 213.0, 213.0, 213.0, 213.0, 213.0, 213.0, 213.0, 213.0, 213.0, 213.0, 213.0, 213.0, 213.0, 213.0, 213.0, 213.0, 213.0, 213.0, 213.0, 213.0, 219.0, 226.0, 237.0, 251.0, 271.0, 285.0, 293.0, 302.0, 306.0, 309.0, 309.0, 309.0, 309.0]	[0.013100946904160082, 0.017212987411767244, 0.026176054845564067, 0.04237709194421768, 0.0595935950987041, 0.07599158131051809, 0.09294525801669806, 0.10924971895292401, 0.1263006755616516, 0.14239692338742316, 0.1595728078391403, 0.17603598884306848, 0.19286542013287544, 0.20931051042862236, 0.22620138176716864, 0.2426164346979931, 0.25957113539334387, 0.2760274895699695, 0.2928729635896161, 0.30930610722862184, 0.326271730591543, 0.3425847248872742, 0.35953055089339614, 0.3759353638160974, 0.3928784590680152, 0.4093156986637041, 0.42618540732655674, 0.44267214031424373, 0.459503278369084, 0.4760504271835089, 0.49291877052746713, 0.509312660782598, 0.5262547321617603, 0.5423779452685267, 0.5595493924338371, 0.575994482729584, 0.5928539513843134, 0.6092693456448615, 0.6262134650023654, 0.6425790245411918, 0.6596043811878189, 0.6759095248999074, 0.6928908495465294, 0.7093168250285089, 0.7263486670562997, 0.7426210426492617, 0.759574378025718, 0.7759839695645496, 0.7928277370519936, 0.8093212965177372, 0.8263688398292288, 0.842636778135784, 0.8595348175149411, 0.875981614459306, 0.8928298191167414, 0.9092646694043651, 0.9262408739887178, 0.9425094950711355, 0.9595085689797997, 0.9757014140486717, 0.9928506745491177, 1.0093128314474598, 1.026196193532087, 1.042615001089871, 1.0595195257337764, 1.0759663226781413, 1.0928609487600625, 1.109301942982711, 1.1261856462806463, 1.14240136067383, 1.1595318479230627, 1.175923690199852, 1.1928377721924335, 1.2093043663771823, 1.2261877284618095, 1.2426341840764508, 1.2595653326716274, 1.276121356175281, 1.292919043567963, 1.3093525285366923, 1.326226674602367, 1.3426605007844046, 1.359436001512222, 1.3759377531241626, 1.3928221390815452, 1.4093143333448097, 1.4262004260672256, 1.442355383071117, 1.4595111289527267, 1.4759603152051568, 1.4928631332004443, 1.5092843301827088, 1.5261683748103678, 1.5426909477682784, 1.5596473549958318, 1.5760118906619027, 1.5929966286057606, 1.609375500236638, 1.6262329209130257, 1.6426950778113678, 1.6595651279203594, 1.6760173861403018, 1.692855350789614, 1.709379289066419, 1.7262455844320357, 1.742362653487362, 1.7594576420960948, 1.7757566417567432, 1.7928314916789532, 1.8093257339205593, 1.8261957839131355, 1.8426692048087716, 1.8595669028582051, 1.8758662438485771]
15	images/0159.jpg	images/0068.jpg	left	1.391	[0.0, 0.0, 0.0, 0.0, 0.0, 0.0, 0.0, 0.0, 0.0, 0.0, 0.0, 0.0, 0.0, 0.0, 0.0, 0.0, 0.0, 0.0, 0.0, 0.0, 0.0, 0.0, 0.0, 0.0, 0.0, 0.0, 0.0, 0.0, 0.0, 0.0, 0.0, 0.0, 0.0, 0.0, 0.0, 0.0, 0.0, 0.0, 0.0, 0.0, 0.0, 0.0, -2.0, -7.0, -8.0, -15.0, -24.0, -35.0, -48.0, -65.0, -86.0, -110.0, -177.0, -207.0, -322.0, -404.0, -497.0, -594.0, -690.0, -784.0, -868.0, -944.0, -960.0, -960.0, -960.0, -960.0, -960.0, -953.0, -944.0, -939.0, -932.0, -926.0, -920.0, -916.0, -912.0, -908.0, -890.0, -870.0, -845.0, -822.0, -808.0, -801.0, -801.0, -801.0]	[-490.0, -490.0, -490.0, -490.0, -490.0, -490.0, -490.0, -490.0, -490.0, -490.0, -490.0, -490.0, -490.0, -490.0, -490.0, -490.0, -490.0, -490.0, -490.0, -490.0, -490.0, -489.0, -488.0, -488.0, -487.0, -487.0, -486.0, -485.0, -485.0, -484.0, -483.0, -483.0, -482.0, -482.0, -481.0, -481.0, -481.0, -480.0, -479.0, -478.0, -475.0, -474.0, -468.0, -458.0, -451.0, -442.0, -430.0, -419.0, -406.0, -390.0, -373.0, -352.0, -301.0, -280.0, -196.0, -135.0, -56.0, 22.0, 104.0, 186.0, 264.0, 343.0, 411.0, 467.0, 523.0, 534.0, 540.0, 540.0, 540.0, 540.0, 540.0, 540.0, 540.0, 540.0, 540.0, 540.0, 540.0, 540.0, 540.0, 540.0, 540.0, 539.0, 538.0, 538.0]	[0.010503060300834477, 0.014446823624894023, 0.021057081525214016, 0.03744721715338528, 0.05439884576480836, 0.07078932272270322, 0.08774675405584276, 0.10414747102186084, 0.12114415562245995, 0.1374632939696312, 0.15431081596761942, 0.17077775148209184, 0.18774917756672949, 0.20413692377042025, 0.22113838710356504, 0.23751111468300223, 0.2544518207432702, 0.2707794923335314, 0.28772019827738404, 0.3041270592948422, 0.32105308794416487, 0.33749032753985375, 0.35437846824061126, 0.37081058777403086, 0.387755389790982, 0.4042120852973312, 0.42099782603327185, 0.43751971633173525, 0.45436792098917067, 0.470777171314694, 0.48779058118816465, 0.5039820609381422, 0.521067492198199, 0.5375733397668228, 0.554394920472987, 0.5708434240659699, 0.5878397673368454, 0.6042182976379991, 0.6210060863522813, 0.6375416298396885, 0.6543775466270745, 0.6705089516472071, 0.6874953963560984, 0.7042674836702645, 0.7210982803953812, 0.7375266453018412, 0.7544994367053732, 0.7708260843064636, 0.7877265129936859, 0.8041975445812568, 0.8210604265332222, 0.8375341888749972, 0.8543574762297794, 0.8705817238660529, 0.8876180031802505, 0.9042221546405926, 0.9210392980603501, 0.937644473509863, 0.9545114516513422, 0.9707985045388341, 0.9876999572152272, 1.004181570140645, 1.021032846882008, 1.0375158251263201, 1.0543401364702731, 1.0707954667741433, 1.087698967428878, 1.104224270908162, 1.1210632596630603, 1.137503229896538, 1.1544767038431019, 1.1708316821604967, 1.1877037802478299, 1.2041713984217495, 1.220995368435979, 1.2375111146830022, 1.2543746794108301, 1.270771982963197, 1.2876993770478293, 1.3041922538541257, 1.3210339732468128, 1.3374821355100721, 1.354388025472872, 1.3705812118714675]
16	images/0490.jpg	images/0154.jpg	right	1.461	[0.0, 0.0, 0.0, 0.0, 0.0, 0.0, 0.0, 0.0, 0.0, 0.0, 0.0, 0.0, 0.0, 0.0, 0.0, 0.0, 0.0, 0.0, 0.0, 0.0, 0.0, 0.0, 0.0, 0.0, 0.0, 0.0, 0.0, 0.0, 0.0, -1.0, -1.0, -2.0, -2.0, -2.0, -3.0, -3.0, -4.0, -7.0, -15.0, -28.0, -45.0, -71.0, -110.0, -192.0, -264.0, -349.0, -429.0, -509.0, -577.0, -643.0, -686.0, -699.0, -700.0, -685.0, -643.0, -563.0, -401.0, -267.0, -129.0, 10.0, 150.0, 262.0, 352.0, 414.0, 453.0, 479.0, 497.0, 521.0, 532.0, 540.0, 545.0, 545.0, 545.0, 545.0, 545.0, 545.0, 546.0, 546.0, 546.0, 548.0, 553.0, 565.0, 583.0, 600.0, 615.0, 624.0, 624.0, 624.0]	[-490.0, -490.0, -490.0, -490.0, -490.0, -490.0, -490.0, -490.0, -490.0, -490.0, -490.0, -490.0, -490.0, -490.0, -490.0, -490.0, -490.0, -490.0, -490.0, -490.0, -490.0, -490.0, -490.0, -490.0, -490.0, -490.0, -490.0, -490.0, -490.0, -490.0, -489.0, -487.0, -486.0, -485.0, -483.0, -482.0, -478.0, -472.0, -460.0, -446.0, -427.0, -402.0, -365.0, -295.0, -234.0, -169.0, -106.0, -44.0, 6.0, 53.0, 89.0, 109.0, 122.0, 136.0, 154.0, 182.0, 228.0, 259.0, 282.0, 303.0, 322.0, 330.0, 330.0, 330.0, 330.0, 328.0, 324.0, 319.0, 318.0, 317.0, 316.0, 316.0, 316.0, 316.0, 316.0, 316.0, 316.0, 316.0, 316.0, 316.0, 316.0, 318.0, 321.0, 322.0, 325.0, 326.0, 326.0, 326.0]	[0.0012522829929366708, 0.006713613518513739, 0.019214257830753922, 0.035693481331691146, 0.0525765020865947, 0.0689990643877536, 0.08596468763425946, 0.10231079126242548, 0.11932761454954743, 0.13567201152909547, 0.1525458162650466, 0.1689427784876898, 0.18596199108287692, 0.20237226539757103, 0.21931604342535138, 0.23567853099666536, 0.25252093304879963, 0.2691063112579286, 0.28618457447737455, 0.3021695476491004, 0.31917647225782275, 0.33563658117782325, 0.3525888924486935, 0.3689786867471412, 0.3859146140748635, 0.4022757363272831, 0.4192502343794331, 0.4356871326453984, 0.452597459894605, 0.46896404353901744, 0.48593649349641055, 0.5020661919843405, 0.5191413832362741, 0.5353973748860881, 0.5524814408272505, 0.5690630642930046, 0.5860792049206793, 0.602240988635458, 0.619330515852198, 0.63559435820207, 0.65253335761372, 0.6690122397849336, 0.6858532765181735, 0.7022488734219223, 0.7192626247415319, 0.735639107064344, 0.7526279409648851, 0.7689088500337675, 0.7859652679180726, 0.8022635849192739, 0.8192131655523553, 0.8353875785833225, 0.8525248925434425, 0.868965886766091, 0.8858342301100492, 0.902061891159974, 0.9191794077632949, 0.9356197193264961, 0.9525170759297907, 0.9689614835660905, 0.9859165255911648, 1.002231226535514, 1.019251463119872, 1.0355931294616312, 1.052486048778519, 1.0689639069605619, 1.0858052850235254, 1.1024285511812195, 1.1192600305657834, 1.1356006729183719, 1.1525202161865309, 1.1689827145310119, 1.1858527645235881, 1.2022664521355182, 1.2192313927225769, 1.2356570269912481, 1.2526363036595285, 1.2690189299173653, 1.2859579292126, 1.3020678303437307, 1.3191860296064988, 1.3356574025237933, 1.3525004872353747, 1.3690984946442768, 1.3859832220477983, 1.402058307081461, 1.4191870876820758, 1.4356840605614707]
17	images/0355.jpg	images/0204.jpg	left	1.234	[0.0, 0.0, 0.0, 0.0, 0.0, 0.0, 0.0, 0.0, 0.0, 0.0, 0.0, 0.0, 0.0, 0.0, 0.0, 0.0, 0.0, 0.0, 0.0, 0.0, 0.0, 0.0, 0.0, 0.0, 0.0, 0.0, 0.0, 0.0, 0.0, -3.0, -7.0, -12.0, -19.0, -26.0, -40.0, -57.0, -81.0, -119.0, -177.0, -260.0, -406.0, -512.0, -612.0, -697.0, -765.0, -814.0, -837.0, -849.0, -851.0, -851.0, -850.0, -848.0, -845.0, -842.0, -827.0, -812.0, -790.0, -766.0, -747.0, -730.0, -723.0, -722.0, -722.0, -722.0, -722.0, -722.0, -722.0, -722.0, -721.0, -720.0, -718.0, -714.0, -713.0, -713.0]	[-490.0, -490.0, -490.0, -490.0, -490.0, -490.0, -490.0, -490.0, -490.0, -490.0, -490.0, -490.0, -490.0, -490.0, -490.0, -490.0, -490.0, -490.0, -490.0, -490.0, -490.0, -490.0, -490.0, -490.0, -490.0, -490.0, -490.0, -490.0, -490.0, -487.0, -481.0, -475.0, -468.0, -460.0, -447.0, -431.0, -410.0, -375.0, -322.0, -248.0, -111.0, -30.0, 38.0, 101.0, 149.0, 183.0, 201.0, 215.0, 224.0, 228.0, 234.0, 236.0, 240.0, 243.0, 251.0, 258.0, 267.0, 278.0, 286.0, 293.0, 296.0, 297.0, 297.0, 297.0, 297.0, 297.0, 297.0, 297.0, 298.0, 298.0, 298.0, 299.0, 300.0, 300.0]	[0.003972332808189094, 0.008449941175058484, 0.024695010273717344, 0.041264687082730234, 0.05762649199459702, 0.07461088872514665, 0.09109864558558911, 0.10790315957274288, 0.12427247397135943, 0.14120532921515405, 0.157659976859577, 0.17453446413856, 0.19096760777756572, 0.2078687191242352, 0.2240581507794559, 0.2410811181180179, 0.25760881102178246, 0.27458194363862276, 0.2909372632857412, 0.30788104119710624, 0.3240772995632142, 0.341110848239623, 0.35767745308112353, 0.37454101780895144, 0.3907741401344538, 0.40787459001876414, 0.42405378178227693, 0.4410412503639236, 0.45740954065695405, 0.4744997506495565, 0.4909318701829761, 0.5078838401241228, 0.5240251439390704, 0.54124574305024, 0.5576962946215644, 0.5744881794089451, 0.5910872109234333, 0.6078487170161679, 0.6243733378360048, 0.641305169207044, 0.6576458114432171, 0.6744967468548566, 0.6909459331072867, 0.7079289644025266, 0.7241050840821117, 0.7410679768072441, 0.757629802916199, 0.7744797143386677, 0.7909428952261806, 0.8078221612377092, 0.8239842862822115, 0.8411444695666432, 0.8576380291488022, 0.8744572204304859, 0.8909275693586096, 0.9077955713728443, 0.9240283524850383, 0.9412189143477008, 0.9577107671648264, 0.9744907052954659, 0.9910538968397304, 1.007830080226995, 1.0243222743738443, 1.0412370391422883, 1.0576223960379139, 1.0745607126737013, 1.0907552643911913, 1.108004535548389, 1.1244315351359546, 1.141289638588205, 1.1576756781432778, 1.1745177388656884, 1.1909607810666785, 1.2079246977809817]
18	images/0094.jpg	images/0309.jpg	left	1.405	[0.0, 0.0, 0.0, 0.0, 1.0, 3.0, 5.0, 6.0, 6.0, 6.0, 6.0, 6.0, 6.0, 6.0, 6.0, 6.0, 6.0, 6.0, 6.0, 6.0, 6.0, 6.0, 6.0, 7.0, 7.0, 7.0, 7.0, 7.0, 7.0, 7.0, 7.0, 7.0, 8.0, 8.0, 8.0, 8.0, -1.0, -22.0, -47.0, -97.0, -164.0, -233.0, -287.0, -351.0, -388.0, -418.0, -435.0, -448.0, -453.0, -460.0, -463.0, -463.0, -463.0, -462.0, -458.0, -451.0, -448.0, -447.0, -446.0, -446.0, -446.0, -446.0, -446.0, -446.0, -456.0, -471.0, -486.0, -494.0, -500.0, -501.0, -501.0, -501.0, -501.0, -501.0, -502.0, -505.0, -515.0, -537.0, -561.0, -574.0, -581.0, -583.0, -583.0, -584.0, -585.0]	[-490.0, -490.0, -490.0, -490.0, -490.0, -490.0, -490.0, -489.0, -489.0, -489.0, -489.0, -489.0, -489.0, -489.0, -489.0, -489.0, -489.0, -489.0, -489.0, -489.0, -489.0, -489.0, -489.0, -489.0, -489.0, -489.0, -488.0, -487.0, -487.0, -485.0, -483.0, -480.0, -475.0, -470.0, -462.0, -451.0, -433.0, -406.0, -382.0, -338.0, -282.0, -228.0, -179.0, -101.0, -34.0, 16.0, 54.0, 89.0, 112.0, 134.0, 150.0, 161.0, 170.0, 178.0, 187.0, 201.0, 205.0, 210.0, 212.0, 214.0, 214.0, 215.0, 215.0, 217.0, 220.0, 225.0, 230.0, 234.0, 237.0, 238.0, 238.0, 238.0, 238.0, 238.0, 238.0, 239.0, 242.0, 246.0, 249.0, 253.0, 256.0, 258.0, 258.0, 259.0, 259.0]	[0.009042154182679951, 0.012926184223033488, 0.018086800235323608, 0.034402866614982486, 0.050683092908002436, 0.06777227879501879, 0.08421532111242414, 0.10108810174278915, 0.1175280719762668, 0.1344274766743183, 0.1506800550268963, 0.16748047317378223, 0.18428737646900117, 0.2011000826023519, 0.21763733273837715, 0.23442375613376498, 0.2507094438187778, 0.26756822993047535, 0.28431096265558153, 0.30108578072395176, 0.31736259371973574, 0.3344633849337697, 0.3507128913188353, 0.36758430663030595, 0.384046463528648, 0.40128617745358497, 0.4175824463600293, 0.43440197908785194, 0.4507852881215513, 0.46779733267612755, 0.48421682289335877, 0.5010346489725634, 0.517517285887152, 0.5344115706393495, 0.5507266129134223, 0.567715788143687, 0.5842243664665148, 0.6010404857806861, 0.6175272186519578, 0.6343542607501149, 0.6508696656674147, 0.6677165050059557, 0.6839468966936693, 0.7010248185833916, 0.7175050661899149, 0.73436316952575, 0.750802798429504, 0.767777296481654, 0.7842438906664029, 0.8010634233942255, 0.8175726842600852, 0.8343874383717775, 0.8508198992349207, 0.8677199865924194, 0.8841923834988847, 0.9010306895943359, 0.9174856784520671, 0.934407269814983, 0.9508161786943674, 0.9678026234032586, 0.9843043748987839, 1.0010423290077597, 1.0175171152222902, 1.0343690746231005, 1.05064452229999, 1.0676770468708128, 1.0841934757772833, 1.1010232485132292, 1.1176192079437897, 1.1344329380663112, 1.1506489937892184, 1.1676473850384355, 1.1840917925583199, 1.2010543439537287, 1.2175263995304704, 1.2344015694689006, 1.2506613158620894, 1.2677211471600458, 1.2841870586853474, 1.3012257273076102, 1.3174820602871478, 1.334464750252664, 1.3509637712268159, 1.3677215225761756, 1.3841396474745125]
19	images/0593.jpg	images/0444.jpg	left	0.977	[0.0, 0.0, 0.0, 0.0, 0.0, 0.0, 0.0, 0.0, 0.0, 0.0, 0.0, 0.0, 0.0, 0.0, 0.0, 0.0, 0.0, 0.0, 0.0, 0.0, 0.0, 0.0, 0.0, 0.0, -1.0, -4.0, -8.0, -12.0, -18.0, -30.0, -43.0, -61.0, -95.0, -131.0, -174.0, -222.0, -279.0, -332.0, -371.0, -402.0, -419.0, -429.0, -434.0, -438.0, -441.0, -453.0, -464.0, -480.0, -503.0, -531.0, -562.0, -609.0, -646.0, -677.0, -698.0, -709.0, -710.0, -710.0, -710.0]	[-490.0, -490.0, -490.0, -490.0, -491.0, -491.0, -491.0, -491.0, -491.0, -491.0, -491.0, -491.0, -490.0, -489.0, -487.0, -487.0, -486.0, -485.0, -484.0, -483.0, -479.0, -477.0, -472.0, -467.0, -461.0, -454.0, -445.0, -433.0, -423.0, -410.0, -397.0, -380.0, -350.0, -317.0, -279.0, -237.0, -188.0, -137.0, -89.0, -42.0, -2.0, 32.0, 60.0, 98.0, 110.0, 152.0, 177.0, 206.0, 237.0, 273.0, 307.0, 341.0, 367.0, 385.0, 396.0, 402.0, 402.0, 402.0, 402.0]	[0.008244458702392876, 0.013001277577131987, 0.017698704497888684, 0.033273736597038805, 0.050218879827298224, 0.06644107960164547, 0.08367840410210192, 0.09995009703561664, 0.11685120838228613, 0.13327274669427425, 0.150251682032831, 0.16633837239351124, 0.18357808631844819, 0.20007915515452623, 0.2168461225228384, 0.23323659948073328, 0.25013020157348365, 0.26660976640414447, 0.28358870174270123, 0.2999272960005328, 0.31688472733367234, 0.3332782762590796, 0.3502974888542667, 0.36631147540174425, 0.3835723518859595, 0.4000461141113192, 0.416892270790413, 0.43304210784845054, 0.4501821524463594, 0.4663214081665501, 0.4834402900887653, 0.49995774298440665, 0.5168540755985305, 0.5333182805916294, 0.5502327039139345, 0.5668115967418998, 0.5835515988292173, 0.5997147478628904, 0.6168568404391408, 0.6330561707727611, 0.6501282900571823, 0.6665638230042532, 0.6834925822913647, 0.6999513258924708, 0.716868138522841, 0.7332019541645423, 0.7502399401273578, 0.7665744384285063, 0.783504904480651, 0.7999718399951234, 0.8168060500174761, 0.8332504576537758, 0.8501573716057464, 0.8663191553205252, 0.8834837758913636, 0.8999210154870525, 0.9169450068147853, 0.933274726383388, 0.9502260137815028]
20	images/0108.jpg	images/0155.jpg	right	1.695	[0.0, 0.0, 0.0, 0.0, 0.0, 0.0, 0.0, 0.0, 0.0, 0.0, 0.0, 0.0, 0.0, 0.0, -1.0, -1.0, -2.0, -2.0, -6.0, -10.0, -15.0, -34.0, -59.0, -96.0, -157.0, -226.0, -305.0, -387.0, -482.0, -584.0, -684.0, -777.0, -887.0, -927.0, -940.0, -941.0, -941.0, -939.0, -926.0, -895.0, -814.0, -697.0, -555.0, -382.0, -193.0, 110.0, 296.0, 453.0, 585.0, 690.0, 760.0, 794.0, 803.0, 804.0, 804.0, 804.0, 804.0, 802.0, 786.0, 754.0, 700.0, 602.0, 488.0, 368.0, 236.0, 101.0, -8.0, -86.0, -153.0, -171.0, -181.0, -185.0, -185.0, -185.0, -185.0, -185.0, -185.0, -182.0, -166.0, -142.0, -65.0, 10.0, 102.0, 201.0, 315.0, 421.0, 519.0, 616.0, 695.0, 733.0, 748.0, 749.0, 749.0, 749.0, 749.0, 748.0, 744.0, 742.0, 742.0, 742.0, 742.0, 742.0]	[-490.0, -490.0, -490.0, -490.0, -490.0, -490.0, -490.0, -490.0, -490.0, -490.0, -490.0, -490.0, -489.0, -488.0, -486.0, -484.0, -479.0, -475.0, -465.0, -452.0, -434.0, -388.0, -341.0, -280.0, -195.0, -115.0, -23.0, 71.0, 162.0, 254.0, 336.0, 409.0, 495.0, 529.0, 540.0, 540.0, 540.0, 540.0, 540.0, 538.0, 527.0, 511.0, 500.0, 494.0, 472.0, 429.0, 405.0, 383.0, 364.0, 353.0, 346.0, 346.0, 346.0, 346.0, 346.0, 346.0, 346.0, 345.0, 342.0, 340.0, 340.0, 340.0, 336.0, 332.0, 332.0, 332.0, 332.0, 332.0, 332.0, 332.0, 332.0, 331.0, 331.0, 331.0, 331.0, 331.0, 331.0, 331.0, 333.0, 336.0, 347.0, 356.0, 367.0, 374.0, 378.0, 380.0, 380.0, 380.0, 380.0, 380.0, 380.0, 380.0, 380.0, 380.0, 380.0, 380.0, 380.0, 380.0, 379.0, 379.0, 379.0, 379.0]	[0.016519022989086807, 0.021234881947748363, 0.032730641309171915, 0.04954880871810019, 0.06578807509504259, 0.08287623699288815, 0.0991469060536474, 0.11614086001645774, 0.13241391826886684, 0.1496020908234641, 0.16608916502445936, 0.18281244183890522, 0.19924319605343044, 0.21625148609746248, 0.23263138171751052, 0.24952395970467478, 0.2657598126679659, 0.2828827906632796, 0.29932412621565163, 0.31612556823529303, 0.3323938479879871, 0.34946972189936787, 0.365761894849129, 0.3828251394443214, 0.39937194692902267, 0.41632596496492624, 0.43257786065805703, 0.44955133460462093, 0.4659267929382622, 0.4829507841495797, 0.4992398851318285, 0.5161969751352444, 0.5325874520931393, 0.549797811312601, 0.5659326297463849, 0.5828968876739964, 0.5992784899426624, 0.61627312656492, 0.6324915715958923, 0.6494315949967131, 0.6659268611110747, 0.6827941805822775, 0.6992508760886267, 0.7161670060595497, 0.7323806724743918, 0.7494312877533957, 0.7659234820166603, 0.7828375640092418, 0.7993283928371966, 0.8163547734729946, 0.832629538490437, 0.8493849005317315, 0.865762748173438, 0.882843742147088, 0.8992843950400129, 0.91618243441917, 0.9323578714393079, 0.9494965506019071, 0.9660140034975484, 0.9828420695848763, 0.9993055918021128, 1.016297156456858, 1.0323783855419606, 1.0495027287397534, 1.066112682921812, 1.0828779436415061, 1.0991008260753006, 1.1160845400299877, 1.1323988996446133, 1.1494839895749465, 1.166039330419153, 1.1828370178118348, 1.1993203373858705, 1.2161702488083392, 1.232672341633588, 1.2495427330723032, 1.2658338820328936, 1.2828476333525032, 1.2993097902508453, 1.3162446935893968, 1.332382583990693, 1.3494004312669858, 1.365697724162601, 1.3828589314362034, 1.3993907202966511, 1.4163344983244315, 1.4323792047798634, 1.4494687319966033, 1.4659291822463274, 1.482852821587585, 1.4993006425211206, 1.516169668524526, 1.5327369560254738, 1.5495042647235096, 1.5659387736814097, 1.5828327169874683, 1.5993436846183613, 1.6163202305324376, 1.6326106968335807, 1.6495118081802502, 1.6659842050867155, 1.6829508524388075]
21	images/0064.jpg	images/0399.jpg	right	1.415	[0.0, 0.0, 0.0, 0.0, 0.0, 0.0, 0.0, 0.0, 0.0, 0.0, 0.0, 0.0, 0.0, 0.0, 0.0, 0.0, 0.0, 0.0, 0.0, 0.0, 0.0, 0.0, 0.0, 0.0, 0.0, 0.0, 0.0, 0.0, -2.0, -4.0, -6.0, -11.0, -18.0, -23.0, -31.0, -41.0, -57.0, -74.0, -99.0, -125.0, -156.0, -181.0, -203.0, -218.0, -219.0, -217.0, -205.0, -189.0, -168.0, -135.0, -96.0, -47.0, 20.0, 95.0, 214.0, 301.0, 392.0, 478.0, 569.0, 656.0, 724.0, 781.0, 830.0, 862.0, 879.0, 886.0, 892.0, 893.0, 893.0, 892.0, 880.0, 866.0, 851.0, 833.0, 817.0, 807.0, 795.0, 785.0, 766.0, 750.0, 736.0, 727.0, 725.0, 725.0, 725.0]	[-490.0, -490.0, -490.0, -490.0, -490.0, -490.0, -490.0, -490.0, -490.0, -489.0, -488.0, -486.0, -485.0, -484.0, -483.0, -483.0, -483.0, -483.0, -483.0, -483.0, -482.0, -482.0, -482.0, -482.0, -481.0, -481.0, -479.0, -479.0, -476.0, -474.0, -470.0, -466.0, -461.0, -457.0, -449.0, -443.0, -432.0, -419.0, -404.0, -388.0, -364.0, -344.0, -318.0, -284.0, -261.0, -239.0, -217.0, -198.0, -176.0, -154.0, -132.0, -111.0, -85.0, -63.0, -30.0, -6.0, 13.0, 37.0, 58.0, 85.0, 104.0, 120.0, 134.0, 147.0, 155.0, 162.0, 171.0, 178.0, 184.0, 190.0, 198.0, 206.0, 215.0, 222.0, 229.0, 232.0, 237.0, 241.0, 249.0, 255.0, 261.0, 265.0, 266.0, 266.0, 266.0]	[0.004921580315567553, 0.010301673552021384, 0.026576097239740193, 0.043338968651369214, 0.059658448211848736, 0.07670872216112912, 0.09316575911361724, 0.11003922251984477, 0.12637747544795275, 0.14338064542971551, 0.1600004981737584, 0.17686099093407393, 0.19304427865426987, 0.21001775260083377, 0.2265717281261459, 0.2434363168431446, 0.2596701218280941, 0.27661526517476887, 0.2930190541082993, 0.30993825616315007, 0.32655742624774575, 0.3433793482836336, 0.3598964598495513, 0.37672213662881404, 0.39304400561377406, 0.40996866894420236, 0.4265543883666396, 0.44336538785137236, 0.4598903500009328, 0.47674913599621505, 0.49322358099743724, 0.5100690550170839, 0.5265755852451548, 0.5434306166134775, 0.5598582988604903, 0.5767416608287022, 0.593049876508303, 0.6100114037981257, 0.626472536707297, 0.6433453174540773, 0.6598702796036378, 0.6766662603477016, 0.6931956599000841, 0.7099998326739296, 0.7266186614288017, 0.7434262474998832, 0.7598283297847956, 0.7767779104178771, 0.7930919287027791, 0.809992698719725, 0.82646031701006, 0.8433068150188774, 0.8597778466064483, 0.8766461899504066, 0.8931506722001359, 0.9099780555116013, 0.9264552311506122, 0.9433252811431885, 0.9598068940686062, 0.9766663627233356, 0.9930476236622781, 1.010074004298076, 1.0264825719641522, 1.04328367265407, 1.0597581175388768, 1.0766687862342224, 1.0929309219354764, 1.1098313506226987, 1.1262334327911958, 1.1433202294865623, 1.1598110583145171, 1.1768121803179383, 1.1928910200949758, 1.2098361633252352, 1.2264775201911107, 1.2433977462351322, 1.2597564791794866, 1.2766876277746633, 1.2929234808543697, 1.3099986721063033, 1.3264400076586753, 1.3433428256539628, 1.3597715318901464, 1.3766845898935571, 1.393127973540686]
22	images/0054.jpg	images/0587.jpg	left	2.159	[0.0, 0.0, 0.0, 0.0, 0.0, 0.0, 0.0, 0.0, 0.0, 0.0, 0.0, 0.0, 0.0, 0.0, 0.0, 0.0, 0.0, 0.0, 0.0, 0.0, 0.0, 0.0, 0.0, 0.0, 0.0, 0.0, 0.0, 0.0, 0.0, 0.0, 0.0, 0.0, 0.0, 0.0, 0.0, 0.0, 0.0, 0.0, 0.0, -1.0, -5.0, -8.0, -16.0, -37.0, -64.0, -97.0, -134.0, -168.0, -200.0, -254.0, -308.0, -362.0, -408.0, -454.0, -499.0, -535.0, -591.0, -624.0, -653.0, -681.0, -708.0, -740.0, -769.0, -800.0, -822.0, -844.0, -857.0, -866.0, -866.0, -866.0, -867.0, -865.0, -853.0, -838.0, -815.0, -776.0, -714.0, -627.0, -514.0, -397.0, -211.0, -72.0, 65.0, 206.0, 337.0, 446.0, 549.0, 631.0, 688.0, 721.0, 736.0, 738.0, 738.0, 733.0, 706.0, 654.0, 578.0, 491.0, 402.0, 310.0, 215.0, 125.0, 52.0, -30.0, -63.0, -91.0, -115.0, -139.0, -164.0, -193.0, -231.0, -270.0, -308.0, -344.0, -365.0, -390.0, -410.0, -439.0, -485.0, -532.0, -573.0, -603.0, -625.0, -630.0, -631.0, -631.0, -631.0, -631.0, -631.0, -631.0]	[-490.0, -490.0, -490.0, -490.0, -490.0, -490.0, -490.0, -490.0, -490.0, -490.0, -490.0, -490.0, -490.0, -490.0, -490.0, -490.0, -490.0, -490.0, -490.0, -490.0, -490.0, -490.0, -490.0, -490.0, -490.0, -489.0, -489.0, -489.0, -489.0, -489.0, -489.0, -489.0, -488.0, -487.0, -485.0, -485.0, -483.0, -480.0, -476.0, -471.0, -461.0, -452.0, -439.0, -405.0, -360.0, -306.0, -254.0, -210.0, -168.0, -113.0, -60.0, -13.0, 26.0, 66.0, 103.0, 130.0, 170.0, 192.0, 209.0, 224.0, 239.0, 253.0, 265.0, 275.0, 284.0, 291.0, 296.0, 298.0, 298.0, 298.0, 299.0, 299.0, 301.0, 303.0, 307.0, 308.0, 308.0, 308.0, 308.0, 308.0, 308.0, 305.0, 290.0, 269.0, 259.0, 253.0, 251.0, 249.0, 249.0, 249.0, 249.0, 249.0, 249.0, 249.0, 249.0, 249.0, 249.0, 249.0, 249.0, 249.0, 249.0, 249.0, 249.0, 249.0, 249.0, 249.0, 249.0, 249.0, 247.0, 246.0, 246.0, 246.0, 246.0, 246.0, 248.0, 252.0, 254.0, 259.0, 265.0, 272.0, 278.0, 285.0, 295.0, 299.0, 299.0, 299.0, 300.0, 300.0, 300.0, 300.0]	[0.013773031998425722, 0.01777925924398005, 0.02775472088251263, 0.044181037810631096, 0.06098111451137811, 0.07720058353152126, 0.09438773209694773, 0.11073690769262612, 0.127676589647308, 0.14404761069454253, 0.160987633978948, 0.17731667088810354, 0.19434987823478878, 0.21049084060359746, 0.227340069366619, 0.24405720212962478, 0.26103272405453026, 0.27734913176391274, 0.2943738056346774, 0.31048473075497895, 0.3274298741016537, 0.34406406292691827, 0.36098975024651736, 0.377371693844907, 0.3944540531374514, 0.4104577995603904, 0.42751660686917603, 0.444172982359305, 0.4609672563383356, 0.477359781274572, 0.49441244453191757, 0.5105390710523352, 0.5276316702365875, 0.5439815284917131, 0.5610509171383455, 0.577385415439494, 0.5944309106562287, 0.6104906358523294, 0.6275549044366926, 0.6441136585781351, 0.6609492340357974, 0.677248916355893, 0.6942718835780397, 0.7107988938223571, 0.7277276531094685, 0.7438143435865641, 0.7610421107383445, 0.7774039156502113, 0.794350765645504, 0.8106402079574764, 0.8277676232391968, 0.8440911988727748, 0.8609441822627559, 0.8773435339098796, 0.8942637598374858, 0.9106675487710163, 0.9276580894365907, 0.943984737037681, 0.9609343176707625, 0.9774128586286679, 0.9943354739807546, 1.0106904522981495, 1.0275843956042081, 1.0440468938322738, 1.0609309385763481, 1.0773886580718681, 1.0942273054970428, 1.110745782381855, 1.1276352884015068, 1.1439827573485672, 1.1609719326952472, 1.1774613962043077, 1.1942693236051127, 1.2107348938006908, 1.227571493247524, 1.2440749513916671, 1.260944660170935, 1.2774003316881135, 1.2941731017781422, 1.3108291359385476, 1.3275479753501713, 1.3440248095430434, 1.360935478238389, 1.3774508831556886, 1.3942451572511345, 1.4104182049632072, 1.4275937480852008, 1.4440896969754249, 1.4609030857682228, 1.477414394612424, 1.494281372637488, 1.5108298868872225, 1.527771616820246, 1.5440347765106708, 1.5609881118871272, 1.5773884874070063, 1.594241812126711, 1.6104636704549193, 1.6275897204177454, 1.643947429372929, 1.6609663006383926, 1.6774414281826466, 1.694286219542846, 1.7104804299306124, 1.7275986291933805, 1.7442017566645518, 1.76101992407348, 1.777418251731433, 1.7942534857429564, 1.810457936138846, 1.827610609936528, 1.8440734496107325, 1.8609141448978335, 1.8773547979071736, 1.8944514930481091, 1.9108457247493789, 1.9276850547175854, 1.9440833823755383, 1.960936707095243, 1.9773575626313686, 1.9942177140619606, 2.010442985687405, 2.027635595528409, 2.044045187183656, 2.060950053157285, 2.077167132869363, 2.094256660086103, 2.110490123857744, 2.1276042270474136, 2.1440711626783013]
23	images/0187.jpg	images/0468.jpg	right	1.243	[0.0, 0.0, 0.0, 0.0, 0.0, 0.0, -2.0, -2.0, -2.0, -2.0, -2.0, -2.0, -2.0, -2.0, -2.0, -2.0, -2.0, -2.0, -2.0, -2.0, -2.0, -3.0, -3.0, -3.0, -4.0, -4.0, -5.0, -5.0, -5.0, -6.0, -6.0, -6.0, -6.0, -6.0, -5.0, 0.0, 8.0, 15.0, 22.0, 43.0, 66.0, 96.0, 176.0, 243.0, 319.0, 387.0, 422.0, 436.0, 442.0, 443.0, 443.0, 436.0, 419.0, 393.0, 367.0, 366.0, 366.0, 365.0, 369.0, 387.0, 416.0, 457.0, 510.0, 563.0, 607.0, 641.0, 664.0, 685.0, 691.0, 692.0, 693.0, 693.0, 693.0, 693.0, 693.0]	[-490.0, -490.0, -490.0, -490.0, -490.0, -490.0, -489.0, -489.0, -488.0, -487.0, -484.0, -484.0, -483.0, -483.0, -482.0, -482.0, -482.0, -482.0, -481.0, -479.0, -477.0, -476.0, -475.0, -474.0, -473.0, -472.0, -471.0, -470.0, -469.0, -469.0, -468.0, -468.0, -463.0, -458.0, -445.0, -429.0, -406.0, -385.0, -358.0, -293.0, -248.0, -209.0, -136.0, -84.0, -29.0, 17.0, 51.0, 71.0, 84.0, 88.0, 91.0, 94.0, 100.0, 103.0, 107.0, 107.0, 107.0, 108.0, 113.0, 125.0, 140.0, 157.0, 179.0, 206.0, 229.0, 249.0, 263.0, 284.0, 295.0, 304.0, 309.0, 312.0, 313.0, 313.0, 313.0]	[0.015836356673389673, 0.02200015087146312, 0.03167762863449752, 0.048517299932427704, 0.06492143019568175, 0.08184029092080891, 0.0981536265462637, 0.11514655651990324, 0.1315851614344865, 0.14852074743248522, 0.1648863070877269, 0.18193931167479604, 0.19814273808151484, 0.21509368403349072, 0.23155276896432042, 0.24849688820540905, 0.26489385054446757, 0.2817652658559382, 0.2979656202951446, 0.31509679020382464, 0.33154256304260343, 0.3485843036323786, 0.36471536743920296, 0.38181513466406614, 0.3979557557031512, 0.4150084189604968, 0.431267824023962, 0.4484321032650769, 0.4649328307714313, 0.48181994748301804, 0.49798412050586194, 0.51515249570366, 0.5315982686588541, 0.5484072200488299, 0.5649058995768428, 0.5818254429614171, 0.5979711839463562, 0.6151446792064235, 0.631460745469667, 0.6484250035136938, 0.6648629257688299, 0.6817544797668234, 0.6980428980896249, 0.7151129693957046, 0.7315942408749834, 0.7484909149352461, 0.764918597182259, 0.7818593031261116, 0.7979511135490611, 0.8150655581848696, 0.831355000496842, 0.8484424797352403, 0.8648653833661228, 0.8817477213451639, 0.8983341235434636, 0.9151802802225575, 0.9315543732373044, 0.9484384178649634, 0.9649292468093336, 0.9818931634072214, 0.9979337739059702, 1.0151492530712858, 1.0315885406453162, 1.0485323186730966, 1.0648408755660057, 1.0817116083344445, 1.0979457546491176, 1.1150059272767976, 1.1314875402022153, 1.1484149341704324, 1.164628941914998, 1.18174611707218, 1.1979457888519391, 1.2149769481038675, 1.231495083658956]
24	images/0193.jpg	images/0554.jpg	left	1.764	[0.0, 0.0, 0.0, 0.0, 0.0, 0.0, 0.0, 1.0, 1.0, 1.0, 1.0, 1.0, 1.0, 1.0, 1.0, 1.0, 1.0, 1.0, 1.0, 1.0, 1.0, 1.0, 1.0, 1.0, 1.0, 1.0, 1.0, 1.0, 1.0, 1.0, 1.0, 1.0, 1.0, 1.0, 1.0, 1.0, 1.0, 1.0, 1.0, 1.0, 1.0, 1.0, 1.0, -1.0, -4.0, -9.0, -14.0, -18.0, -21.0, -23.0, -27.0, -30.0, -32.0, -34.0, -38.0, -44.0, -49.0, -53.0, -55.0, -55.0, -55.0, -51.0, -40.0, -21.0, -6.0, 5.0, 12.0, 18.0, 20.0, 20.0, 20.0, 20.0, 19.0, 5.0, -16.0, -48.0, -89.0, -159.0, -246.0, -394.0, -493.0, -577.0, -641.0, -688.0, -718.0, -735.0, -744.0, -750.0, -752.0, -752.0, -752.0, -742.0, -737.0, -733.0, -729.0, -728.0, -724.0, -721.0, -717.0, -715.0, -712.0, -709.0, -706.0, -706.0, -706.0, -706.0]	[-490.0, -489.0, -489.0, -489.0, -489.0, -489.0, -489.0, -489.0, -489.0, -489.0, -489.0, -489.0, -489.0, -489.0, -489.0, -489.0, -489.0, -489.0, -489.0, -489.0, -489.0, -489.0, -489.0, -489.0, -489.0, -489.0, -489.0, -489.0, -489.0, -489.0, -489.0, -489.0, -489.0, -489.0, -489.0, -489.0, -489.0, -489.0, -489.0, -489.0, -489.0, -489.0, -488.0, -478.0, -469.0, -456.0, -448.0, -441.0, -435.0, -431.0, -426.0, -423.0, -420.0, -417.0, -413.0, -404.0, -395.0, -385.0, -376.0, -365.0, -353.0, -332.0, -309.0, -278.0, -254.0, -235.0, -222.0, -210.0, -206.0, -204.0, -203.0, -203.0, -200.0, -196.0, -193.0, -182.0, -168.0, -151.0, -124.0, -83.0, -46.0, -8.0, 28.0, 62.0, 89.0, 110.0, 128.0, 142.0, 153.0, 161.0, 170.0, 186.0, 198.0, 211.0, 223.0, 236.0, 247.0, 260.0, 270.0, 280.0, 289.0, 297.0, 302.0, 303.0, 303.0, 303.0]	[0.003375341184437275, 0.007188373943790793, 0.023208504426293075, 0.03969182400032878, 0.05690627917647362, 0.0730233482317999, 0.09012721141334623, 0.10623677121475339, 0.12332561577204615, 0.13957478082738817, 0.15678752935491502, 0.173088576993905, 0.19006751233246177, 0.20624943461734802, 0.22334100992884487, 0.2397454815218225, 0.25680087541695684, 0.27317189634777606, 0.290017370483838, 0.30638566077686846, 0.3234533426584676, 0.3396895370678976, 0.3568603015737608, 0.3731337012723088, 0.3901078578783199, 0.4062358496012166, 0.4234714674530551, 0.4398469257866964, 0.456886276951991, 0.4731176927452907, 0.4901512413052842, 0.5065608329605311, 0.523479693569243, 0.5397988319164142, 0.556876412476413, 0.5731685854261741, 0.5901345501188189, 0.6066264030523598, 0.6235244423151016, 0.6398285620380193, 0.6567836039466783, 0.673218454234302, 0.6900233096675947, 0.7062332213390619, 0.7232688179938123, 0.739548361627385, 0.7566948914900422, 0.772990136523731, 0.7901035570539534, 0.8062148235039786, 0.8233248307369649, 0.839573995792307, 0.8567614855710417, 0.873196677188389, 0.8901496712351218, 0.906477342825383, 0.9234293127665296, 0.9398576776729897, 0.9567768797278404, 0.9732298206072301, 0.990122057381086, 1.0061961184255779, 1.023449144209735, 1.0396013706922531, 1.0567301511764526, 1.0731380361830816, 1.0900323208188638, 1.1062698805471882, 1.1233163997530937, 1.1396785461110994, 1.1567800199845806, 1.1731930249370635, 1.1902047281619161, 1.206169221433811, 1.223382652620785, 1.2395184949273244, 1.2567534301197156, 1.2731350323883817, 1.290109189110808, 1.3062658527633175, 1.3234864519909024, 1.3395352544030175, 1.3567585842683911, 1.372885552002117, 1.3900890845106915, 1.4061829429119825, 1.423326742136851, 1.4397960670758039, 1.4567203890765086, 1.473107794066891, 1.490037918672897, 1.5065864329226315, 1.5233424776233733, 1.5397500213002786, 1.556730663171038, 1.5731474228668958, 1.5899789022514597, 1.6065588190685958, 1.6233244211180136, 1.6397517620353028, 1.6566405853955075, 1.673110251664184, 1.6899704029783607, 1.706478298525326, 1.7233210419071838, 1.7397043508244678]
25	images/0258.jpg	images/0454.jpg	right	1.707	[0.0, 0.0, 0.0, 0.0, 0.0, 0.0, 0.0, 0.0, 0.0, 0.0, 0.0, 0.0, 0.0, 0.0, 0.0, 0.0, 0.0, 0.0, 0.0, 0.0, 0.0, 0.0, 0.0, 0.0, 0.0, 0.0, 0.0, 0.0, 0.0, 0.0, 0.0, 0.0, 0.0, 0.0, 0.0, 0.0, 0.0, 0.0, 0.0, 0.0, 0.0, 0.0, 0.0, 0.0, 0.0, 0.0, 0.0, 0.0, 0.0, -3.0, -11.0, -24.0, -43.0, -80.0, -113.0, -161.0, -212.0, -265.0, -322.0, -378.0, -429.0, -479.0, -529.0, -581.0, -644.0, -679.0, -711.0, -738.0, -757.0, -771.0, -781.0, -786.0, -786.0, -786.0, -780.0, -765.0, -744.0, -691.0, -631.0, -550.0, -447.0, -307.0, -140.0, 33.0, 192.0, 319.0, 417.0, 501.0, 552.0, 592.0, 600.0, 602.0, 602.0, 604.0, 604.0, 607.0, 613.0, 616.0, 619.0, 619.0, 620.0, 620.0, 620.0]	[-490.0, -490.0, -490.0, -490.0, -490.0, -490.0, -490.0, -490.0, -490.0, -490.0, -490.0, -490.0, -490.0, -490.0, -490.0, -490.0, -490.0, -490.0, -490.0, -490.0, -490.0, -490.0, -490.0, -490.0, -490.0, -490.0, -490.0, -490.0, -490.0, -490.0, -490.0, -490.0, -490.0, -490.0, -490.0, -490.0, -490.0, -490.0, -490.0, -490.0, -490.0, -490.0, -490.0, -490.0, -490.0, -490.0, -490.0, -490.0, -485.0, -478.0, -468.0, -452.0, -432.0, -398.0, -366.0, -326.0, -282.0, -237.0, -188.0, -144.0, -90.0, -28.0, 19.0, 68.0, 125.0, 154.0, 181.0, 205.0, 221.0, 232.0, 241.0, 248.0, 251.0, 253.0, 258.0, 264.0, 272.0, 287.0, 303.0, 314.0, 328.0, 343.0, 345.0, 345.0, 345.0, 345.0, 345.0, 345.0, 345.0, 345.0, 346.0, 346.0, 346.0, 347.0, 347.0, 348.0, 349.0, 350.0, 351.0, 351.0, 352.0, 352.0, 352.0]	[0.012003185343928635, 0.01698835613206029, 0.02334807557053864, 0.040379576152190566, 0.05680828238837421, 0.07373567635659128, 0.08993534813635051, 0.10702282737474889, 0.12342456832993776, 0.1403307996224612, 0.1565458313561976, 0.1735438812756911, 0.19003129680640996, 0.2070115974638611, 0.2234590770676732, 0.24034175637643784, 0.2565011507831514, 0.2737098033539951, 0.2901528455549851, 0.306995588936843, 0.32339801255147904, 0.3403520305873826, 0.3565407795831561, 0.3736606854945421, 0.3900695943739265, 0.4070724230259657, 0.4234120413893834, 0.4403660593088716, 0.45648756576702, 0.47362556227017194, 0.49015905789565295, 0.5069949745666236, 0.5233697501244023, 0.5403353734873235, 0.5564828212372959, 0.5736170631134883, 0.5900010546902195, 0.607003542012535, 0.6234179122839123, 0.6403248262358829, 0.6565067486371845, 0.6735529266297817, 0.6900864221388474, 0.7070319068152457, 0.7234486663946882, 0.7403535323683172, 0.7564873268129304, 0.7736048434162512, 0.7901315122144297, 0.807080410188064, 0.8233770205406472, 0.8404034011764452, 0.856498283566907, 0.8735833734972402, 0.8900864904280752, 0.9070220764260739, 0.9235002759378403, 0.9403686192817986, 0.9564757897751406, 0.9736670342972502, 0.9900114312767982, 1.0069330226397142, 1.0233798194676638, 1.0403590961359441, 1.056513711810112, 1.0735004978487268, 1.0901759879197925, 1.1070149766746908, 1.1233528882730752, 1.140315439668484, 1.156476199394092, 1.1735592412296683, 1.1901555421063676, 1.206911928136833, 1.223402074421756, 1.2402410631766543, 1.2564871561480686, 1.2734637020621449, 1.2899210803443566, 1.3069402929395437, 1.3234638898866251, 1.3405390811385587, 1.356530539575033, 1.3736337202135473, 1.3899927944876254, 1.4069966471288353, 1.423279604059644, 1.4402206514496356, 1.45682787487749, 1.4736098609864712, 1.4900351539254189, 1.5069475292693824, 1.5233834035461769, 1.540393058792688, 1.5568262023152784, 1.5735788338351995, 1.5900444040307775, 1.6070076379692182, 1.6233581790002063, 1.6402562183793634, 1.6565224500373006, 1.6735150386812165, 1.6899372595362365]
26	images/0583.jpg	images/0199.jpg	right	1.412	[0.0, 0.0, 0.0, 0.0, 0.0, 0.0, 0.0, 0.0, 0.0, 0.0, -1.0, -1.0, -1.0, -1.0, -1.0, -1.0, -1.0, -1.0, -1.0, -1.0, -1.0, -1.0, -1.0, -1.0, -1.0, -1.0, -1.0, -1.0, -2.0, -3.0, -4.0, -4.0, -7.0, -8.0, -9.0, -11.0, -13.0, -14.0, -14.0, -15.0, -16.0, -18.0, -18.0, -21.0, -25.0, -31.0, -39.0, -50.0, -67.0, -90.0, -114.0, -146.0, -184.0, -257.0, -310.0, -364.0, -413.0, -457.0, -496.0, -522.0, -536.0, -541.0, -541.0, -534.0, -501.0, -452.0, -399.0, -336.0, -266.0, -167.0, -64.0, 55.0, 177.0, 294.0, 413.0, 531.0, 636.0, 748.0, 786.0, 811.0, 823.0, 825.0, 825.0, 825.0, 825.0]	[-490.0, -490.0, -490.0, -490.0, -490.0, -490.0, -490.0, -490.0, -490.0, -490.0, -490.0, -490.0, -490.0, -490.0, -490.0, -490.0, -490.0, -490.0, -490.0, -490.0, -490.0, -489.0, -488.0, -487.0, -485.0, -484.0, -483.0, -481.0, -478.0, -476.0, -475.0, -471.0, -469.0, -465.0, -462.0, -460.0, -457.0, -455.0, -452.0, -451.0, -446.0, -443.0, -439.0, -431.0, -417.0, -399.0, -382.0, -365.0, -345.0, -318.0, -289.0, -256.0, -220.0, -159.0, -122.0, -84.0, -50.0, -20.0, 7.0, 28.0, 45.0, 58.0, 69.0, 84.0, 110.0, 138.0, 168.0, 200.0, 230.0, 270.0, 304.0, 339.0, 371.0, 392.0, 408.0, 420.0, 420.0, 420.0, 420.0, 420.0, 420.0, 420.0, 420.0, 420.0, 420.0]	[0.0014713848941028118, 0.005813142750412226, 0.019595834310166538, 0.036440967000089586, 0.05272494803648442, 0.06971992598846555, 0.0861602375516668, 0.10308251157402992, 0.11955798044800758, 0.1363833158975467, 0.15270108880940825, 0.16956362954806536, 0.1860411464003846, 0.20305558037944138, 0.2195866865804419, 0.2364120219135657, 0.25276665890123695, 0.26973091694526374, 0.28631015110295266, 0.30306312383618206, 0.31958535534795374, 0.336414786754176, 0.3529895836254582, 0.36973334033973515, 0.38605759863276035, 0.40312801126856357, 0.4195106375264004, 0.4363598662894219, 0.4526871965499595, 0.4697101638885215, 0.48629417666234076, 0.503102786722593, 0.5195871302857995, 0.5364148550434038, 0.5527264840202406, 0.5697757339803502, 0.5860365042462945, 0.6030772208468989, 0.6195861404994503, 0.6363752945326269, 0.6527353927958757, 0.6696590321371332, 0.6862181277247146, 0.7030803270172328, 0.7193998066941276, 0.7364514459623024, 0.7527019763365388, 0.7696150343399495, 0.78621099377051, 0.8029885425930843, 0.8193506888346747, 0.8363361094379798, 0.8526521758176386, 0.8695321244886145, 0.8859464947599918, 0.9030169072793797, 0.9195169522427022, 0.9364713114919141, 0.9527597298147157, 0.9696762012317777, 0.9861168541247025, 1.0030336667550728, 1.019449743675068, 1.0363180871354416, 1.0527809266932309, 1.0696608753642067, 1.0860926535679027, 1.1030681756092235, 1.11947537783999, 1.136473769089207, 1.1525614835554734, 1.1696615921100602, 1.1860397810814902, 1.2030473883496597, 1.2194429853698239, 1.2363597980001941, 1.252520557725802, 1.2696684529073536, 1.2861367538571358, 1.3030754118226469, 1.3194498461671174, 1.3363639281596988, 1.3525909064337611, 1.369698865688406, 1.3861077746842057]
27	images/0241.jpg	images/0122.jpg	right	1.125	[0.0, 0.0, 0.0, 0.0, 0.0, 1.0, 1.0, 1.0, 2.0, 2.0, 2.0, 2.0, 4.0, 4.0, 4.0, 4.0, 4.0, 4.0, 4.0, 3.0, -2.0, -10.0, -24.0, -45.0, -78.0, -124.0, -181.0, -247.0, -311.0, -367.0, -415.0, -480.0, -518.0, -543.0, -560.0, -565.0, -565.0, -557.0, -530.0, -472.0, -390.0, -300.0, -190.0, -70.0, 149.0, 292.0, 422.0, 535.0, 649.0, 736.0, 798.0, 848.0, 869.0, 882.0, 887.0, 887.0, 887.0, 887.0, 887.0, 884.0, 873.0, 863.0, 852.0, 847.0, 844.0, 844.0, 844.0, 844.0]	[-490.0, -490.0, -490.0, -490.0, -490.0, -488.0, -487.0, -487.0, -485.0, -484.0, -483.0, -483.0, -481.0, -481.0, -481.0, -481.0, -481.0, -480.0, -477.0, -473.0, -461.0, -447.0, -427.0, -401.0, -370.0, -328.0, -279.0, -201.0, -133.0, -85.0, -36.0, 36.0, 77.0, 111.0, 140.0, 159.0, 176.0, 198.0, 226.0, 264.0, 310.0, 353.0, 397.0, 445.0, 507.0, 540.0, 540.0, 540.0, 540.0, 540.0, 540.0, 531.0, 524.0, 516.0, 506.0, 503.0, 483.0, 467.0, 447.0, 432.0, 416.0, 402.0, 389.0, 381.0, 377.0, 377.0, 377.0, 377.0]	[0.015279676532372832, 0.02191792370285839, 0.030326324747875333, 0.04711411357857287, 0.06348888913635164, 0.08052004838827997, 0.09665042953565717, 0.11376316740643233, 0.1301894843345508, 0.1471131236758083, 0.1635339792119339, 0.18046615191269666, 0.19665421824902296, 0.2136358842253685, 0.2301714278291911, 0.24710325908381492, 0.2635681467363611, 0.280481887399219, 0.29668872710317373, 0.31370691570919007, 0.33013084332924336, 0.3471138746244833, 0.36354019155260175, 0.3804839694639668, 0.396636878605932, 0.41382573381997645, 0.43017559207510203, 0.44709957274608314, 0.4634757136227563, 0.4804024250479415, 0.4966191634302959, 0.5136236986145377, 0.5301773328101262, 0.5470596709055826, 0.563444345141761, 0.5804598031099886, 0.5965881361626089, 0.6136660581687465, 0.6299510630778968, 0.6470078224083409, 0.6633194513851777, 0.6803485626587644, 0.6965492583112791, 0.7136090896092355, 0.73000332119409, 0.7470290191704407, 0.7633662481093779, 0.7805066340370104, 0.796591276419349, 0.8137442916631699, 0.8299811687320471, 0.8471188239054754, 0.8635127141606063, 0.8804165561450645, 0.8966404625680298, 0.9136921018362045, 0.9300658534048125, 0.9470949646783993, 0.9634318524040282, 0.9804770062910393, 0.9965968061005697, 1.013760402565822, 1.0299600743455812, 1.047011713613756, 1.0634871824877337, 1.0803831737721339, 1.096576701500453, 1.1137106020469218]
28	images/0249.jpg	images/0002.jpg	left	1.673	[0.0, 0.0, 0.0, 0.0, 0.0, 0.0, 0.0, -1.0, -1.0, -2.0, -2.0, -2.0, -2.0, -2.0, -2.0, -2.0, -2.0, -2.0, -2.0, -6.0, -10.0, -21.0, -34.0, -50.0, -80.0, -118.0, -156.0, -197.0, -253.0, -317.0, -380.0, -440.0, -499.0, -559.0, -617.0, -636.0, -651.0, -661.0, -664.0, -666.0, -666.0, -666.0, -666.0, -666.0, -663.0, -646.0, -578.0, -495.0, -397.0, -287.0, -213.0, -182.0, -161.0, -131.0, -90.0, -44.0, 5.0, 57.0, 136.0, 188.0, 234.0, 270.0, 298.0, 320.0, 336.0, 350.0, 362.0, 371.0, 380.0, 397.0, 410.0, 412.0, 412.0, 406.0, 372.0, 293.0, 193.0, 76.0, -48.0, -152.0, -249.0, -350.0, -393.0, -422.0, -445.0, -462.0, -476.0, -483.0, -487.0, -491.0, -493.0, -494.0, -494.0, -501.0, -559.0, -629.0, -680.0, -703.0, -705.0, -706.0, -706.0]	[-490.0, -490.0, -490.0, -490.0, -490.0, -490.0, -489.0, -488.0, -488.0, -487.0, -486.0, -486.0, -484.0, -484.0, -484.0, -483.0, -480.0, -476.0, -470.0, -465.0, -450.0, -424.0, -401.0, -377.0, -340.0, -299.0, -265.0, -227.0, -180.0, -124.0, -63.0, -9.0, 41.0, 83.0, 132.0, 152.0, 165.0, 177.0, 182.0, 184.0, 184.0, 184.0, 184.0, 185.0, 194.0, 204.0, 233.0, 265.0, 299.0, 329.0, 350.0, 358.0, 363.0, 367.0, 367.0, 367.0, 367.0, 367.0, 367.0, 367.0, 367.0, 367.0, 367.0, 367.0, 367.0, 367.0, 367.0, 367.0, 367.0, 368.0, 368.0, 368.0, 368.0, 367.0, 363.0, 351.0, 337.0, 319.0, 307.0, 299.0, 288.0, 279.0, 279.0, 279.0, 279.0, 279.0, 279.0, 279.0, 279.0, 279.0, 278.0, 277.0, 277.0, 277.0, 277.0, 277.0, 281.0, 284.0, 285.0, 285.0, 285.0]	[0.010796606773510575, 0.015401532524265349, 0.022586254170164466, 0.0378745662746951, 0.05520097876433283, 0.07141771714668721, 0.08854854572564363, 0.10475640941876918, 0.12166093406267464, 0.13781213643960655, 0.15488801035098732, 0.17141672724392265, 0.18837040395010263, 0.20464516896754503, 0.22178418945986778, 0.2378981865476817, 0.2550310631049797, 0.27143348671961576, 0.2884052540175617, 0.3047629629727453, 0.32171766366809607, 0.33786067401524633, 0.35502768389414996, 0.3714004115900025, 0.38836501084733754, 0.4048572051106021, 0.42177367641124874, 0.4377944895531982, 0.45501167536713183, 0.47140761371701956, 0.48834388237446547, 0.504698860575445, 0.5216337639139965, 0.5379955689422786, 0.5549646056024358, 0.5713755624601617, 0.588324460433796, 0.6047224467620254, 0.621689093997702, 0.6380345149664208, 0.6550731835886836, 0.6714346472872421, 0.6882671506609768, 0.7047248701564968, 0.7216457788599655, 0.7378058559261262, 0.7549517031293362, 0.7713889427250251, 0.7883583207149059, 0.804755282937549, 0.8216342077357695, 0.8378413887694478, 0.8549268199130893, 0.8713862461736426, 0.8882825789041817, 0.9047638504998758, 0.92159396444913, 0.9377758868504316, 0.9549514300888404, 0.9714101736899465, 0.9882914876798168, 1.0047123433323577, 1.02169844659511, 1.0378455530153587, 1.0549620455130935, 1.0714470717357472, 1.0882990311365575, 1.1046953106997535, 1.1215926674194634, 1.1378558271098882, 1.1549982610158622, 1.1713498259196058, 1.1882741479203105, 1.204674523556605, 1.221670525497757, 1.2377995413262397, 1.2549464125186205, 1.271361465449445, 1.2882745234528556, 1.3047192723024637, 1.3215749863302335, 1.337844631401822, 1.3549276733538136, 1.3713775422656909, 1.3883004988310859, 1.4047746025025845, 1.4216569404816255, 1.4378047295613214, 1.4549355581402779, 1.4713854270521551, 1.4882677650311962, 1.504712172667496, 1.5215627666329965, 1.5378085182746872, 1.5549011175753549, 1.5711693972116336, 1.5883189991582185, 1.6046849001431838, 1.6216184380464256, 1.6378123071044683, 1.654985461034812]
29	images/0516.jpg	images/0250.jpg	left	1.427	[0.0, 1.0, 2.0, 2.0, 2.0, 2.0, 2.0, 2.0, 2.0, 2.0, 2.0, 2.0, 2.0, 2.0, 2.0, 2.0, 2.0, 1.0, -5.0, -20.0, -54.0, -150.0, -252.0, -368.0, -494.0, -623.0, -741.0, -841.0, -913.0, -953.0, -960.0, -960.0, -956.0, -923.0, -892.0, -738.0, -606.0, -475.0, -376.0, -304.0, -263.0, -241.0, -236.0, -236.0, -238.0, -246.0, -247.0, -247.0, -238.0, -211.0, -153.0, -72.0, 18.0, 110.0, 197.0, 270.0, 308.0, 335.0, 375.0, 406.0, 432.0, 454.0, 474.0, 496.0, 511.0, 514.0, 514.0, 493.0, 419.0, 306.0, 98.0, -38.0, -175.0, -294.0, -386.0, -441.0, -483.0, -530.0, -574.0, -609.0, -645.0, -674.0, -686.0, -686.0, -686.0, -686.0]	[-490.0, -490.0, -490.0, -489.0, -489.0, -489.0, -489.0, -489.0, -489.0, -489.0, -489.0, -489.0, -489.0, -489.0, -489.0, -489.0, -489.0, -486.0, -476.0, -457.0, -418.0, -331.0, -244.0, -148.0, -44.0, 70.0, 193.0, 326.0, 414.0, 478.0, 521.0, 536.0, 540.0, 540.0, 540.0, 540.0, 540.0, 537.0, 514.0, 487.0, 466.0, 448.0, 439.0, 432.0, 427.0, 422.0, 420.0, 417.0, 415.0, 412.0, 411.0, 411.0, 411.0, 411.0, 411.0, 411.0, 411.0, 406.0, 400.0, 396.0, 393.0, 389.0, 387.0, 383.0, 379.0, 379.0, 378.0, 374.0, 372.0, 372.0, 372.0, 372.0, 372.0, 372.0, 372.0, 372.0, 369.0, 369.0, 369.0, 369.0, 369.0, 368.0, 368.0, 368.0, 368.0, 368.0]	[0.01466357009485364, 0.019138789153657854, 0.02936547191347927, 0.045684610144235194, 0.06276492145843804, 0.07904105179477483, 0.09614252566825598, 0.11236506677232683, 0.1293655059998855, 0.1457122922874987, 0.1627373076044023, 0.17905132588930428, 0.19608419190626591, 0.2123842155560851, 0.22945428674574941, 0.24581301969010383, 0.262841789633967, 0.2790015253704041, 0.2961176766548306, 0.31239517231006175, 0.3293860543053597, 0.34572123526595533, 0.36271484789904207, 0.37911522353533655, 0.39606173208449036, 0.4123330838046968, 0.42943728843238205, 0.44554002152290195, 0.4627278526313603, 0.4790128576569259, 0.49605425691697747, 0.5122839659452438, 0.5293704211944714, 0.5455165036255494, 0.5627063828287646, 0.5789705665083602, 0.596088083111681, 0.6123642133316025, 0.6293281300459057, 0.6456329323118553, 0.6626487316098064, 0.6790142912650481, 0.6960277012549341, 0.7122311275452375, 0.729323044186458, 0.7457387797767296, 0.7627702803583816, 0.7791088747326285, 0.7961031700251624, 0.8124168469803408, 0.8293995369458571, 0.8455353793688118, 0.8626617705449462, 0.8790932075353339, 0.8960154814412817, 0.9124592064181343, 0.9293586111161858, 0.9459129279712215, 0.9627761512529105, 0.9790819776244462, 0.9961097235791385, 1.0124804031802341, 1.0294135998701677, 1.045592108857818, 1.0627219134476036, 1.0790195477893576, 1.096043880446814, 1.1124398186802864, 1.1293491220567375, 1.1455617643659934, 1.162707952898927, 1.1791567978216335, 1.1960244585061446, 1.2123732928885147, 1.2294542867457494, 1.2455829611280933, 1.2626421097666025, 1.2790298560867086, 1.2960726206656545, 1.3124886975856498, 1.3292853609891608, 1.3455573953688145, 1.3625141439260915, 1.3791756394784898, 1.396066510817036, 1.4124658623477444]
30	images/0020.jpg	images/0303.jpg	left	0.811	[0.0, 0.0, 0.0, 0.0, 0.0, -1.0, -3.0, -4.0, -4.0, -4.0, -5.0, -6.0, -7.0, -10.0, -13.0, -20.0, -32.0, -53.0, -88.0, -137.0, -191.0, -245.0, -324.0, -380.0, -428.0, -469.0, -500.0, -522.0, -542.0, -556.0, -569.0, -580.0, -591.0, -605.0, -634.0, -645.0, -675.0, -691.0, -702.0, -714.0, -719.0, -723.0, -724.0, -724.0, -722.0, -718.0, -718.0, -718.0, -718.0]	[-490.0, -490.0, -490.0, -488.0, -486.0, -484.0, -478.0, -476.0, -474.0, -472.0, -470.0, -468.0, -464.0, -462.0, -455.0, -447.0, -429.0, -407.0, -376.0, -334.0, -283.0, -238.0, -150.0, -93.0, -41.0, 12.0, 47.0, 76.0, 98.0, 113.0, 125.0, 136.0, 144.0, 156.0, 178.0, 186.0, 217.0, 241.0, 265.0, 291.0, 309.0, 328.0, 345.0, 358.0, 370.0, 377.0, 379.0, 379.0, 379.0]	[0.015095697832293808, 0.022032270208001137, 0.03006759413983673, 0.04717726004309952, 0.06314311851747334, 0.08024800580460578, 0.09663848276250064, 0.11357167933601886, 0.1300017510075122, 0.14693836099468172, 0.16307625139597803, 0.18015724525321275, 0.1966098448028788, 0.21358912147115916, 0.2297358865616843, 0.24695034173782915, 0.26309198676608503, 0.2802525113802403, 0.2966146576218307, 0.31355911830905825, 0.32997894985601306, 0.347696871496737, 0.3630565223284066, 0.38026415079366416, 0.3966928570298478, 0.4135683684144169, 0.4299660134129226, 0.446969524724409, 0.4630845458013937, 0.48019796633161604, 0.4966730938758701, 0.5135373412631452, 0.5299493222264573, 0.5468565775081515, 0.5630405478877947, 0.5800775098614395, 0.5964372667949647, 0.6135527354199439, 0.6300445882370695, 0.6470201102783903, 0.663112603360787, 0.6802663012640551, 0.6967004687758163, 0.7135264868848026, 0.7300036624073982, 0.7469109178055078, 0.7630767974769697, 0.7803359673125669, 0.7966902629705146]
31	images/0257.jpg	images/0111.jpg	right	0.957	[0.0, 2.0, 2.0, 2.0, 2.0, 2.0, 2.0, 2.0, 3.0, 4.0, 4.0, 4.0, 4.0, 6.0, 7.0, 7.0, 7.0, 7.0, 4.0, -5.0, -20.0, -43.0, -88.0, -151.0, -220.0, -292.0, -370.0, -447.0, -522.0, -582.0, -631.0, -680.0, -691.0, -692.0, -688.0, -674.0, -651.0, -615.0, -553.0, -456.0, -324.0, -164.0, 6.0, 254.0, 395.0, 514.0, 619.0, 679.0, 713.0, 731.0, 740.0, 741.0, 741.0, 741.0, 741.0, 741.0, 741.0, 741.0]	[-490.0, -488.0, -488.0, -488.0, -488.0, -488.0, -488.0, -488.0, -487.0, -486.0, -484.0, -479.0, -478.0, -475.0, -473.0, -471.0, -468.0, -463.0, -450.0, -436.0, -419.0, -398.0, -362.0, -317.0, -265.0, -204.0, -136.0, -62.0, 20.0, 97.0, 163.0, 240.0, 269.0, 282.0, 292.0, 298.0, 306.0, 315.0, 328.0, 341.0, 357.0, 360.0, 360.0, 360.0, 360.0, 360.0, 360.0, 360.0, 360.0, 360.0, 360.0, 360.0, 360.0, 360.0, 360.0, 360.0, 360.0, 360.0]	[0.011660520918667316, 0.01698600093368441, 0.022510136710479856, 0.039534469367936254, 0.05586145829875022, 0.07289227622095495, 0.08905747334938496, 0.10607224865816534, 0.12259345618076622, 0.13944951153825969, 0.15587787644471973, 0.17290220910217613, 0.1890459021087736, 0.2061047094175592, 0.22238732501864433, 0.2394515936030075, 0.25591852923389524, 0.2728029153076932, 0.2890493496088311, 0.3061610634904355, 0.32249180716462433, 0.3395417397841811, 0.35587043536361307, 0.3729033013805747, 0.3890394850168377, 0.4061150177149102, 0.4223525773268193, 0.43946463253814727, 0.45590460288804024, 0.4727845515590161, 0.4890125539386645, 0.506097985082306, 0.5225857420591637, 0.5394595466786996, 0.5559145356528461, 0.5729101962642744, 0.5889845987549052, 0.6061171339824796, 0.6224908855510876, 0.6394599222112447, 0.6559446071041748, 0.6727798411156982, 0.6890003341250122, 0.7061007841257378, 0.722299431799911, 0.7394309430383146, 0.755884907906875, 0.7728563338750973, 0.7890177762601525, 0.8061021835310385, 0.8225315724266693, 0.839513921062462, 0.8559013260528445, 0.8728133600670844, 0.8890072291251272, 0.9061223563039675, 0.9226138679077849, 0.9394982538651675]
32	images/0356.jpg	images/0166.jpg	right	1.034	[0.0, 0.0, 0.0, 1.0, 1.0, 1.0, 1.0, 1.0, 2.0, 3.0, 5.0, 7.0, 7.0, 9.0, 10.0, 12.0, 12.0, 12.0, 12.0, 3.0, -25.0, -50.0, -84.0, -126.0, -173.0, -231.0, -287.0, -344.0, -401.0, -453.0, -511.0, -557.0, -603.0, -621.0, -629.0, -633.0, -633.0, -633.0, -633.0, -627.0, -595.0, -530.0, -419.0, -187.0, -6.0, 194.0, 385.0, 550.0, 682.0, 777.0, 826.0, 846.0, 850.0, 852.0, 852.0, 853.0, 853.0, 853.0, 853.0, 853.0, 853.0, 853.0]	[-490.0, -490.0, -490.0, -489.0, -489.0, -489.0, -489.0, -489.0, -489.0, -487.0, -484.0, -482.0, -480.0, -476.0, -471.0, -466.0, -460.0, -449.0, -433.0, -411.0, -357.0, -313.0, -259.0, -201.0, -136.0, -66.0, -1.0, 63.0, 126.0, 178.0, 232.0, 273.0, 309.0, 324.0, 334.0, 338.0, 338.0, 338.0, 339.0, 342.0, 351.0, 362.0, 375.0, 397.0, 397.0, 397.0, 397.0, 397.0, 397.0, 397.0, 397.0, 399.0, 399.0, 399.0, 399.0, 399.0, 399.0, 399.0, 399.0, 399.0, 399.0, 399.0]	[0.0046754792565479875, 0.009061610326170921, 0.025724812410771847, 0.04259383853059262, 0.05885460879653692, 0.07591512275394052, 0.09252132219262421, 0.10956101480405778, 0.12580062251072377, 0.1427454245276749, 0.15891505894251168, 0.1759987835539505, 0.19248722307384014, 0.2093439610907808, 0.225703718024306, 0.24256421078462154, 0.25885058112908155, 0.2760124709457159, 0.2924121639225632, 0.3093245392665267, 0.32567610417027026, 0.34273730078712106, 0.3588748498586938, 0.37597529974300414, 0.3924190247198567, 0.4092767867259681, 0.42548465041909367, 0.44263391103595495, 0.4589363239938393, 0.4759975206106901, 0.4922091389307752, 0.5092921808827668, 0.5256707111839205, 0.5426813904196024, 0.5588684327667579, 0.575729266856797, 0.5923771089874208, 0.6092416977044195, 0.6255106600001454, 0.6425663953414187, 0.6587647016858682, 0.6759050876135007, 0.6924030844820663, 0.7092775717610493, 0.7257318780757487, 0.7426285520195961, 0.7588893224019557, 0.7759426683187485, 0.7924055078765377, 0.8092936485772952, 0.8254114002920687, 0.8424626982305199, 0.8590368124423549, 0.8759300730889663, 0.8923949607415125, 0.9093264506664127, 0.9257418449269608, 0.9425975589547306, 0.9588303400669247, 0.975805179332383, 0.9923161468468606, 1.009370175539516]
