trialIndex	left_option	right_option	response	response_time	xTrajectory	yTrajectory	tTrajectory
0	images/0063.jpg	images/0015.jpg	right	2.018	[0.0, 1.0, 1.0, 1.0, 1.0, 1.0, 1.0, 1.0, 1.0, 1.0, 1.0, 1.0, 1.0, 1.0, 1.0, 1.0, 1.0, 1.0, 1.0, 1.0, 1.0, 1.0, 1.0, 1.0, 1.0, 1.0, 1.0, 1.0, 1.0, 1.0, 1.0, 1.0, 1.0, 1.0, 1.0, 1.0, 1.0, -11.0, -46.0, -84.0, -127.0, -168.0, -204.0, -240.0, -294.0, -310.0, -384.0, -413.0, -506.0, -538.0, -628.0, -682.0, -753.0, -777.0, -810.0, -832.0, -839.0, -840.0, -840.0, -837.0, -830.0, -829.0, -829.0, -829.0, -829.0, -829.0, -829.0, -829.0, -829.0, -826.0, -813.0, -791.0, -739.0, -641.0, -432.0, -267.0, -38.0, 29.0, 199.0, 223.0, 228.0, 219.0, 155.0, 118.0, -11.0, -95.0, -234.0, -277.0, -353.0, -409.0, -437.0, -437.0, -408.0, -372.0, -197.0, -143.0, 27.0, 81.0, 254.0, 363.0, 444.0, 491.0, 524.0, 553.0, 605.0, 624.0, 652.0, 668.0, 676.0, 677.0, 678.0, 679.0, 682.0, 684.0, 685.0, 685.0, 686.0, 686.0, 686.0, 686.0]	[-490.0, -490.0, -490.0, -490.0, -490.0, -490.0, -490.0, -490.0, -490.0, -490.0, -490.0, -490.0, -490.0, -490.0, -490.0, -490.0, -490.0, -490.0, -490.0, -490.0, -490.0, -490.0, -490.0, -490.0, -490.0, -490.0, -490.0, -490.0, -490.0, -490.0, -490.0, -490.0, -490.0, -490.0, -490.0, -490.0, -490.0, -481.0, -464.0, -447.0, -429.0, -410.0, -394.0, -376.0, -346.0, -337.0, -296.0, -283.0, -228.0, -211.0, -147.0, -92.0, 16.0, 52.0, 101.0, 140.0, 165.0, 185.0, 205.0, 224.0, 246.0, 252.0, 253.0, 253.0, 253.0, 253.0, 253.0, 253.0, 253.0, 253.0, 256.0, 259.0, 266.0, 280.0, 311.0, 335.0, 398.0, 412.0, 492.0, 509.0, 518.0, 521.0, 525.0, 530.0, 540.0, 540.0, 540.0, 540.0, 540.0, 538.0, 528.0, 526.0, 512.0, 506.0, 498.0, 498.0, 498.0, 498.0, 498.0, 498.0, 498.0, 497.0, 497.0, 497.0, 491.0, 491.0, 486.0, 484.0, 480.0, 478.0, 475.0, 473.0, 469.0, 468.0, 467.0, 467.0, 466.0, 465.0, 464.0, 464.0]	[0.01525486120954156, 0.023013363825157285, 0.029921605717390776, 0.05217584501951933, 0.06304730591364205, 0.0801047480199486, 0.09646928356960416, 0.12153508397750556, 0.12973493058234453, 0.15361323300749063, 0.1645918725989759, 0.18006109143607318, 0.19906788715161383, 0.221907171420753, 0.2296813754364848, 0.24657497741281986, 0.2638757899403572, 0.2802536375820637, 0.2964379491750151, 0.31330663384869695, 0.3306224651169032, 0.3468456887640059, 0.37105849757790565, 0.38033013022504747, 0.3968475831206888, 0.4137674677185714, 0.4313850374892354, 0.44650916825048625, 0.4631873890757561, 0.48102648393251, 0.49649126548320055, 0.5135128675028682, 0.5297927523497492, 0.5468901302665472, 0.5631509006489068, 0.5803223478142172, 0.5965056356508285, 0.6135528373997658, 0.629846375901252, 0.6528361879754812, 0.663190188119188, 0.6803848459385335, 0.6965340003371239, 0.7194367726333439, 0.7297648312523961, 0.752400339813903, 0.7633492834866047, 0.7867975060362369, 0.7964695224072784, 0.8135358390863985, 0.8298095799982548, 0.853412768105045, 0.8633308855351061, 0.880211858311668, 0.8967931405641139, 0.9134522466920316, 0.9299970061983913, 0.9467595361638814, 0.9633377464488149, 0.9865716118365526, 0.9965218147262931, 1.0135266913566738, 1.0297779045067728, 1.046808381099254, 1.0633306126110256, 1.0802474252413958, 1.096765902126208, 1.1134755255188793, 1.1297475597821176, 1.1467483404558152, 1.1631947960704565, 1.1801645155064762, 1.1965242724400014, 1.2205237480811775, 1.2299977911170572, 1.2530821526888758, 1.2633016675245017, 1.2865560129284859, 1.296389479888603, 1.3191314842551947, 1.3297670842148364, 1.3531767360400409, 1.3633044322486967, 1.3863751403987408, 1.396659508580342, 1.419959933962673, 1.4297486862633377, 1.4490148951299489, 1.4632747704163194, 1.486699782544747, 1.4967459000181407, 1.5200343786273152, 1.5300122296903282, 1.5531413056887686, 1.5633079139515758, 1.586568061960861, 1.5966397793963552, 1.6137419361621141, 1.6297552399337292, 1.6526747373864055, 1.6631437668111175, 1.6801636619493365, 1.696491333656013, 1.7195046979468316, 1.7296870073769242, 1.7467553720343858, 1.7630871396977454, 1.786899906117469, 1.796594109153375, 1.8199682624544948, 1.8297365347389132, 1.8485798318870366, 1.8632871948648244, 1.8801982048898935, 1.8966173538938165, 1.9134781879838556, 1.9297338381875306, 1.9526731332298368, 1.963267431827262, 1.9867381823714823]
1	images/0018.jpg	images/0370.jpg	left	1.714	[0.0, 0.0, 0.0, 0.0, 0.0, 0.0, 0.0, 0.0, 0.0, 0.0, 0.0, 0.0, 0.0, 0.0, 0.0, 0.0, 0.0, 0.0, 1.0, 1.0, 2.0, 2.0, 4.0, 4.0, 5.0, 6.0, 7.0, 8.0, 8.0, 11.0, 11.0, 13.0, 14.0, 14.0, 14.0, 14.0, 14.0, 12.0, 4.0, -10.0, -53.0, -98.0, -157.0, -229.0, -304.0, -375.0, -429.0, -468.0, -492.0, -522.0, -534.0, -552.0, -567.0, -573.0, -575.0, -575.0, -572.0, -552.0, -511.0, -453.0, -371.0, -214.0, -156.0, -44.0, 48.0, 124.0, 176.0, 238.0, 266.0, 291.0, 319.0, 359.0, 371.0, 392.0, 401.0, 403.0, 403.0, 404.0, 403.0, 381.0, 271.0, 133.0, -27.0, -195.0, -362.0, -524.0, -657.0, -782.0, -801.0, -839.0, -843.0, -851.0, -851.0, -851.0, -851.0, -851.0, -851.0, -851.0, -851.0, -851.0, -851.0, -851.0, -851.0]	[-490.0, -490.0, -490.0, -490.0, -490.0, -490.0, -490.0, -490.0, -490.0, -490.0, -491.0, -491.0, -491.0, -491.0, -491.0, -491.0, -491.0, -491.0, -491.0, -490.0, -489.0, -488.0, -486.0, -485.0, -482.0, -480.0, -479.0, -475.0, -474.0, -469.0, -468.0, -461.0, -455.0, -451.0, -445.0, -439.0, -427.0, -413.0, -395.0, -375.0, -332.0, -293.0, -232.0, -178.0, -130.0, -94.0, -69.0, -49.0, -37.0, -6.0, 6.0, 25.0, 41.0, 51.0, 53.0, 54.0, 62.0, 78.0, 97.0, 117.0, 139.0, 174.0, 180.0, 198.0, 210.0, 222.0, 230.0, 239.0, 244.0, 249.0, 254.0, 260.0, 261.0, 265.0, 267.0, 267.0, 267.0, 269.0, 271.0, 274.0, 282.0, 284.0, 292.0, 294.0, 294.0, 294.0, 296.0, 296.0, 296.0, 293.0, 292.0, 290.0, 290.0, 290.0, 290.0, 290.0, 290.0, 290.0, 290.0, 290.0, 290.0, 290.0, 290.0]	[0.014692856231704354, 0.01984289102256298, 0.027975153643637896, 0.045083112781867385, 0.06153264036402106, 0.07765926676802337, 0.0945057647768408, 0.11183524923399091, 0.1282103662379086, 0.14441584050655365, 0.16819618036970496, 0.17837644182145596, 0.1945621189661324, 0.2109867292456329, 0.23374170414172113, 0.24498692504130304, 0.2615350978448987, 0.27763202833011746, 0.3004634620156139, 0.31094614462926984, 0.32805581064894795, 0.3451183724682778, 0.36120369751006365, 0.3792762642260641, 0.39593775989487767, 0.41092365072108805, 0.4316439388785511, 0.44419783097691834, 0.4670060540083796, 0.47752150474116206, 0.5002805758267641, 0.5108567837160081, 0.5279340229462832, 0.5452379074413329, 0.5611764593049884, 0.5796190311666578, 0.594776954036206, 0.611793435877189, 0.6279374703299254, 0.6467172794509679, 0.6677809485699981, 0.6784032364375889, 0.6946397721767426, 0.711092030396685, 0.7280747203622013, 0.7450065517332405, 0.7614717807155102, 0.7776509723626077, 0.8008954192046076, 0.8109429019968957, 0.8280597359407693, 0.8450823619496077, 0.8614247108343989, 0.877571475924924, 0.9018692767713219, 0.9109166534617543, 0.928054308751598, 0.9449615641497076, 0.9614698009099811, 0.9776291952002794, 1.000406015664339, 1.0109177115373313, 1.0279683268163353, 1.0450165527872741, 1.0613578776828945, 1.0775838322006166, 1.1005029883235693, 1.111413361504674, 1.1282666861079633, 1.1442595100961626, 1.1670349650084972, 1.1783549378160387, 1.1946512069553137, 1.2109949211589992, 1.228007307043299, 1.245016279630363, 1.2614449860993773, 1.277568198973313, 1.2946447557769716, 1.3109819847159088, 1.3280954051297158, 1.3442920048255473, 1.364891461096704, 1.3775330758653581, 1.3944922138471156, 1.4109748508781195, 1.4318859439808875, 1.4442565403878689, 1.465435580117628, 1.4774877126328647, 1.500118101015687, 1.5117374232504517, 1.5279213935136795, 1.5449173955712467, 1.561602101661265, 1.5784639597404748, 1.5945605486631393, 1.6109571696724743, 1.6342797817196697, 1.6442494406364858, 1.6611867332831025, 1.6784011884592474, 1.6945762841496617]
2	images/0518.jpg	images/0453.jpg	right	1.645	[0.0, 0.0, 0.0, 0.0, 0.0, 0.0, 0.0, 0.0, 0.0, 1.0, 4.0, 4.0, 5.0, 5.0, 7.0, 7.0, 7.0, 7.0, 7.0, 7.0, 7.0, 7.0, 7.0, 7.0, 7.0, 7.0, 7.0, 7.0, 8.0, 8.0, 9.0, 9.0, 9.0, 9.0, 9.0, 10.0, 10.0, 10.0, 11.0, 11.0, 11.0, 11.0, 11.0, 12.0, 12.0, 12.0, 12.0, 12.0, 12.0, 12.0, 12.0, 12.0, 12.0, 12.0, 10.0, 0.0, -14.0, -47.0, -99.0, -155.0, -222.0, -293.0, -358.0, -397.0, -431.0, -445.0, -461.0, -466.0, -479.0, -490.0, -495.0, -495.0, -463.0, -388.0, -269.0, -41.0, 137.0, 348.0, 549.0, 717.0, 893.0, 935.0, 959.0, 959.0, 959.0, 959.0, 959.0, 958.0, 952.0, 950.0, 949.0, 949.0, 949.0, 949.0, 949.0, 943.0, 932.0, 924.0, 918.0]	[-490.0, -491.0, -491.0, -491.0, -491.0, -491.0, -491.0, -492.0, -493.0, -493.0, -493.0, -493.0, -493.0, -493.0, -493.0, -493.0, -493.0, -493.0, -493.0, -493.0, -493.0, -493.0, -493.0, -493.0, -493.0, -493.0, -493.0, -493.0, -492.0, -492.0, -490.0, -490.0, -488.0, -487.0, -487.0, -486.0, -485.0, -485.0, -484.0, -484.0, -484.0, -484.0, -484.0, -482.0, -479.0, -478.0, -478.0, -478.0, -478.0, -478.0, -478.0, -478.0, -477.0, -475.0, -470.0, -462.0, -454.0, -437.0, -414.0, -389.0, -354.0, -313.0, -272.0, -245.0, -216.0, -200.0, -173.0, -163.0, -142.0, -121.0, -87.0, -24.0, 51.0, 128.0, 204.0, 289.0, 338.0, 367.0, 390.0, 392.0, 392.0, 397.0, 404.0, 406.0, 408.0, 409.0, 413.0, 416.0, 420.0, 423.0, 425.0, 426.0, 426.0, 426.0, 427.0, 427.0, 422.0, 416.0, 412.0]	[0.014758051373064518, 0.021138933254405856, 0.03285826602950692, 0.04557668091729283, 0.06186851253733039, 0.08330116281285882, 0.0960366444196552, 0.11239913199096918, 0.128583102254197, 0.15323042846284807, 0.16182349063456059, 0.1789918658323586, 0.19600664102472365, 0.2122308888938278, 0.22853261907584965, 0.2454156398307532, 0.26262975367717445, 0.27868231083266437, 0.29628417920321226, 0.3123203522991389, 0.33014545240439475, 0.3454556099604815, 0.3637582352384925, 0.37916737934574485, 0.39599373866803944, 0.41224426915869117, 0.42854497535154223, 0.44538396410644054, 0.462693992536515, 0.478738016448915, 0.49635285534895957, 0.5124282818287611, 0.52928536105901, 0.545463870279491, 0.5624765974935144, 0.5789783489890397, 0.5960378390736878, 0.6122405827045441, 0.6285870275460184, 0.6515771811828017, 0.6617420825641602, 0.6844134309794754, 0.6960249023977667, 0.7121696195099503, 0.7284761285409331, 0.7453786050900817, 0.7618445167317986, 0.7788528066594154, 0.7960222058463842, 0.8121249389369041, 0.8285126853734255, 0.8510191696695983, 0.8626606785692275, 0.8787931075785309, 0.897004596889019, 0.912317143753171, 0.929366052383557, 0.9454721987713128, 0.9626101953908801, 0.9789272856432945, 0.9959802902303636, 1.012133540585637, 1.0284967108163983, 1.0515244111884385, 1.062470965553075, 1.07908057840541, 1.0940610079560429, 1.1118318361695856, 1.1292654273565859, 1.1454183363821357, 1.1624501782935113, 1.1789126766379923, 1.1966063634026796, 1.2119769370183349, 1.230164191685617, 1.2456682263873518, 1.2624628418125212, 1.2790489026810974, 1.2951731397770345, 1.3180602106731385, 1.3283316080924124, 1.3454037273768336, 1.3618535962887108, 1.3789427820593119, 1.395087840501219, 1.4178820687811822, 1.4283773808274418, 1.4508456359617412, 1.4625547286123037, 1.4786936431191862, 1.4963852819055319, 1.5123453377746046, 1.5302008166909218, 1.5454597743228078, 1.5646413324866444, 1.5789889304433018, 1.5959374869707972, 1.612058652099222, 1.6284815557301044]
3	images/0516.jpg	images/0250.jpg	left	2.43	[0.0, 0.0, 0.0, 0.0, 0.0, 0.0, 0.0, 0.0, 0.0, 0.0, 0.0, 0.0, 0.0, 0.0, 0.0, 0.0, 0.0, 1.0, 2.0, 3.0, 8.0, 14.0, 24.0, 37.0, 61.0, 69.0, 102.0, 116.0, 182.0, 209.0, 264.0, 315.0, 404.0, 470.0, 556.0, 650.0, 728.0, 777.0, 832.0, 845.0, 865.0, 877.0, 879.0, 879.0, 879.0, 879.0, 879.0, 875.0, 842.0, 830.0, 778.0, 761.0, 718.0, 662.0, 592.0, 510.0, 425.0, 321.0, 258.0, 200.0, 119.0, 89.0, -30.0, -67.0, -179.0, -211.0, -270.0, -278.0, -286.0, -291.0, -294.0, -296.0, -296.0, -293.0, -259.0, -183.0, -85.0, 42.0, 177.0, 319.0, 443.0, 549.0, 573.0, 586.0, 593.0, 597.0, 601.0, 603.0, 605.0, 610.0, 616.0, 622.0, 627.0, 629.0, 630.0, 633.0, 636.0, 642.0, 647.0, 648.0, 649.0, 649.0, 649.0, 649.0, 649.0, 649.0, 651.0, 651.0, 652.0, 652.0, 644.0, 630.0, 586.0, 507.0, 407.0, 283.0, 77.0, -58.0, -161.0, -236.0, -291.0, -299.0, -305.0, -307.0, -314.0, -328.0, -344.0, -347.0, -349.0, -350.0, -356.0, -369.0, -391.0, -421.0, -457.0, -501.0, -567.0, -588.0, -659.0, -706.0, -747.0, -769.0, -779.0, -779.0, -779.0, -779.0]	[-490.0, -492.0, -492.0, -492.0, -492.0, -493.0, -493.0, -494.0, -494.0, -494.0, -494.0, -494.0, -493.0, -493.0, -492.0, -491.0, -489.0, -486.0, -484.0, -482.0, -475.0, -465.0, -453.0, -436.0, -408.0, -398.0, -366.0, -358.0, -319.0, -304.0, -265.0, -230.0, -178.0, -138.0, -85.0, -8.0, 58.0, 91.0, 121.0, 129.0, 140.0, 146.0, 148.0, 148.0, 148.0, 148.0, 148.0, 151.0, 154.0, 154.0, 154.0, 154.0, 154.0, 164.0, 174.0, 187.0, 202.0, 226.0, 243.0, 256.0, 267.0, 275.0, 310.0, 317.0, 331.0, 336.0, 342.0, 342.0, 340.0, 338.0, 334.0, 331.0, 328.0, 327.0, 325.0, 325.0, 325.0, 325.0, 325.0, 333.0, 335.0, 335.0, 338.0, 339.0, 341.0, 341.0, 342.0, 342.0, 343.0, 343.0, 343.0, 343.0, 343.0, 343.0, 343.0, 343.0, 343.0, 343.0, 343.0, 343.0, 343.0, 343.0, 343.0, 343.0, 343.0, 343.0, 343.0, 343.0, 343.0, 343.0, 342.0, 342.0, 337.0, 336.0, 336.0, 336.0, 336.0, 336.0, 336.0, 327.0, 319.0, 316.0, 313.0, 311.0, 308.0, 304.0, 299.0, 299.0, 299.0, 299.0, 299.0, 299.0, 299.0, 299.0, 299.0, 299.0, 299.0, 299.0, 299.0, 299.0, 299.0, 299.0, 299.0, 299.0, 299.0, 299.0]	[0.0007632207125425339, 0.005905404686927795, 0.01145514054223895, 0.02854500920511782, 0.04481124086305499, 0.06176833086647093, 0.07819737843237817, 0.09525516163557768, 0.11158146802335978, 0.12868942716158926, 0.14495770703069866, 0.16189329302869737, 0.17818512464873493, 0.198779460741207, 0.21159891015850008, 0.22860412811860442, 0.2449901676736772, 0.2619400897528976, 0.2781892546918243, 0.29524533124640584, 0.31160508817993104, 0.3286802794318646, 0.34494241513311863, 0.3675707555375993, 0.37822649418376386, 0.4013763917610049, 0.41157371969893575, 0.434596641222015, 0.44492333475500345, 0.46183707541786134, 0.4782255042809993, 0.4951849835924804, 0.5115921858232468, 0.5285970624536276, 0.5449633048847318, 0.5618244800716639, 0.5781012931838632, 0.6006303057074547, 0.6115140547044575, 0.6284813845995814, 0.644859914900735, 0.6618313409853727, 0.6782218178268522, 0.6952208918519318, 0.7115349101368338, 0.7286309227347374, 0.744867458473891, 0.7681948491372168, 0.7780829295516014, 0.8007914831396192, 0.811533237574622, 0.8285664450377226, 0.8450047085061669, 0.8618832919746637, 0.8782208622433245, 0.8951335789170116, 0.9116442049853504, 0.9286091458052397, 0.9447917507495731, 0.9680010401643813, 0.9785212695132941, 0.9998972585890442, 1.0114913219586015, 1.0346285901032388, 1.044835475506261, 1.0684881566558033, 1.0780867864377797, 1.0950496790464967, 1.1114855534397066, 1.128537534037605, 1.1448334616143256, 1.1679212364833802, 1.178140751319006, 1.1953060545492917, 1.2114849048666656, 1.2284536000806838, 1.24498095177114, 1.2618919617962092, 1.2780609135515988, 1.295013907365501, 1.311654923018068, 1.328549548983574, 1.3449427564628422, 1.3617858411744237, 1.378109416924417, 1.401368199614808, 1.4114054425153881, 1.4285253484267741, 1.4450028652790934, 1.4617821206338704, 1.4782954775728285, 1.4966305296402425, 1.5116334871854633, 1.528651675907895, 1.5447888835333288, 1.561847690725699, 1.5782586478162557, 1.6015283532906324, 1.6114604654721916, 1.6351957493461668, 1.6448206617496908, 1.6678043298888952, 1.6780753859784454, 1.6951451159548014, 1.711456062272191, 1.7285623147618026, 1.744770519901067, 1.7676654413808137, 1.778133446816355, 1.801626042695716, 1.811458826996386, 1.8284865729510784, 1.8447128685656935, 1.8617877184879035, 1.8781123182270676, 1.8951987735927105, 1.9116332824341953, 1.9345189880114049, 1.9447804868686944, 1.9678723576944321, 1.978100405773148, 2.0013445110525936, 2.011525113834068, 2.0285043905023485, 2.044691091636196, 2.0679133518133312, 2.0787680875509977, 2.0951022445224226, 2.1119439639151096, 2.1286440300755203, 2.1455151040572673, 2.1615427436772734, 2.1791678227018565, 2.195371931884438, 2.211339155677706, 2.2343968930654228, 2.244620503857732, 2.267784737283364, 2.278789318399504, 2.2950890008360147, 2.3114030191209167, 2.3286103061400354, 2.3453707883600146, 2.3619568492285907, 2.378123070113361, 2.4012422477826476]
4	images/0305.jpg	images/0352.jpg	right	1.491	[0.0, 0.0, 0.0, 0.0, 0.0, 0.0, 0.0, 0.0, 0.0, 0.0, 0.0, 0.0, 0.0, 0.0, 0.0, 0.0, 1.0, 2.0, 2.0, 4.0, 5.0, 9.0, 12.0, 17.0, 21.0, 28.0, 35.0, 51.0, 60.0, 95.0, 126.0, 166.0, 194.0, 221.0, 251.0, 281.0, 310.0, 322.0, 322.0, 321.0, 313.0, 289.0, 259.0, 200.0, 113.0, 2.0, -198.0, -268.0, -394.0, -494.0, -540.0, -556.0, -560.0, -562.0, -568.0, -580.0, -597.0, -616.0, -632.0, -632.0, -633.0, -633.0, -625.0, -598.0, -538.0, -377.0, -224.0, -57.0, 110.0, 248.0, 367.0, 459.0, 514.0, 546.0, 566.0, 583.0, 587.0, 591.0, 593.0, 594.0, 594.0, 594.0, 594.0, 594.0, 594.0, 594.0, 596.0, 596.0, 596.0]	[-490.0, -490.0, -490.0, -490.0, -490.0, -490.0, -490.0, -490.0, -490.0, -490.0, -490.0, -490.0, -490.0, -490.0, -490.0, -490.0, -490.0, -490.0, -489.0, -486.0, -484.0, -481.0, -477.0, -471.0, -465.0, -455.0, -445.0, -423.0, -414.0, -381.0, -358.0, -326.0, -294.0, -260.0, -223.0, -174.0, -107.0, -63.0, -59.0, -49.0, -38.0, -22.0, -10.0, 15.0, 44.0, 74.0, 131.0, 152.0, 205.0, 248.0, 268.0, 277.0, 280.0, 280.0, 281.0, 284.0, 286.0, 291.0, 295.0, 295.0, 296.0, 296.0, 301.0, 304.0, 312.0, 329.0, 342.0, 342.0, 342.0, 342.0, 342.0, 342.0, 343.0, 346.0, 348.0, 349.0, 351.0, 352.0, 352.0, 353.0, 353.0, 353.0, 353.0, 353.0, 353.0, 353.0, 354.0, 354.0, 354.0]	[0.004402173683047295, 0.008136017015203834, 0.03216689545661211, 0.04211709834635258, 0.058487778063863516, 0.0813260383438319, 0.09244906180538237, 0.10887810960412025, 0.12510338122956455, 0.1421324925031513, 0.16119082947261631, 0.17565448069944978, 0.19171045115217566, 0.21011684159748256, 0.2262052388396114, 0.2426151717081666, 0.2630344037897885, 0.2755217361263931, 0.2925662074703723, 0.30887647112831473, 0.3258881743531674, 0.3420096808113158, 0.358912157593295, 0.37558150361292064, 0.3931840546429157, 0.4086399613879621, 0.42596637387759984, 0.4419636349193752, 0.45891697029583156, 0.48165692668408155, 0.49255944904871285, 0.5088386514689773, 0.5249833683483303, 0.5420920103788376, 0.5592610682360828, 0.5752753959968686, 0.5925106725189835, 0.6088984187226743, 0.6250619092024863, 0.642197857843712, 0.6590877051930875, 0.6757041446398944, 0.6924461948219687, 0.7087953703012317, 0.7251680979970843, 0.7482951260171831, 0.7583446570206434, 0.7773087858222425, 0.7930131831672043, 0.8086694525554776, 0.8286033091135323, 0.850756513653323, 0.8590061948634684, 0.8756782715208828, 0.892393697751686, 0.9086974759120494, 0.9251371049322188, 0.9479528372175992, 0.9590273916255683, 0.9756598738022149, 0.9924879397731274, 1.0087039954960346, 1.0250101631972939, 1.0421764904167503, 1.0590591696090996, 1.0757053052075207, 1.0924231205135584, 1.108669555047527, 1.1250887038186193, 1.142083340557292, 1.158318169414997, 1.177288101054728, 1.1928092024754733, 1.2085849384311587, 1.2287710402160883, 1.242141401162371, 1.259020667290315, 1.2756333521101624, 1.2924023675732315, 1.308656652458012, 1.3250996947754174, 1.3419980753678828, 1.3583015124313533, 1.375285567715764, 1.392961846664548, 1.408767961198464, 1.4286659776698798, 1.4422988242004067, 1.4590739835985005]
5	images/0173.jpg	images/0440.jpg	right	1.037	[0.0, 0.0, 0.0, 0.0, 0.0, 0.0, 0.0, 0.0, 0.0, 0.0, 0.0, 0.0, 0.0, 0.0, 0.0, 0.0, 1.0, 1.0, 3.0, 4.0, 8.0, 10.0, 14.0, 21.0, 29.0, 40.0, 53.0, 68.0, 90.0, 114.0, 147.0, 198.0, 238.0, 290.0, 347.0, 422.0, 584.0, 639.0, 738.0, 812.0, 886.0, 903.0, 934.0, 942.0, 946.0, 948.0, 948.0, 950.0, 952.0, 953.0, 956.0, 957.0, 959.0, 959.0, 959.0, 959.0, 959.0, 959.0, 959.0, 959.0, 959.0, 959.0, 959.0]	[-490.0, -491.0, -491.0, -491.0, -491.0, -491.0, -491.0, -491.0, -491.0, -491.0, -491.0, -491.0, -491.0, -491.0, -491.0, -491.0, -489.0, -488.0, -487.0, -484.0, -478.0, -474.0, -467.0, -457.0, -443.0, -429.0, -410.0, -390.0, -366.0, -337.0, -292.0, -244.0, -212.0, -175.0, -137.0, -73.0, 84.0, 128.0, 209.0, 266.0, 319.0, 330.0, 354.0, 360.0, 364.0, 367.0, 368.0, 370.0, 371.0, 373.0, 376.0, 378.0, 382.0, 384.0, 386.0, 386.0, 386.0, 386.0, 386.0, 386.0, 386.0, 386.0, 386.0]	[0.008357371902093291, 0.011960143456235528, 0.017074679490178823, 0.0317455199547112, 0.05170156294479966, 0.07218394195660949, 0.08295129635371268, 0.09986879164353013, 0.11608416470699012, 0.13924123020842671, 0.149534814292565, 0.16656392556615174, 0.1829424558673054, 0.20638112118467689, 0.21635419339872897, 0.23979285871610045, 0.24942903500050306, 0.2723318072967231, 0.2829459032509476, 0.30651256861165166, 0.3163218009285629, 0.3331444056238979, 0.3497625517193228, 0.36659164167940617, 0.3826974469702691, 0.3999395500868559, 0.4163317335769534, 0.4332086103968322, 0.44951853272505105, 0.4664844973012805, 0.48300980078056455, 0.49986517359502614, 0.516263501252979, 0.5331588098779321, 0.5493936389684677, 0.5723366884049028, 0.5827169711701572, 0.5998723756056279, 0.6161447514314204, 0.6397793418727815, 0.6494110808707774, 0.6726691811345518, 0.6828630957752466, 0.6999898285139352, 0.7161673135124147, 0.7331670701969415, 0.7495339950546622, 0.7665842690039426, 0.7826979246456176, 0.7998519639950246, 0.8163404036313295, 0.839628882240504, 0.8496357465628535, 0.8664795139338821, 0.8830095960292965, 0.8999175340868533, 0.916315179085359, 0.9392722232732922, 0.9497019993141294, 0.9725621049292386, 0.9828369156457484, 0.9999185921624303, 1.0163585625123233]
6	images/0404.jpg	images/0400.jpg	left	0.969	[0.0, 0.0, 0.0, 0.0, 0.0, 0.0, 0.0, 0.0, 0.0, 0.0, 0.0, 0.0, 0.0, 0.0, 0.0, 1.0, 3.0, 4.0, 4.0, 4.0, 4.0, 2.0, -2.0, -10.0, -21.0, -39.0, -69.0, -106.0, -177.0, -231.0, -276.0, -316.0, -360.0, -403.0, -444.0, -489.0, -518.0, -567.0, -583.0, -639.0, -671.0, -688.0, -698.0, -700.0, -700.0, -700.0, -700.0, -700.0, -700.0, -700.0, -700.0, -700.0, -700.0, -700.0, -700.0, -700.0, -700.0, -700.0, -700.0]	[-490.0, -490.0, -490.0, -490.0, -490.0, -490.0, -490.0, -490.0, -490.0, -490.0, -490.0, -490.0, -490.0, -490.0, -490.0, -490.0, -490.0, -488.0, -484.0, -481.0, -474.0, -463.0, -453.0, -436.0, -417.0, -388.0, -352.0, -313.0, -252.0, -209.0, -172.0, -136.0, -87.0, -25.0, 65.0, 142.0, 183.0, 227.0, 240.0, 279.0, 298.0, 309.0, 316.0, 317.0, 318.0, 318.0, 318.0, 318.0, 318.0, 318.0, 318.0, 318.0, 318.0, 315.0, 314.0, 313.0, 313.0, 313.0, 313.0]	[0.005062311887741089, 0.008656208869069815, 0.01369360345415771, 0.03227066062390804, 0.0430356259457767, 0.06006268924102187, 0.0779758533462882, 0.09330273605883121, 0.11223546252585948, 0.12842694227583706, 0.1430383906699717, 0.16002824855968356, 0.1771850185468793, 0.1932727328967303, 0.2101912524085492, 0.22678482253104448, 0.2438415817450732, 0.2600412534084171, 0.2764071545097977, 0.2935117003507912, 0.3103312330786139, 0.32707601389847696, 0.343063376378268, 0.3601221835706383, 0.3768434124067426, 0.3936503157019615, 0.40973427542485297, 0.43274798104539514, 0.44350509555079043, 0.46029186015948653, 0.47729878476820886, 0.49329707003198564, 0.5101514186244458, 0.5270323914010078, 0.5430794872809201, 0.5601676490623504, 0.5799147963989526, 0.5933363575022668, 0.6122520170174539, 0.628505619475618, 0.6437932490371168, 0.6601099979598075, 0.6764547361526638, 0.6992837805300951, 0.7096350498031825, 0.7265528866555542, 0.7430519075132906, 0.7600745335221291, 0.7763428131584078, 0.793416639091447, 0.8097630839329213, 0.8266856994014233, 0.8438161865342408, 0.8600220023654401, 0.8779617904219776, 0.9016359755769372, 0.9102481524460018, 0.9270977226551622, 0.9430922530591488]
7	images/0153.jpg	images/0214.jpg	right	2.071	[0.0, 1.0, 1.0, 1.0, 1.0, 1.0, 1.0, 1.0, 1.0, 1.0, 1.0, 3.0, 3.0, 3.0, 3.0, 4.0, 4.0, 4.0, 4.0, 4.0, 4.0, 4.0, 5.0, 5.0, 5.0, 6.0, 6.0, 6.0, 6.0, 7.0, 7.0, 10.0, 10.0, 13.0, 16.0, 17.0, 19.0, 21.0, 23.0, 23.0, 25.0, 25.0, 25.0, 26.0, 26.0, 26.0, 26.0, 27.0, 27.0, 27.0, 27.0, 28.0, 28.0, 28.0, 28.0, 28.0, 28.0, 28.0, 29.0, 29.0, 29.0, 31.0, 31.0, 31.0, 32.0, 34.0, 34.0, 35.0, 35.0, 40.0, 43.0, 46.0, 47.0, 47.0, 47.0, 47.0, 48.0, 54.0, 59.0, 72.0, 78.0, 83.0, 88.0, 93.0, 96.0, 98.0, 103.0, 108.0, 112.0, 120.0, 126.0, 150.0, 165.0, 215.0, 258.0, 303.0, 358.0, 442.0, 476.0, 543.0, 601.0, 659.0, 714.0, 766.0, 780.0, 790.0, 791.0, 791.0, 791.0, 791.0, 791.0, 788.0, 785.0, 783.0, 779.0, 774.0, 766.0, 758.0, 749.0, 741.0, 737.0, 735.0, 735.0, 735.0, 735.0]	[-490.0, -490.0, -490.0, -490.0, -490.0, -490.0, -490.0, -490.0, -490.0, -490.0, -490.0, -492.0, -492.0, -494.0, -496.0, -497.0, -498.0, -498.0, -498.0, -498.0, -498.0, -498.0, -499.0, -499.0, -499.0, -499.0, -499.0, -499.0, -499.0, -499.0, -499.0, -501.0, -501.0, -502.0, -502.0, -502.0, -502.0, -502.0, -502.0, -502.0, -501.0, -501.0, -501.0, -501.0, -501.0, -501.0, -501.0, -501.0, -501.0, -501.0, -501.0, -501.0, -501.0, -501.0, -501.0, -501.0, -501.0, -501.0, -501.0, -501.0, -504.0, -508.0, -510.0, -513.0, -518.0, -521.0, -522.0, -522.0, -522.0, -522.0, -522.0, -520.0, -520.0, -520.0, -520.0, -518.0, -518.0, -507.0, -500.0, -479.0, -466.0, -454.0, -443.0, -432.0, -427.0, -420.0, -409.0, -396.0, -386.0, -366.0, -354.0, -294.0, -265.0, -165.0, -96.0, -28.0, 34.0, 135.0, 181.0, 279.0, 358.0, 425.0, 490.0, 540.0, 540.0, 540.0, 540.0, 540.0, 540.0, 540.0, 540.0, 534.0, 515.0, 499.0, 480.0, 456.0, 428.0, 403.0, 383.0, 368.0, 364.0, 362.0, 362.0, 362.0, 362.0]	[0.007350097643211484, 0.014494200702756643, 0.017447415040805936, 0.03113794676028192, 0.04763457830995321, 0.06372809526510537, 0.08536895900033414, 0.09708965686149895, 0.11455908813513815, 0.13114617276005447, 0.14772199373692274, 0.16374007612466812, 0.18087158747948706, 0.19704156322404742, 0.2141351862810552, 0.23035704484209418, 0.2530546758789569, 0.26369061693549156, 0.2859588509891182, 0.29862401774153113, 0.31412532180547714, 0.3326050990726799, 0.34757187543436885, 0.3637162512168288, 0.38082250370644033, 0.3987544411793351, 0.41414105729199946, 0.4327082158997655, 0.44759955746121705, 0.46458463673479855, 0.48065391927957535, 0.49710276420228183, 0.5142400781624019, 0.530390256550163, 0.5474821729585528, 0.5653697371017188, 0.5816076381597668, 0.6015012173447758, 0.6143793761730194, 0.631297554122284, 0.647270921850577, 0.6651223048102111, 0.681376931257546, 0.6979636745527387, 0.7139885837677866, 0.7307702284306288, 0.7475122786127031, 0.7641874274704605, 0.7809735094197094, 0.7978763275314122, 0.8139244471676648, 0.8306859533768147, 0.8475952567532659, 0.8645540534052998, 0.8807922957930714, 0.8970496526453644, 0.9139866039622575, 0.9311894539278001, 0.9477171467151493, 0.9637243065517396, 0.9865007856860757, 0.9979009716771543, 1.0140303287189454, 1.0308051470201463, 1.0539134016726166, 1.0645490016322583, 1.0806906467769295, 1.097081123618409, 1.1142266294918954, 1.1303327758796513, 1.1535741507541388, 1.164540161145851, 1.1806613262742758, 1.1970739897806197, 1.220332431141287, 1.230359775479883, 1.2532816622406244, 1.2636906169354916, 1.2865121520590037, 1.2986462044063956, 1.3140976738650352, 1.331687254132703, 1.356369054876268, 1.3636783631518483, 1.380719420965761, 1.3978799455799162, 1.413961174665019, 1.4310322699602693, 1.4503046227619052, 1.464530706172809, 1.480684297857806, 1.4970481507480145, 1.5142045794054866, 1.5311534774955362, 1.547657276969403, 1.563717343378812, 1.586263422621414, 1.5970038117375225, 1.614139418816194, 1.6309995702467859, 1.6476556044071913, 1.6637603854760528, 1.680890872841701, 1.6988009649794549, 1.7140858636703342, 1.7329786540940404, 1.7560729142278433, 1.7636197903193533, 1.786149485502392, 1.7986805085092783, 1.814277385827154, 1.8326346243266016, 1.848375885747373, 1.8645165066700429, 1.8806834104470909, 1.8970554554834962, 1.914346027886495, 1.9303566010203212, 1.9474546615965664, 1.9645274635404348, 1.9807288418523967, 1.9970548069104552, 2.0141351181082428, 2.0311485279817134, 2.0477164981421083]
8	images/0271.jpg	images/0105.jpg	right	0.963	[0.0, 0.0, 0.0, 0.0, 0.0, 0.0, 0.0, 0.0, 0.0, 0.0, 3.0, 5.0, 5.0, 6.0, 6.0, 7.0, 8.0, 10.0, 14.0, 19.0, 31.0, 41.0, 58.0, 102.0, 143.0, 175.0, 216.0, 231.0, 257.0, 286.0, 311.0, 338.0, 370.0, 388.0, 410.0, 433.0, 460.0, 475.0, 488.0, 500.0, 519.0, 538.0, 552.0, 562.0, 573.0, 586.0, 603.0, 624.0, 638.0, 653.0, 669.0, 683.0, 694.0, 698.0, 699.0, 699.0, 699.0, 699.0]	[-490.0, -490.0, -490.0, -490.0, -490.0, -490.0, -490.0, -490.0, -490.0, -490.0, -490.0, -490.0, -490.0, -490.0, -490.0, -490.0, -488.0, -486.0, -483.0, -478.0, -469.0, -464.0, -452.0, -422.0, -391.0, -364.0, -319.0, -302.0, -257.0, -215.0, -184.0, -145.0, -89.0, -60.0, -21.0, 13.0, 47.0, 70.0, 91.0, 113.0, 140.0, 168.0, 185.0, 199.0, 211.0, 226.0, 244.0, 269.0, 284.0, 295.0, 306.0, 314.0, 321.0, 325.0, 326.0, 326.0, 326.0, 326.0]	[0.0009233059827238321, 0.005878780968487263, 0.017937398748472333, 0.034864792600274086, 0.05184918944723904, 0.06842671683989465, 0.08535274560563266, 0.10127457208000124, 0.11842178460210562, 0.13518226658925414, 0.15122629050165415, 0.17001565685495734, 0.18447282281704247, 0.20723974448628724, 0.21788524300791323, 0.23496691952459514, 0.2519110389985144, 0.26806940929964185, 0.2845588729251176, 0.3050272569525987, 0.31931921769864857, 0.3352096416056156, 0.3518742090091109, 0.36814863281324506, 0.3845711948815733, 0.4075022980105132, 0.41844168421812356, 0.43511307844892144, 0.45187390176579356, 0.4681353548076004, 0.4844449358060956, 0.5073603375349194, 0.5177436920348555, 0.5347571021411568, 0.5510311843827367, 0.5745562070515007, 0.5843893326818943, 0.6069579396862537, 0.6178191609214991, 0.6348438349086791, 0.6525897458195686, 0.6679562232457101, 0.686372512485832, 0.7014543181285262, 0.7177860857918859, 0.734868444968015, 0.7525791984517127, 0.7688495262991637, 0.7846105848439038, 0.8015246668364853, 0.8184537675697356, 0.8351272095460445, 0.8517996277660131, 0.8681102327536792, 0.8844235683791339, 0.9070037808269262, 0.9185241162776947, 0.9346449400763959]
9	images/0083.jpg	images/0191.jpg	right	2.845	[0.0, 2.0, 2.0, 2.0, 4.0, 5.0, 6.0, 7.0, 8.0, 9.0, 9.0, 9.0, 9.0, 10.0, 12.0, 13.0, 16.0, 18.0, 22.0, 35.0, 49.0, 69.0, 92.0, 114.0, 137.0, 159.0, 182.0, 202.0, 226.0, 261.0, 311.0, 327.0, 342.0, 355.0, 373.0, 380.0, 398.0, 405.0, 427.0, 448.0, 461.0, 469.0, 476.0, 479.0, 481.0, 483.0, 483.0, 483.0, 483.0, 483.0, 483.0, 483.0, 483.0, 483.0, 483.0, 483.0, 483.0, 483.0, 483.0, 483.0, 483.0, 483.0, 483.0, 483.0, 483.0, 483.0, 483.0, 483.0, 483.0, 483.0, 483.0, 483.0, 483.0, 483.0, 483.0, 483.0, 483.0, 483.0, 483.0, 483.0, 483.0, 483.0, 483.0, 483.0, 483.0, 483.0, 483.0, 483.0, 483.0, 483.0, 483.0, 483.0, 483.0, 483.0, 483.0, 483.0, 483.0, 483.0, 483.0, 483.0, 483.0, 483.0, 483.0, 483.0, 483.0, 483.0, 483.0, 483.0, 483.0, 483.0, 483.0, 483.0, 483.0, 483.0, 483.0, 483.0, 483.0, 483.0, 483.0, 483.0, 483.0, 483.0, 483.0, 483.0, 483.0, 486.0, 487.0, 488.0, 489.0, 490.0, 490.0, 490.0, 490.0, 490.0, 490.0, 490.0, 491.0, 491.0, 493.0, 495.0, 496.0, 497.0, 498.0, 499.0, 500.0, 502.0, 503.0, 503.0, 503.0, 504.0, 504.0, 504.0, 504.0, 505.0, 506.0, 507.0, 508.0, 509.0, 510.0, 512.0, 513.0, 525.0, 540.0, 561.0, 583.0, 609.0, 651.0, 661.0, 667.0, 667.0, 667.0]	[-490.0, -490.0, -490.0, -490.0, -490.0, -490.0, -490.0, -490.0, -490.0, -490.0, -488.0, -487.0, -485.0, -484.0, -480.0, -478.0, -472.0, -469.0, -462.0, -442.0, -426.0, -405.0, -378.0, -349.0, -314.0, -268.0, -221.0, -182.0, -142.0, -99.0, -42.0, -18.0, 3.0, 27.0, 62.0, 74.0, 109.0, 127.0, 171.0, 210.0, 233.0, 248.0, 262.0, 269.0, 275.0, 279.0, 281.0, 281.0, 281.0, 281.0, 281.0, 281.0, 281.0, 281.0, 281.0, 281.0, 281.0, 281.0, 281.0, 281.0, 281.0, 281.0, 281.0, 281.0, 281.0, 281.0, 281.0, 281.0, 281.0, 281.0, 281.0, 281.0, 281.0, 281.0, 281.0, 281.0, 281.0, 281.0, 281.0, 281.0, 281.0, 281.0, 281.0, 281.0, 281.0, 281.0, 281.0, 281.0, 281.0, 281.0, 281.0, 281.0, 281.0, 281.0, 281.0, 281.0, 281.0, 281.0, 281.0, 281.0, 281.0, 281.0, 281.0, 281.0, 281.0, 281.0, 281.0, 281.0, 281.0, 281.0, 281.0, 281.0, 281.0, 281.0, 281.0, 281.0, 281.0, 281.0, 281.0, 281.0, 281.0, 281.0, 281.0, 281.0, 281.0, 285.0, 287.0, 289.0, 290.0, 290.0, 290.0, 290.0, 290.0, 291.0, 291.0, 292.0, 294.0, 294.0, 296.0, 297.0, 298.0, 298.0, 299.0, 299.0, 300.0, 301.0, 302.0, 303.0, 303.0, 303.0, 303.0, 304.0, 304.0, 305.0, 306.0, 306.0, 306.0, 308.0, 308.0, 308.0, 309.0, 313.0, 317.0, 319.0, 323.0, 327.0, 333.0, 334.0, 335.0, 335.0, 335.0]	[0.013693262124434114, 0.018128545256331563, 0.026764956768602133, 0.04935472644865513, 0.06079314206726849, 0.07683170447126031, 0.0939877915661782, 0.11131420405581594, 0.12670798832550645, 0.14374017156660557, 0.1607313947752118, 0.17689693323336542, 0.194044828414917, 0.2105001586023718, 0.22740570735186338, 0.24355793371796608, 0.25994499726220965, 0.2769392926711589, 0.294005609350279, 0.3104687901213765, 0.32666607247665524, 0.34376345039345324, 0.3617216704878956, 0.37697072932496667, 0.393975947285071, 0.4105432350188494, 0.42745731701143086, 0.4436163699720055, 0.46010071341879666, 0.48276660055853426, 0.49392614676617086, 0.5106166556943208, 0.5266210848931223, 0.5497590356972069, 0.5598454305436462, 0.5828632321208715, 0.5931670560967177, 0.6102303005754948, 0.626593129709363, 0.6436471582856029, 0.6599140726029873, 0.6768469279631972, 0.6949918572790921, 0.7103521907702088, 0.7302928739227355, 0.7436956616584212, 0.7599438026081771, 0.7805009335279465, 0.793288980377838, 0.8101948702242225, 0.826596952509135, 0.8500912552699447, 0.859835292911157, 0.8827609345316887, 0.8932562463451177, 0.9103020830079913, 0.9281029484700412, 0.9434779593721032, 0.9619522753637284, 0.9782690242864192, 0.9939829788636416, 1.0106670022942126, 1.0255856506992131, 1.0489608279895037, 1.0598244385328144, 1.0826316375751048, 1.0940072475932539, 1.1102588020730764, 1.1268059508875012, 1.1437111580744386, 1.1615215810015798, 1.1769037598278373, 1.195700976997614, 1.210751379840076, 1.2274999152868986, 1.2436374644748867, 1.2599453385919333, 1.2820961540564895, 1.2932096202857792, 1.310252043651417, 1.3282986690755934, 1.343510522507131, 1.361682758666575, 1.3772943131625652, 1.3932697291020304, 1.4102353523485363, 1.4282225859351456, 1.443416348658502, 1.4648858630098403, 1.476854369044304, 1.4932881952263415, 1.5102695198729634, 1.528148892102763, 1.543571006739512, 1.565802376717329, 1.5789812500588596, 1.5932834506966174, 1.6102320072241127, 1.6265903988387436, 1.6493010006379336, 1.659847512608394, 1.6821372504346073, 1.6932141941506416, 1.7102474013809115, 1.7281848003622144, 1.7447408237494528, 1.7601878559216857, 1.7770749726332724, 1.7939863239880651, 1.8106908274348825, 1.8266092406120151, 1.8436919411178678, 1.860436721937731, 1.8772292893845588, 1.893895563436672, 1.9104372509755194, 1.928290681913495, 1.9433960393071175, 1.9606627186294645, 1.977047392865643, 1.9932665205560625, 2.0102577437646687, 2.0282186947297305, 2.0435506973881274, 2.061492533655837, 2.077136173611507, 2.093259386718273, 2.110371441813186, 2.1269912947900593, 2.1438726086635143, 2.159954179311171, 2.1770580424927175, 2.19399396982044, 2.2106298652943224, 2.2266322465147823, 2.2491817388217896, 2.2598596641328186, 2.2823828738182783, 2.293903891928494, 2.310544566018507, 2.326641155174002, 2.3436163358855993, 2.3615028760395944, 2.377143102698028, 2.3933762251399457, 2.4106685041915625, 2.4267060426063836, 2.443773041944951, 2.460364222759381, 2.477188534103334, 2.4932690805289894, 2.5103889864403754, 2.527436529751867, 2.5436003615614027, 2.559920182451606, 2.5821812483482063, 2.593159205513075, 2.6103432818781585, 2.626521108439192, 2.643548854161054, 2.660798125434667, 2.6771199943032116, 2.7002999291289598, 2.710408851969987, 2.726729355752468, 2.7494781867135316, 2.7601144693326205, 2.7833599399309605, 2.793380799004808, 2.8164303444791585, 2.826756355119869]
10	images/0375.jpg	images/0053.jpg	left	0.95	[0.0, 0.0, 0.0, 0.0, 0.0, 0.0, 1.0, 1.0, 1.0, 1.0, 1.0, 0.0, -1.0, -1.0, -3.0, -3.0, -3.0, -3.0, -3.0, -3.0, -4.0, -5.0, -9.0, -14.0, -19.0, -27.0, -38.0, -52.0, -71.0, -95.0, -121.0, -140.0, -181.0, -239.0, -304.0, -404.0, -470.0, -518.0, -587.0, -604.0, -652.0, -664.0, -707.0, -721.0, -757.0, -765.0, -792.0, -805.0, -807.0, -807.0, -807.0, -807.0, -807.0, -807.0, -807.0, -807.0]	[-490.0, -490.0, -490.0, -490.0, -490.0, -490.0, -490.0, -489.0, -488.0, -486.0, -483.0, -480.0, -479.0, -477.0, -476.0, -476.0, -473.0, -471.0, -469.0, -466.0, -461.0, -455.0, -443.0, -422.0, -406.0, -386.0, -366.0, -344.0, -315.0, -275.0, -242.0, -219.0, -176.0, -128.0, -84.0, -23.0, 29.0, 64.0, 116.0, 129.0, 164.0, 175.0, 215.0, 232.0, 276.0, 286.0, 321.0, 338.0, 344.0, 345.0, 345.0, 345.0, 345.0, 345.0, 345.0, 345.0]	[0.004790610866621137, 0.008362662512809038, 0.026042013429105282, 0.04274651687592268, 0.05917454045265913, 0.07600158243440092, 0.09258013404905796, 0.10953517584130168, 0.1258447568397969, 0.14257042296230793, 0.15928414254449308, 0.17616170179098845, 0.19262385880574584, 0.2092829649336636, 0.22649742010980844, 0.24267251580022275, 0.2597603362519294, 0.27588730421848595, 0.29308059671893716, 0.3094468389172107, 0.3263254223857075, 0.3425612752325833, 0.359645341290161, 0.37587709818035364, 0.392982326913625, 0.4132005136925727, 0.42628483776934445, 0.44283813051879406, 0.4595934927929193, 0.4758764496073127, 0.4928523129783571, 0.5091407313011587, 0.5263367544393986, 0.5424644050654024, 0.5595692922361195, 0.5758095826022327, 0.5927444859407842, 0.6166053803171962, 0.6262545273639262, 0.6481373962014914, 0.6595717156305909, 0.6831841196399182, 0.6928015225566924, 0.714976231334731, 0.7261685456614941, 0.742814339697361, 0.7597632377874106, 0.7774801352061331, 0.795014419592917, 0.809241185663268, 0.8262849743478, 0.8424904486164451, 0.8594939599279314, 0.8757878395263106, 0.8928975055459887, 0.9095194062683731]
11	images/0515.jpg	images/0152.jpg	left	0.949	[0.0, 0.0, 0.0, 0.0, 0.0, 0.0, 0.0, 0.0, 0.0, 0.0, 0.0, 0.0, 0.0, 0.0, 0.0, 0.0, 0.0, 0.0, 0.0, 0.0, 0.0, 0.0, 0.0, 0.0, 0.0, -4.0, -11.0, -24.0, -71.0, -106.0, -143.0, -183.0, -282.0, -334.0, -458.0, -586.0, -703.0, -789.0, -824.0, -830.0, -830.0, -830.0, -830.0, -830.0, -830.0, -830.0, -828.0, -824.0, -824.0, -823.0, -823.0, -823.0, -823.0, -823.0, -823.0, -823.0, -823.0]	[-490.0, -490.0, -490.0, -490.0, -490.0, -490.0, -490.0, -490.0, -490.0, -490.0, -490.0, -490.0, -490.0, -490.0, -490.0, -490.0, -490.0, -490.0, -490.0, -490.0, -486.0, -484.0, -477.0, -473.0, -464.0, -448.0, -426.0, -395.0, -313.0, -254.0, -195.0, -135.0, -23.0, 23.0, 131.0, 229.0, 314.0, 371.0, 398.0, 401.0, 401.0, 401.0, 401.0, 401.0, 401.0, 401.0, 396.0, 392.0, 391.0, 391.0, 391.0, 391.0, 391.0, 391.0, 391.0, 391.0, 391.0]	[0.005395623855292797, 0.011632463429123163, 0.02711362880654633, 0.04323206306435168, 0.060639030300080776, 0.0771912990603596, 0.09310186165384948, 0.11558069800958037, 0.12778131058439612, 0.1433106039185077, 0.1620887063909322, 0.18477814528159797, 0.19376135151833296, 0.2099429324734956, 0.22636037482880056, 0.24907541368156672, 0.26029298664070666, 0.2770162634551525, 0.29301796201616526, 0.3157995608635247, 0.32621909701265395, 0.3489709999412298, 0.3595526691060513, 0.37670192983932793, 0.3937528864480555, 0.40989896887913346, 0.42637375509366393, 0.44332060497254133, 0.460361321689561, 0.4769166624173522, 0.4930112035945058, 0.5157914371229708, 0.5262314532883465, 0.5433940256480128, 0.5596251001115888, 0.5768736887257546, 0.5939959839452058, 0.609932487597689, 0.626325695309788, 0.6473313379101455, 0.6603258911054581, 0.6769996746443212, 0.6930177570320666, 0.7099966923706234, 0.7271254730876535, 0.7433248034212738, 0.7605389172676951, 0.7768553248606622, 0.7938233376480639, 0.8099383586086333, 0.8262994808610529, 0.8432681763079017, 0.8596589944791049, 0.8767567137256265, 0.8944971633609384, 0.9098581795115024, 0.9286816790699959]
12	images/0553.jpg	images/0171.jpg	left	2.075	[0.0, 0.0, 0.0, 0.0, 0.0, 0.0, 0.0, 0.0, 0.0, 0.0, 0.0, 0.0, 0.0, 0.0, 0.0, 0.0, 0.0, -1.0, -1.0, -5.0, -12.0, -16.0, -16.0, -14.0, -11.0, -2.0, 13.0, 34.0, 39.0, 39.0, 52.0, 73.0, 88.0, 106.0, 129.0, 141.0, 149.0, 153.0, 153.0, 153.0, 151.0, 141.0, 123.0, 94.0, 55.0, -12.0, -62.0, -123.0, -201.0, -313.0, -343.0, -404.0, -417.0, -446.0, -477.0, -483.0, -485.0, -485.0, -485.0, -490.0, -500.0, -518.0, -542.0, -567.0, -571.0, -580.0, -586.0, -594.0, -598.0, -600.0, -600.0, -600.0, -600.0, -600.0, -600.0, -593.0, -567.0, -527.0, -453.0, -361.0, -244.0, -181.0, -109.0, 35.0, 88.0, 257.0, 303.0, 352.0, 378.0, 394.0, 409.0, 423.0, 436.0, 453.0, 454.0, 454.0, 454.0, 454.0, 455.0, 455.0, 447.0, 422.0, 360.0, 271.0, 163.0, -56.0, -222.0, -392.0, -536.0, -607.0, -632.0, -646.0, -655.0, -657.0, -660.0, -668.0, -672.0, -687.0, -687.0, -687.0, -688.0, -688.0, -689.0, -688.0]	[-490.0, -490.0, -490.0, -490.0, -490.0, -490.0, -490.0, -490.0, -490.0, -490.0, -490.0, -490.0, -490.0, -490.0, -490.0, -490.0, -490.0, -489.0, -486.0, -475.0, -457.0, -437.0, -432.0, -409.0, -377.0, -340.0, -288.0, -182.0, -137.0, -45.0, 89.0, 222.0, 312.0, 372.0, 459.0, 517.0, 540.0, 540.0, 540.0, 540.0, 540.0, 540.0, 540.0, 540.0, 540.0, 540.0, 540.0, 537.0, 519.0, 468.0, 449.0, 396.0, 381.0, 346.0, 319.0, 315.0, 315.0, 315.0, 315.0, 317.0, 323.0, 331.0, 338.0, 345.0, 347.0, 350.0, 352.0, 356.0, 356.0, 356.0, 356.0, 356.0, 356.0, 356.0, 356.0, 356.0, 356.0, 356.0, 356.0, 356.0, 360.0, 368.0, 386.0, 415.0, 422.0, 442.0, 442.0, 442.0, 442.0, 442.0, 442.0, 441.0, 440.0, 440.0, 440.0, 440.0, 440.0, 440.0, 439.0, 436.0, 431.0, 422.0, 414.0, 407.0, 407.0, 407.0, 421.0, 445.0, 466.0, 469.0, 469.0, 469.0, 468.0, 465.0, 459.0, 451.0, 449.0, 441.0, 440.0, 440.0, 440.0, 440.0, 439.0, 434.0]	[0.00821145181544125, 0.013983395416289568, 0.0271752392873168, 0.044523497112095356, 0.0604767263866961, 0.07836053590290248, 0.09419702901504934, 0.11034857272170484, 0.12757941195741296, 0.14354083314538002, 0.1604689098894596, 0.1785220205783844, 0.19388133008033037, 0.2123221952933818, 0.23504610895179212, 0.24363063788041472, 0.2607420105487108, 0.278378012124449, 0.29383972147479653, 0.3127048637252301, 0.33513181773014367, 0.34354875213466585, 0.3607140553649515, 0.378140137065202, 0.39395068888552487, 0.41025310195982456, 0.4328490155749023, 0.4434835915453732, 0.460581993451342, 0.4776684488169849, 0.4938029258046299, 0.510253818705678, 0.527230023406446, 0.544251625193283, 0.5609151688404381, 0.5768980938009918, 0.5938855626154691, 0.6106788127217442, 0.6276328305248171, 0.6435235957615077, 0.6606250696349889, 0.6776811461895704, 0.6938019699882716, 0.7102989428676665, 0.7333423444069922, 0.7442465736530721, 0.7608517489861697, 0.7768991861958057, 0.799713211832568, 0.8101528864353895, 0.8332901545800269, 0.843527760123834, 0.8607067165430635, 0.8776924784760922, 0.8937955528963357, 0.9103368991054595, 0.9333444607909769, 0.9442179698962718, 0.9608627399429679, 0.9769364597741514, 0.9939399710856378, 1.010181968100369, 1.0336025427095592, 1.043470484437421, 1.060571275651455, 1.0776751388330013, 1.093813029350713, 1.1101983862463385, 1.1272790387738496, 1.1435848651453853, 1.1667163306847215, 1.1767907787580043, 1.1995204950217158, 1.2116610328666866, 1.22719612903893, 1.2469149455428123, 1.2608986822888255, 1.2785438999999315, 1.293732542777434, 1.3104315849486738, 1.3272811551578343, 1.3442508743610233, 1.3608427378349006, 1.3758723195642233, 1.3999837525188923, 1.4104879391379654, 1.4269299574662, 1.4436706420965493, 1.460198676213622, 1.476855051703751, 1.4934926538262516, 1.5103978612460196, 1.5270033781416714, 1.5436075297184289, 1.5602628809865564, 1.5769684084225446, 1.5941453170962632, 1.6102528288029134, 1.627571732038632, 1.6435846944805235, 1.6608131441753358, 1.6772636957466602, 1.6940545565448701, 1.7103556043002754, 1.7272410143632442, 1.7438284405507147, 1.7606780105270445, 1.7769906634930521, 1.7940726813394576, 1.810441313078627, 1.8275878429412842, 1.84364381339401, 1.8607360711321235, 1.8771726281847805, 1.8977427296340466, 1.9106481950730085, 1.927361914422363, 1.9474797495640814, 1.9606664734892547, 1.9870334358420223, 1.993703427258879, 2.0104666398838162, 2.0274810739792883, 2.0532001859974116]
13	images/0054.jpg	images/0587.jpg	right	1.514	[0.0, 0.0, 0.0, 0.0, 0.0, 0.0, 0.0, 0.0, 0.0, 0.0, 0.0, 0.0, 0.0, 0.0, 0.0, 0.0, 0.0, -1.0, -2.0, -3.0, -4.0, -4.0, -8.0, -12.0, -25.0, -39.0, -59.0, -92.0, -130.0, -179.0, -225.0, -279.0, -328.0, -379.0, -422.0, -464.0, -515.0, -567.0, -656.0, -728.0, -809.0, -866.0, -885.0, -890.0, -890.0, -890.0, -881.0, -870.0, -857.0, -843.0, -826.0, -815.0, -802.0, -787.0, -770.0, -722.0, -697.0, -633.0, -547.0, -379.0, -322.0, -127.0, -18.0, 76.0, 147.0, 208.0, 272.0, 365.0, 394.0, 446.0, 501.0, 585.0, 607.0, 650.0, 659.0, 665.0, 665.0, 666.0, 668.0, 672.0, 678.0, 684.0, 699.0, 713.0, 725.0, 729.0, 729.0, 729.0, 729.0, 729.0, 729.0]	[-490.0, -490.0, -490.0, -490.0, -490.0, -490.0, -490.0, -490.0, -490.0, -490.0, -490.0, -490.0, -490.0, -490.0, -490.0, -490.0, -490.0, -488.0, -484.0, -481.0, -476.0, -472.0, -463.0, -452.0, -427.0, -409.0, -383.0, -341.0, -281.0, -220.0, -179.0, -142.0, -109.0, -78.0, -52.0, -31.0, -9.0, 7.0, 39.0, 70.0, 104.0, 129.0, 137.0, 140.0, 146.0, 152.0, 165.0, 180.0, 195.0, 213.0, 242.0, 264.0, 288.0, 310.0, 329.0, 360.0, 369.0, 392.0, 414.0, 462.0, 485.0, 540.0, 540.0, 540.0, 540.0, 530.0, 514.0, 488.0, 479.0, 464.0, 447.0, 425.0, 418.0, 409.0, 406.0, 404.0, 404.0, 403.0, 400.0, 395.0, 390.0, 386.0, 376.0, 369.0, 362.0, 359.0, 359.0, 359.0, 359.0, 359.0, 359.0]	[0.014118563383817673, 0.01913104089908302, 0.02885596384294331, 0.04471430252306163, 0.06163657642900944, 0.07808269071392715, 0.0941516316961497, 0.11806372622959316, 0.12741284142248333, 0.14594484260305762, 0.16067985375411808, 0.17777962097898126, 0.19471554830670357, 0.21125177456997335, 0.22779346210882068, 0.24417779501527548, 0.2610003997106105, 0.27746426314115524, 0.2942110919393599, 0.31078930222429335, 0.32757709082216024, 0.34412458119913936, 0.36079222057014704, 0.3783459609840065, 0.3943172807339579, 0.41190788499079645, 0.4277716849464923, 0.4450274414848536, 0.46108136395923793, 0.47913140268065035, 0.4947866480797529, 0.5108429598622024, 0.5276805830653757, 0.5449895875062793, 0.5609742193482816, 0.5776084081735462, 0.5943869811017066, 0.6125213289633393, 0.6278437746223062, 0.6457743467763066, 0.6612121628131717, 0.6792069056537002, 0.6944081778638065, 0.7176833446137607, 0.7278837447520345, 0.7449732718523592, 0.7610428957268596, 0.777548743179068, 0.7942785052582622, 0.8117493016179651, 0.8277260828763247, 0.8454385430086404, 0.8613258949480951, 0.8774890440981835, 0.902026119409129, 0.9107990642078221, 0.9279797275085002, 0.944341532420367, 0.9683160907588899, 0.9777409820817411, 1.001011370215565, 1.0112138183321804, 1.028006044216454, 1.044404371874407, 1.065270067891106, 1.0778041628655046, 1.1013769721612334, 1.110871153883636, 1.1279951557517052, 1.1442668486852199, 1.1674580476246774, 1.1775976903736591, 1.196645445888862, 1.2109094173647463, 1.2278904006816447, 1.244214317528531, 1.2612362608779222, 1.2775369673036039, 1.2946698437444866, 1.3108794142026454, 1.328054957324639, 1.3444211995229125, 1.3612390256021172, 1.3776052680332214, 1.3946422298904508, 1.4111040455754846, 1.4280860528815538, 1.4443382897879928, 1.4650770097505301, 1.4775298675522208, 1.500708095729351]
14	images/0009.jpg	images/0374.jpg	right	0.965	[0.0, 0.0, 0.0, 0.0, 0.0, 0.0, 0.0, 0.0, 0.0, 0.0, 0.0, 0.0, -1.0, -2.0, -2.0, -2.0, -2.0, -2.0, -2.0, -2.0, -1.0, 16.0, 24.0, 61.0, 76.0, 135.0, 205.0, 310.0, 346.0, 450.0, 487.0, 557.0, 626.0, 682.0, 724.0, 752.0, 754.0, 756.0, 756.0, 756.0, 756.0, 756.0, 756.0, 756.0, 744.0, 739.0, 738.0, 729.0, 725.0, 714.0, 708.0, 705.0, 702.0, 702.0, 702.0, 702.0, 702.0, 702.0]	[-490.0, -490.0, -490.0, -490.0, -490.0, -490.0, -490.0, -490.0, -490.0, -490.0, -490.0, -490.0, -491.0, -491.0, -491.0, -491.0, -491.0, -491.0, -491.0, -489.0, -486.0, -461.0, -448.0, -389.0, -362.0, -253.0, -160.0, -50.0, -19.0, 59.0, 77.0, 121.0, 161.0, 194.0, 216.0, 232.0, 234.0, 236.0, 236.0, 236.0, 236.0, 236.0, 236.0, 240.0, 242.0, 247.0, 253.0, 273.0, 281.0, 297.0, 305.0, 310.0, 313.0, 313.0, 313.0, 313.0, 313.0, 313.0]	[0.0036444140132516623, 0.00819131312891841, 0.02368954522535205, 0.040107670007273555, 0.06195845361799002, 0.07329037296585739, 0.09621021198108792, 0.10663555073551834, 0.12383908312767744, 0.1399943814612925, 0.1570330501999706, 0.1748776063323021, 0.19098307006061077, 0.21134427562355995, 0.22385550127364695, 0.24008657573722303, 0.2570774576161057, 0.2734675931278616, 0.29648539470508695, 0.30670422688126564, 0.3301845348905772, 0.34022314311005175, 0.36381916305981576, 0.3736103046685457, 0.396875572623685, 0.4069742555730045, 0.43032656353898346, 0.44002622785046697, 0.4631382373627275, 0.47351442417129874, 0.4906254552770406, 0.5066292018163949, 0.5237695877440274, 0.5400679046288133, 0.5634007568005472, 0.5734352690633386, 0.5963711505755782, 0.6067353906109929, 0.6295343975070864, 0.6402123228181154, 0.6631686843466014, 0.6736551215872169, 0.6905616943258792, 0.7066859314218163, 0.7239116507116705, 0.7401987037155777, 0.7634953742381185, 0.7733906225766987, 0.7962223975919187, 0.8068771120160818, 0.8237304368522018, 0.8400591325480491, 0.8571049689780921, 0.8734340060036629, 0.8904013361316174, 0.906764165032655, 0.9237649457063526, 0.940042782574892]
15	images/0088.jpg	images/0272.jpg	left	1.119	[0.0, 1.0, 1.0, 1.0, 1.0, 1.0, 1.0, 1.0, 1.0, 1.0, 1.0, 1.0, 1.0, 1.0, 1.0, 1.0, 2.0, 3.0, 5.0, 16.0, 18.0, 29.0, 44.0, 65.0, 96.0, 164.0, 187.0, 257.0, 288.0, 365.0, 399.0, 440.0, 457.0, 495.0, 501.0, 508.0, 508.0, 504.0, 496.0, 433.0, 355.0, 214.0, 156.0, 34.0, -111.0, -284.0, -449.0, -631.0, -663.0, -693.0, -697.0, -705.0, -711.0, -720.0, -723.0, -724.0, -724.0, -725.0, -725.0, -726.0, -726.0, -721.0, -720.0, -716.0, -716.0, -716.0, -716.0]	[-490.0, -491.0, -491.0, -491.0, -491.0, -491.0, -491.0, -491.0, -491.0, -491.0, -491.0, -490.0, -488.0, -488.0, -488.0, -488.0, -487.0, -485.0, -484.0, -477.0, -475.0, -465.0, -451.0, -434.0, -411.0, -356.0, -337.0, -251.0, -213.0, -106.0, -57.0, 3.0, 33.0, 90.0, 100.0, 115.0, 121.0, 129.0, 132.0, 146.0, 157.0, 170.0, 176.0, 194.0, 211.0, 231.0, 239.0, 239.0, 239.0, 239.0, 239.0, 239.0, 238.0, 236.0, 236.0, 236.0, 236.0, 236.0, 236.0, 237.0, 238.0, 248.0, 251.0, 262.0, 262.0, 262.0, 262.0]	[0.015723682707175612, 0.020620106952264905, 0.029819376999512315, 0.046357309678569436, 0.06333829299546778, 0.07970282877795398, 0.10005515953525901, 0.1127995157148689, 0.12977298977784812, 0.14638669858686626, 0.16339669516310096, 0.17941204691305757, 0.19649304100312293, 0.21284426446072757, 0.2298416318371892, 0.2463846846949309, 0.26337932143360376, 0.27966705709695816, 0.3026787145063281, 0.3129712746012956, 0.32998707378283143, 0.34613588685169816, 0.36332303541712463, 0.3794684351887554, 0.4020626423880458, 0.4130631273146719, 0.4360102729406208, 0.44631443824619055, 0.46326538431458175, 0.47975928522646427, 0.5025432736147195, 0.5130969535093755, 0.5366605466697365, 0.5461919337976724, 0.5632701970171183, 0.5797006101347506, 0.6028689395170659, 0.612814363790676, 0.635988837108016, 0.6463520531542599, 0.6696299507748336, 0.6797197589185089, 0.6965502141974866, 0.7130048617254943, 0.7300073490478098, 0.7462203328032047, 0.7695808329153806, 0.7796344596426934, 0.8035404100082815, 0.8130984213203192, 0.8364107932429761, 0.8463531455490738, 0.8706506050657481, 0.8795160511508584, 0.9026533192954957, 0.9128813673742115, 0.9357322570867836, 0.946209478424862, 0.9691648159641773, 0.979496288113296, 1.0030322333332151, 1.0128015296068043, 1.029939184896648, 1.0461682111490518, 1.063313034363091, 1.0794027969241142, 1.0965390866622329]
16	images/0497.jpg	images/0085.jpg	right	1.624	[0.0, 0.0, 0.0, 0.0, 0.0, 0.0, 0.0, 0.0, 0.0, 0.0, 0.0, -7.0, -7.0, -7.0, -8.0, -8.0, -7.0, -5.0, -2.0, 2.0, 8.0, 19.0, 31.0, 42.0, 55.0, 69.0, 83.0, 97.0, 114.0, 137.0, 192.0, 219.0, 263.0, 308.0, 326.0, 340.0, 355.0, 363.0, 366.0, 366.0, 366.0, 366.0, 366.0, 366.0, 366.0, 366.0, 366.0, 354.0, 331.0, 319.0, 318.0, 315.0, 311.0, 311.0, 311.0, 311.0, 303.0, 256.0, 199.0, 115.0, 2.0, -133.0, -271.0, -458.0, -504.0, -572.0, -607.0, -621.0, -624.0, -625.0, -625.0, -627.0, -627.0, -626.0, -605.0, -494.0, -449.0, -337.0, -127.0, -42.0, 242.0, 436.0, 605.0, 716.0, 768.0, 792.0, 797.0, 797.0, 797.0, 797.0, 797.0, 797.0, 797.0, 797.0, 797.0, 797.0, 797.0, 797.0]	[-490.0, -490.0, -490.0, -490.0, -490.0, -490.0, -490.0, -490.0, -490.0, -490.0, -490.0, -488.0, -488.0, -488.0, -487.0, -485.0, -484.0, -481.0, -476.0, -468.0, -456.0, -423.0, -388.0, -357.0, -323.0, -286.0, -246.0, -216.0, -187.0, -156.0, -81.0, -50.0, -4.0, 49.0, 67.0, 85.0, 100.0, 110.0, 115.0, 116.0, 116.0, 116.0, 116.0, 116.0, 116.0, 116.0, 116.0, 117.0, 107.0, 102.0, 102.0, 104.0, 129.0, 141.0, 166.0, 180.0, 192.0, 210.0, 218.0, 226.0, 226.0, 226.0, 226.0, 226.0, 226.0, 226.0, 226.0, 226.0, 226.0, 226.0, 226.0, 226.0, 228.0, 234.0, 246.0, 278.0, 288.0, 308.0, 342.0, 352.0, 390.0, 413.0, 428.0, 428.0, 428.0, 428.0, 428.0, 428.0, 428.0, 428.0, 428.0, 428.0, 428.0, 428.0, 428.0, 428.0, 428.0, 428.0]	[0.013051044195890427, 0.017309175338596106, 0.03261387161910534, 0.04155953088775277, 0.05868421564809978, 0.07614613720215857, 0.09186589461751282, 0.10917967767454684, 0.13237155927345157, 0.14157560770399868, 0.16148386429995298, 0.17607073672115803, 0.1919249794445932, 0.2138890854548663, 0.23176845768466592, 0.2415684738662094, 0.2586634624749422, 0.27615849347785115, 0.2920468694064766, 0.3083448449615389, 0.32526814308948815, 0.3423382143955678, 0.3585870380047709, 0.3749444056302309, 0.39186190092004836, 0.4082100526429713, 0.4252913878299296, 0.442971421405673, 0.4585860481020063, 0.47901347232982516, 0.49200631910935044, 0.5082534360699356, 0.5253893847111613, 0.5428120531141758, 0.558438626350835, 0.576710190391168, 0.5922046676278114, 0.608769565820694, 0.6254392534028739, 0.6421430741902441, 0.6586035243235528, 0.6749240281060338, 0.6918326488230377, 0.7087443412747234, 0.725475127575919, 0.7414454233366996, 0.7639095825143158, 0.7748670594301075, 0.7921381760388613, 0.8094751697499305, 0.826040067942813, 0.8418748546391726, 0.858626120723784, 0.8757112105377018, 0.8918682155199349, 0.9082522073294967, 0.925336955813691, 0.9422524031251669, 0.9586811093613505, 0.9756173780187964, 0.9918112470768392, 1.0082300547510386, 1.031468357425183, 1.0421940693631768, 1.0587060609832406, 1.075677145505324, 1.0918628226500005, 1.108360136859119, 1.1253141546621919, 1.1422671487089247, 1.1586255403235555, 1.1756328062620014, 1.1918126808013767, 1.2083229655399919, 1.2313178977929056, 1.2414746072608978, 1.2585030358750373, 1.276180338812992, 1.2920666667632759, 1.312166411196813, 1.3253469909541309, 1.3423173930495977, 1.3585153580643237, 1.3756127359811217, 1.3919113941956311, 1.40840495377779, 1.4252258518245071, 1.442350877681747, 1.4586580693721771, 1.4750007598195225, 1.4982568118721247, 1.508332625264302, 1.52561364043504, 1.5416320643853396, 1.5644300472922623, 1.5749687084462494, 1.5921009024605155, 1.6084019499830902]
17	images/0282.jpg	images/0045.jpg	right	0.999	[0.0, 0.0, 0.0, 0.0, 0.0, 0.0, 0.0, 0.0, 0.0, 1.0, 1.0, 1.0, 0.0, 0.0, 0.0, 0.0, 1.0, 6.0, 11.0, 19.0, 33.0, 57.0, 87.0, 131.0, 188.0, 249.0, 290.0, 328.0, 377.0, 415.0, 462.0, 506.0, 548.0, 572.0, 587.0, 600.0, 610.0, 613.0, 613.0, 613.0, 613.0, 613.0, 613.0, 614.0, 623.0, 633.0, 642.0, 652.0, 659.0, 670.0, 673.0, 680.0, 683.0, 689.0, 691.0, 693.0, 693.0, 693.0, 693.0, 693.0]	[-490.0, -490.0, -490.0, -490.0, -490.0, -490.0, -490.0, -490.0, -490.0, -489.0, -487.0, -485.0, -483.0, -481.0, -477.0, -469.0, -466.0, -448.0, -431.0, -408.0, -380.0, -331.0, -266.0, -184.0, -80.0, 25.0, 101.0, 165.0, 251.0, 315.0, 380.0, 441.0, 489.0, 518.0, 536.0, 540.0, 540.0, 540.0, 540.0, 540.0, 540.0, 540.0, 540.0, 537.0, 512.0, 489.0, 471.0, 451.0, 433.0, 405.0, 398.0, 386.0, 383.0, 382.0, 382.0, 382.0, 382.0, 382.0, 382.0, 382.0]	[0.011586042121052742, 0.015976610593497753, 0.0323947356082499, 0.04890672699548304, 0.06597031303681433, 0.08221981930546463, 0.1045208212453872, 0.11574897542595863, 0.13279856671579182, 0.14913852629251778, 0.1721621307078749, 0.18219391210004687, 0.19919810607098043, 0.21568449772894382, 0.23909346689470112, 0.2490815578494221, 0.2723574072588235, 0.2821939461864531, 0.29922510543838143, 0.31584291043691337, 0.33265971252694726, 0.34922358649782836, 0.3659373060800135, 0.38243018300272524, 0.3992275290656835, 0.41571289650164545, 0.4326293678022921, 0.4490457861684263, 0.4658700975123793, 0.48247185978107154, 0.49921186175197363, 0.5157910960260779, 0.5326038021594286, 0.5490761990658939, 0.5658332677558064, 0.5822845019865781, 0.599177421303466, 0.6157098929397762, 0.6326632280834019, 0.6491318703629076, 0.672467794502154, 0.6824261893052608, 0.7054757347796112, 0.7157734148204327, 0.7326683823484927, 0.7491202992387116, 0.7659582640044391, 0.7824507993645966, 0.8056447289418429, 0.8156983556691557, 0.8325783044565469, 0.848807672271505, 0.8658900314476341, 0.8821436336729676, 0.8991263236384839, 0.9155662939883769, 0.9326681091915816, 0.9488729010336101, 0.9658682201988995, 0.9822511877864599]
18	images/0251.jpg	images/0568.jpg	right	1.274	[0.0, 0.0, 0.0, 0.0, 0.0, 0.0, 0.0, 0.0, 0.0, 1.0, 2.0, 2.0, 2.0, 2.0, 2.0, 2.0, 2.0, 5.0, 9.0, 14.0, 20.0, 32.0, 45.0, 60.0, 84.0, 101.0, 111.0, 116.0, 116.0, 116.0, 110.0, 91.0, 86.0, 72.0, 42.0, 27.0, -34.0, -76.0, -112.0, -139.0, -162.0, -186.0, -212.0, -229.0, -246.0, -262.0, -282.0, -288.0, -291.0, -291.0, -289.0, -263.0, -213.0, -129.0, -8.0, 147.0, 339.0, 515.0, 650.0, 731.0, 765.0, 777.0, 777.0, 777.0, 777.0, 777.0, 777.0, 777.0, 777.0, 777.0, 771.0, 770.0, 763.0, 756.0, 755.0, 755.0, 755.0]	[-490.0, -490.0, -490.0, -489.0, -489.0, -489.0, -489.0, -489.0, -489.0, -489.0, -488.0, -486.0, -484.0, -479.0, -475.0, -470.0, -463.0, -453.0, -440.0, -425.0, -407.0, -380.0, -349.0, -314.0, -233.0, -173.0, -120.0, -69.0, -28.0, 21.0, 83.0, 142.0, 153.0, 170.0, 200.0, 211.0, 247.0, 269.0, 286.0, 298.0, 315.0, 332.0, 352.0, 367.0, 383.0, 399.0, 410.0, 412.0, 412.0, 412.0, 412.0, 409.0, 402.0, 387.0, 376.0, 367.0, 363.0, 363.0, 363.0, 363.0, 363.0, 363.0, 363.0, 363.0, 363.0, 363.0, 363.0, 363.0, 363.0, 361.0, 359.0, 359.0, 357.0, 354.0, 353.0, 353.0, 353.0]	[0.01592404511757195, 0.022697460372000933, 0.030882288236171007, 0.047643452882766724, 0.06500263349153101, 0.08096849196590483, 0.09823141642846167, 0.11477412795647979, 0.13090416765771806, 0.15511629404500127, 0.1640759480651468, 0.18125865911133587, 0.1981113012880087, 0.21436729305423796, 0.23218863853253424, 0.248015915742144, 0.2649607176426798, 0.28098938148468733, 0.2981676554773003, 0.3144489056430757, 0.3307915960904211, 0.34780432330444455, 0.36474025063216686, 0.381521895295009, 0.39817656413652003, 0.41444586776196957, 0.4307940194848925, 0.447947034612298, 0.46416001836769283, 0.48274799808859825, 0.4989807792007923, 0.5140369848813862, 0.5325157381594181, 0.5562230325303972, 0.5646959454752505, 0.5814557450357825, 0.5980971017852426, 0.6144582240376621, 0.6307971596252173, 0.647860404336825, 0.664738304913044, 0.681361912516877, 0.698099525179714, 0.714526183437556, 0.7307927564252168, 0.753797928802669, 0.7640635233838111, 0.7813011894468218, 0.7987303431145847, 0.8144480523187667, 0.8338207572232932, 0.8479447818826884, 0.8641618615947664, 0.881130215479061, 0.897350708488375, 0.9143293024972081, 0.9307747341226786, 0.9478775733150542, 0.9641042104922235, 0.9812292363494635, 0.9981911049690098, 1.014412280637771, 1.0308508856687695, 1.053836943116039, 1.0646582283079624, 1.081420416943729, 1.0981286750175059, 1.1145345121622086, 1.1308126903604716, 1.153694299980998, 1.1640728760976344, 1.1811801525764167, 1.1982034612447023, 1.2146526474971324, 1.2310284471604973, 1.2479244384448975, 1.2642207073513418]
19	images/0599.jpg	images/0361.jpg	left	1.64	[0.0, 0.0, 0.0, 0.0, 0.0, -1.0, -1.0, -2.0, -2.0, -2.0, -2.0, -3.0, -3.0, -3.0, -3.0, -3.0, -3.0, -3.0, -3.0, -3.0, 3.0, 6.0, 10.0, 23.0, 33.0, 48.0, 71.0, 104.0, 137.0, 169.0, 192.0, 210.0, 222.0, 233.0, 244.0, 265.0, 281.0, 299.0, 321.0, 341.0, 365.0, 373.0, 386.0, 394.0, 397.0, 397.0, 397.0, 397.0, 397.0, 397.0, 298.0, 237.0, 32.0, -52.0, -217.0, -319.0, -368.0, -392.0, -413.0, -442.0, -458.0, -469.0, -487.0, -491.0, -497.0, -497.0, -497.0, -497.0, -497.0, -498.0, -507.0, -517.0, -531.0, -547.0, -573.0, -583.0, -599.0, -614.0, -628.0, -642.0, -661.0, -664.0, -667.0, -667.0, -667.0, -667.0, -667.0, -667.0, -667.0, -667.0, -667.0, -667.0, -667.0, -667.0, -667.0, -667.0, -667.0, -667.0]	[-490.0, -491.0, -491.0, -493.0, -493.0, -493.0, -493.0, -493.0, -493.0, -493.0, -493.0, -493.0, -491.0, -490.0, -488.0, -487.0, -487.0, -485.0, -484.0, -482.0, -469.0, -463.0, -452.0, -428.0, -407.0, -381.0, -339.0, -285.0, -227.0, -180.0, -145.0, -115.0, -94.0, -71.0, -44.0, 27.0, 61.0, 92.0, 125.0, 152.0, 185.0, 193.0, 208.0, 219.0, 224.0, 224.0, 224.0, 224.0, 224.0, 227.0, 243.0, 251.0, 253.0, 253.0, 253.0, 253.0, 257.0, 260.0, 263.0, 268.0, 268.0, 268.0, 269.0, 270.0, 273.0, 273.0, 273.0, 273.0, 273.0, 273.0, 273.0, 273.0, 274.0, 277.0, 282.0, 282.0, 285.0, 285.0, 287.0, 287.0, 287.0, 287.0, 287.0, 287.0, 287.0, 287.0, 287.0, 287.0, 287.0, 287.0, 287.0, 287.0, 287.0, 287.0, 287.0, 287.0, 287.0, 287.0]	[0.005734055768698454, 0.010608634445816278, 0.02731996471993625, 0.0442135666962713, 0.06046034232713282, 0.0775983389467001, 0.09404308791272342, 0.11723121465183794, 0.12722544954158366, 0.14428289141505957, 0.16064298967830837, 0.1776748315896839, 0.19400591659359634, 0.21727255010046065, 0.22724050236865878, 0.250266837188974, 0.26047713588923216, 0.2776441457681358, 0.2940755826421082, 0.3175903654191643, 0.3272173258010298, 0.3442737436853349, 0.36064578872174025, 0.37763086799532175, 0.39763469784520566, 0.41091767768375576, 0.427443663822487, 0.44428811385296285, 0.4606765427161008, 0.4776022301521152, 0.49408042966388166, 0.5108873331919312, 0.5274341406766325, 0.5441113375127316, 0.5607021769974381, 0.5775623281951994, 0.5940698825288564, 0.6108470899052918, 0.6274324681144208, 0.650237277848646, 0.6606179017107934, 0.6775801116600633, 0.6941559326369315, 0.7109126599971205, 0.7272447689902037, 0.7504305064212531, 0.7606489972677082, 0.7776391964871436, 0.7939798387233168, 0.8174130427651107, 0.8274349255952984, 0.8506264658644795, 0.8604971379972994, 0.8775433159898967, 0.893918774323538, 0.9108912241645157, 0.9273223199415952, 0.9441688179504126, 0.9607541961595416, 0.9775778248440474, 0.9940625096205622, 1.017499126959592, 1.0275032606441528, 1.0508419151883572, 1.0606863049324602, 1.077700397465378, 1.0941980530042201, 1.1172697853762656, 1.127351401373744, 1.1506607015617192, 1.1605050910729915, 1.1836314366664737, 1.1937987273558974, 1.2169994835276157, 1.2271906677633524, 1.244174040388316, 1.2604706506244838, 1.2775533511303365, 1.293870782945305, 1.3170732455328107, 1.327153837773949, 1.3502917885780334, 1.3605365620460361, 1.3775909319519997, 1.393875254318118, 1.4109146054834127, 1.427262415876612, 1.4507109799887985, 1.4604922228027135, 1.4776790300384164, 1.4939025950152427, 1.5171852712519467, 1.5272962420713156, 1.5444024945609272, 1.5604615369811654, 1.5776538054924458, 1.5940258505288512, 1.617090756073594]
20	images/0565.jpg	images/0001.jpg	right	0.967	[0.0, 0.0, 0.0, 0.0, 0.0, 0.0, 0.0, 0.0, 0.0, 0.0, 0.0, 0.0, 0.0, 0.0, 0.0, 0.0, 0.0, 0.0, 3.0, 7.0, 13.0, 28.0, 42.0, 64.0, 89.0, 126.0, 200.0, 251.0, 304.0, 348.0, 388.0, 419.0, 447.0, 468.0, 487.0, 500.0, 517.0, 523.0, 537.0, 559.0, 574.0, 590.0, 603.0, 616.0, 625.0, 631.0, 632.0, 633.0, 634.0, 635.0, 636.0, 636.0, 636.0, 637.0, 637.0, 637.0, 637.0, 637.0]	[-490.0, -490.0, -490.0, -491.0, -491.0, -491.0, -491.0, -491.0, -491.0, -491.0, -491.0, -491.0, -491.0, -491.0, -491.0, -491.0, -490.0, -487.0, -482.0, -473.0, -458.0, -432.0, -402.0, -360.0, -315.0, -251.0, -152.0, -88.0, -24.0, 27.0, 73.0, 110.0, 142.0, 166.0, 184.0, 195.0, 216.0, 222.0, 236.0, 265.0, 282.0, 301.0, 318.0, 336.0, 350.0, 357.0, 360.0, 362.0, 364.0, 365.0, 367.0, 367.0, 367.0, 368.0, 368.0, 368.0, 368.0, 368.0]	[0.01668726629577577, 0.021625674329698086, 0.032639130018651485, 0.049557308200746775, 0.06697758729569614, 0.08318545087240636, 0.10189426271244884, 0.11643744446337223, 0.13287570816464722, 0.15268156467936933, 0.16578944050706923, 0.19058456388302147, 0.19905030890367925, 0.21640778263099492, 0.23244327306747437, 0.2547975229099393, 0.26700769271701574, 0.2828359939157963, 0.29971662536263466, 0.3162658221554011, 0.33331814408302307, 0.34945398662239313, 0.36653634579852223, 0.3827216816134751, 0.3996026541572064, 0.4227976077236235, 0.4332625409588218, 0.4493502553086728, 0.4657636017072946, 0.4887568273115903, 0.49989964812994003, 0.5159982852637768, 0.5332168363966048, 0.5494178736116737, 0.5657854811288416, 0.5888476560357958, 0.5997771436814219, 0.6164679939392954, 0.6332226733211428, 0.6494134704116732, 0.665964032523334, 0.6891992632299662, 0.699766255216673, 0.7165506305173039, 0.7331486381590366, 0.7493954137898982, 0.7657674588263035, 0.7884357350412756, 0.7997615106869489, 0.8164728407282382, 0.8324093446135521, 0.8550363196991384, 0.8657814874313772, 0.8846514085307717, 0.8997509635519236, 0.9162018564529717, 0.9348055375739932, 0.9497678764164448]
21	images/0558.jpg	images/0129.jpg	right	1.059	[0.0, 0.0, 0.0, 0.0, 0.0, 0.0, 0.0, 0.0, 0.0, 0.0, 0.0, 0.0, 0.0, 1.0, 1.0, 2.0, 2.0, 4.0, 4.0, 8.0, 9.0, 12.0, 14.0, 15.0, 15.0, 15.0, 14.0, 7.0, -5.0, -21.0, -36.0, -45.0, -48.0, -46.0, -34.0, -5.0, 7.0, 44.0, 89.0, 139.0, 204.0, 269.0, 340.0, 427.0, 523.0, 627.0, 671.0, 698.0, 713.0, 722.0, 722.0, 722.0, 724.0, 728.0, 732.0, 743.0, 751.0, 754.0, 754.0, 754.0, 754.0, 754.0, 754.0]	[-490.0, -491.0, -491.0, -491.0, -491.0, -491.0, -491.0, -491.0, -491.0, -491.0, -492.0, -492.0, -491.0, -490.0, -490.0, -486.0, -485.0, -482.0, -481.0, -476.0, -472.0, -465.0, -457.0, -445.0, -440.0, -427.0, -409.0, -397.0, -379.0, -357.0, -327.0, -301.0, -272.0, -230.0, -195.0, -140.0, -119.0, -60.0, -4.0, 55.0, 114.0, 170.0, 222.0, 286.0, 338.0, 371.0, 379.0, 382.0, 384.0, 385.0, 385.0, 385.0, 385.0, 385.0, 382.0, 376.0, 373.0, 372.0, 372.0, 372.0, 372.0, 372.0, 372.0]	[0.004563965601846576, 0.009302693651989102, 0.030847984133288264, 0.042206527665257454, 0.06377536989748478, 0.07531891600228846, 0.09248865651898086, 0.10866170423105359, 0.13136411388404667, 0.14200346847064793, 0.15917320898734033, 0.1752441981807351, 0.1923268986865878, 0.20857026102021337, 0.23193861171603203, 0.24191885208711028, 0.264522957848385, 0.27532444545067847, 0.29399536922574043, 0.3086481192149222, 0.3256799611262977, 0.3419465341139585, 0.36498379171825945, 0.3752667943481356, 0.39237372973002493, 0.40858295862562954, 0.42564449668861926, 0.4420103975571692, 0.4589493968524039, 0.4752572712022811, 0.49233724107034504, 0.5086256593931466, 0.5255503228399903, 0.5423398180864751, 0.5653777583502233, 0.5754880465101451, 0.5924048591405153, 0.60885916557163, 0.6256507087964565, 0.6422493990976363, 0.6589470757171512, 0.6752443688455969, 0.6923239973839372, 0.7086301650851965, 0.7319483398459852, 0.7420320040546358, 0.7627444413956255, 0.7753922000993043, 0.7984963590279222, 0.8086964178364724, 0.8318797659594566, 0.8420559314545244, 0.8653744475450367, 0.8753304530400783, 0.8924489936325699, 0.908701230539009, 0.9255682085640728, 0.9420740562491119, 0.965165585745126, 0.975326732499525, 0.992438105167821, 1.008721403311938, 1.031694490229711]
22	images/0382.jpg	images/0149.jpg	right	1.939	[0.0, 1.0, 1.0, 1.0, 1.0, 1.0, 1.0, 1.0, 1.0, 1.0, 1.0, 1.0, 1.0, 1.0, 1.0, 1.0, 1.0, 1.0, 7.0, 26.0, 57.0, 73.0, 109.0, 148.0, 183.0, 218.0, 253.0, 282.0, 327.0, 373.0, 408.0, 442.0, 484.0, 500.0, 505.0, 506.0, 506.0, 497.0, 485.0, 469.0, 424.0, 403.0, 339.0, 206.0, 83.0, -51.0, -203.0, -341.0, -442.0, -504.0, -539.0, -561.0, -582.0, -599.0, -614.0, -631.0, -634.0, -643.0, -646.0, -647.0, -647.0, -648.0, -648.0, -648.0, -648.0, -648.0, -648.0, -648.0, -648.0, -648.0, -648.0, -648.0, -648.0, -647.0, -645.0, -641.0, -636.0, -620.0, -589.0, -495.0, -390.0, -249.0, -81.0, 81.0, 191.0, 256.0, 289.0, 316.0, 323.0, 334.0, 346.0, 364.0, 395.0, 409.0, 415.0, 422.0, 430.0, 439.0, 452.0, 455.0, 460.0, 467.0, 484.0, 506.0, 555.0, 591.0, 644.0, 661.0, 721.0, 733.0, 760.0, 761.0, 763.0, 764.0, 764.0, 764.0, 764.0]	[-490.0, -490.0, -490.0, -490.0, -490.0, -490.0, -490.0, -490.0, -490.0, -490.0, -490.0, -490.0, -490.0, -490.0, -490.0, -490.0, -490.0, -490.0, -479.0, -456.0, -422.0, -407.0, -373.0, -327.0, -284.0, -237.0, -190.0, -140.0, -60.0, 18.0, 79.0, 135.0, 210.0, 252.0, 277.0, 295.0, 310.0, 327.0, 342.0, 359.0, 387.0, 398.0, 422.0, 476.0, 524.0, 540.0, 540.0, 540.0, 540.0, 540.0, 534.0, 521.0, 506.0, 488.0, 470.0, 450.0, 446.0, 440.0, 437.0, 437.0, 436.0, 433.0, 430.0, 427.0, 422.0, 420.0, 418.0, 417.0, 416.0, 414.0, 413.0, 412.0, 412.0, 412.0, 412.0, 415.0, 418.0, 423.0, 429.0, 444.0, 457.0, 478.0, 507.0, 528.0, 540.0, 540.0, 540.0, 540.0, 540.0, 540.0, 540.0, 538.0, 534.0, 530.0, 529.0, 528.0, 526.0, 525.0, 525.0, 524.0, 522.0, 520.0, 516.0, 512.0, 504.0, 499.0, 493.0, 490.0, 481.0, 479.0, 472.0, 470.0, 467.0, 466.0, 464.0, 463.0, 463.0]	[0.009135952452197671, 0.01374941156245768, 0.02215030323714018, 0.03431234508752823, 0.04962489171884954, 0.06624576868489385, 0.08224917389452457, 0.09927930915728211, 0.11568173277191818, 0.13616684218868613, 0.15017174161039293, 0.16592153627425432, 0.18425249215215445, 0.2078437334857881, 0.21556537225842476, 0.23434415715746582, 0.25020044785924256, 0.2657232559286058, 0.28533898992463946, 0.3080297941341996, 0.31558315572328866, 0.3343633059412241, 0.35017795395106077, 0.36578097520396113, 0.38244929746724665, 0.3992869209032506, 0.4164273065980524, 0.432492493186146, 0.44937312440015376, 0.4660609026905149, 0.48223565705120564, 0.49930231482721865, 0.516897015273571, 0.5330502656288445, 0.553375972667709, 0.5660561581607908, 0.5830702506937087, 0.5992378371302038, 0.6155276207718998, 0.6326413827482611, 0.6496844885405153, 0.665844907052815, 0.6830184021964669, 0.69914605258964, 0.7155798787716776, 0.7325939715374261, 0.7496442454867065, 0.7662596609443426, 0.7836017746012658, 0.7993102679029107, 0.8158724354580045, 0.8328762880992144, 0.8496825089678168, 0.8662631083279848, 0.882991163758561, 0.8991481689736247, 0.9155843844637275, 0.9326397783588618, 0.9489073753356934, 0.9660108974203467, 0.9821313796564937, 0.9991352322977036, 1.0164131755009294, 1.0324677806347609, 1.0493733293842524, 1.0661119660362601, 1.0830079573206604, 1.099221965065226, 1.116928281262517, 1.1325449559371918, 1.1506557520478964, 1.1675858767703176, 1.1830725034233183, 1.1992834392003715, 1.2163036759011447, 1.2324917421210557, 1.2493771521840245, 1.2661277356091887, 1.2830739030614495, 1.2992233987897635, 1.3155800837557763, 1.332724565640092, 1.3497529942542315, 1.3657765379175544, 1.3831094356719404, 1.399394440697506, 1.4211851495783776, 1.4325505197048187, 1.449024623259902, 1.4660742145497352, 1.4823397635482252, 1.4993091416545212, 1.515722829150036, 1.5353528992272913, 1.5490191960707307, 1.5660889260470867, 1.5823957764077932, 1.6057293110061437, 1.6156672260258347, 1.632689852034673, 1.6490714543033391, 1.666075306944549, 1.682644983753562, 1.705749825341627, 1.7158686467446387, 1.739080325467512, 1.7491663789842278, 1.772353823063895, 1.7823995992075652, 1.8057908192276955, 1.8160219395067543, 1.8388728289864957, 1.8491623171139508, 1.8728562996257097, 1.8825399214401841, 1.8994031448382884, 1.9159653121605515]
23	images/0573.jpg	images/0363.jpg	left	1.95	[0.0, 1.0, 1.0, 1.0, 1.0, 1.0, 1.0, 1.0, 1.0, 1.0, 1.0, 1.0, 1.0, 1.0, 1.0, 1.0, 3.0, 8.0, 9.0, 20.0, 27.0, 38.0, 46.0, 65.0, 91.0, 132.0, 198.0, 281.0, 368.0, 457.0, 500.0, 530.0, 556.0, 580.0, 608.0, 636.0, 669.0, 709.0, 733.0, 747.0, 757.0, 766.0, 768.0, 768.0, 768.0, 768.0, 768.0, 768.0, 766.0, 755.0, 725.0, 712.0, 688.0, 664.0, 627.0, 599.0, 560.0, 519.0, 481.0, 462.0, 458.0, 458.0, 463.0, 498.0, 515.0, 561.0, 610.0, 676.0, 709.0, 733.0, 750.0, 759.0, 760.0, 760.0, 760.0, 760.0, 760.0, 760.0, 760.0, 756.0, 745.0, 727.0, 700.0, 671.0, 642.0, 619.0, 595.0, 568.0, 530.0, 454.0, 362.0, 192.0, 86.0, -6.0, -93.0, -182.0, -263.0, -363.0, -388.0, -430.0, -441.0, -473.0, -485.0, -526.0, -555.0, -592.0, -601.0, -612.0, -616.0, -618.0, -618.0, -618.0, -618.0, -618.0, -618.0, -618.0, -618.0]	[-490.0, -490.0, -490.0, -490.0, -490.0, -490.0, -490.0, -490.0, -490.0, -490.0, -490.0, -490.0, -490.0, -490.0, -490.0, -490.0, -489.0, -484.0, -481.0, -458.0, -442.0, -420.0, -401.0, -371.0, -326.0, -273.0, -200.0, -108.0, -11.0, 77.0, 112.0, 137.0, 157.0, 176.0, 198.0, 217.0, 242.0, 273.0, 294.0, 304.0, 311.0, 316.0, 318.0, 318.0, 318.0, 318.0, 318.0, 318.0, 319.0, 322.0, 323.0, 324.0, 328.0, 330.0, 330.0, 330.0, 330.0, 330.0, 330.0, 330.0, 330.0, 330.0, 333.0, 336.0, 338.0, 338.0, 338.0, 338.0, 338.0, 338.0, 338.0, 338.0, 338.0, 338.0, 338.0, 338.0, 338.0, 338.0, 338.0, 334.0, 330.0, 325.0, 320.0, 319.0, 319.0, 319.0, 319.0, 319.0, 319.0, 319.0, 319.0, 319.0, 319.0, 319.0, 319.0, 319.0, 319.0, 312.0, 311.0, 307.0, 305.0, 301.0, 300.0, 296.0, 296.0, 296.0, 296.0, 295.0, 295.0, 295.0, 295.0, 295.0, 295.0, 295.0, 295.0, 295.0, 295.0]	[0.0003921915777027607, 0.004583762725815177, 0.01692363922484219, 0.033970158314332366, 0.050125456880778074, 0.06663062167353928, 0.08360989834181964, 0.09996112203225493, 0.11700320383533835, 0.1331513342447579, 0.15022106422111392, 0.16659379191696644, 0.18356282846070826, 0.2014162593986839, 0.21687831007875502, 0.23394155479036272, 0.25875545130111277, 0.26657095667906106, 0.2835628625471145, 0.30103536578826606, 0.3171596028842032, 0.3375064723659307, 0.3502842790912837, 0.3672669690568, 0.3835864488501102, 0.40052510681562126, 0.4168039676733315, 0.4335712764877826, 0.4546055910177529, 0.4672117072623223, 0.48343254160135984, 0.5004988582804799, 0.5167480232194066, 0.533678830601275, 0.5503915259614587, 0.5673120934516191, 0.5834175571799278, 0.6005442896857858, 0.6167077801655978, 0.6337863847147673, 0.6503850747831166, 0.6672797007486224, 0.6834233938716352, 0.6997602814808488, 0.7222950966097414, 0.7330723498016596, 0.7500891732051969, 0.7677217614836991, 0.7854843975510448, 0.8074184663128108, 0.816734813619405, 0.8331464531365782, 0.8502974205184728, 0.8672633850947022, 0.8834016169421375, 0.9011424076743424, 0.9167536210734397, 0.9354856435675174, 0.9504595878534019, 0.9672357712406665, 0.9834306642878801, 0.999793151859194, 1.0228310921229422, 1.0337503398768604, 1.0504644005559385, 1.0663739391602576, 1.0834948690608144, 1.1014766411390156, 1.116747886640951, 1.1331701076123863, 1.1505920933559537, 1.166438143933192, 1.1835020713042468, 1.2010582007933408, 1.2171455740462989, 1.237327238311991, 1.2503470503725111, 1.2672358737327158, 1.2833270013798028, 1.300516880583018, 1.3167868668679148, 1.3336698876228184, 1.350237175123766, 1.3673263611271977, 1.3834297768771648, 1.3998946642968804, 1.416980437003076, 1.4332104872446507, 1.4503389266319573, 1.4667430568952113, 1.4900666929315776, 1.5001015465240926, 1.5169111804571003, 1.5334504786878824, 1.5503106301184744, 1.5666652671061456, 1.5903124869801104, 1.5998479700647295, 1.6226875956635922, 1.6334197928663343, 1.6564860637299716, 1.6667236690409482, 1.6836479911580682, 1.6998517587780952, 1.723095522960648, 1.733238237677142, 1.7503031890373677, 1.7666107220575213, 1.7903227952774614, 1.799872955540195, 1.8228941704146564, 1.833207551855594, 1.8508425294421613, 1.8665517054032534, 1.8835572646930814, 1.8999095123726875, 1.9232280284631997]
24	images/0435.jpg	images/0504.jpg	left	2.309	[0.0, 1.0, 1.0, 1.0, 1.0, 1.0, 1.0, 1.0, 1.0, 1.0, 1.0, 1.0, 1.0, 1.0, 1.0, 1.0, 1.0, 1.0, 1.0, 1.0, 1.0, 1.0, 5.0, 9.0, 14.0, 22.0, 31.0, 43.0, 61.0, 76.0, 88.0, 92.0, 92.0, 83.0, 76.0, 60.0, 35.0, -16.0, -82.0, -166.0, -277.0, -339.0, -396.0, -439.0, -468.0, -492.0, -518.0, -557.0, -570.0, -592.0, -618.0, -645.0, -671.0, -698.0, -705.0, -709.0, -709.0, -707.0, -706.0, -704.0, -704.0, -704.0, -704.0, -704.0, -704.0, -703.0, -702.0, -700.0, -700.0, -696.0, -692.0, -679.0, -656.0, -613.0, -503.0, -465.0, -382.0, -248.0, -132.0, -21.0, 31.0, 44.0, 44.0, 45.0, 45.0, 45.0, 45.0, 41.0, 30.0, -14.0, -65.0, -159.0, -260.0, -355.0, -415.0, -445.0, -471.0, -476.0, -487.0, -489.0, -491.0, -491.0, -491.0, -491.0, -491.0, -491.0, -491.0, -491.0, -491.0, -491.0, -491.0, -491.0, -493.0, -493.0, -494.0, -494.0, -494.0, -494.0, -494.0, -494.0, -494.0, -494.0, -494.0, -494.0, -494.0, -501.0, -524.0, -578.0, -644.0, -691.0, -719.0, -733.0, -734.0, -734.0, -734.0, -734.0, -734.0, -734.0, -734.0]	[-490.0, -491.0, -491.0, -491.0, -491.0, -491.0, -491.0, -491.0, -491.0, -492.0, -492.0, -492.0, -492.0, -492.0, -492.0, -492.0, -492.0, -491.0, -491.0, -491.0, -489.0, -487.0, -484.0, -479.0, -472.0, -462.0, -452.0, -438.0, -417.0, -391.0, -361.0, -337.0, -315.0, -282.0, -271.0, -251.0, -233.0, -201.0, -165.0, -107.0, -35.0, -8.0, 17.0, 35.0, 45.0, 51.0, 55.0, 60.0, 63.0, 67.0, 74.0, 87.0, 101.0, 121.0, 134.0, 150.0, 175.0, 182.0, 195.0, 206.0, 212.0, 222.0, 223.0, 230.0, 237.0, 246.0, 250.0, 254.0, 256.0, 261.0, 264.0, 271.0, 281.0, 299.0, 329.0, 340.0, 354.0, 375.0, 389.0, 405.0, 411.0, 411.0, 411.0, 411.0, 411.0, 411.0, 411.0, 411.0, 407.0, 395.0, 389.0, 382.0, 376.0, 376.0, 374.0, 374.0, 374.0, 374.0, 374.0, 374.0, 374.0, 374.0, 374.0, 374.0, 374.0, 374.0, 374.0, 374.0, 374.0, 374.0, 374.0, 374.0, 373.0, 373.0, 372.0, 372.0, 372.0, 372.0, 372.0, 372.0, 372.0, 372.0, 372.0, 372.0, 372.0, 372.0, 366.0, 349.0, 336.0, 328.0, 325.0, 325.0, 325.0, 325.0, 325.0, 325.0, 325.0, 325.0, 325.0]	[0.012351652374491096, 0.01650123973377049, 0.024015006376430392, 0.04109702445566654, 0.057541773188859224, 0.0744609753601253, 0.09056166047230363, 0.10766074503771961, 0.12425124319270253, 0.14052327745594084, 0.15765376458875835, 0.1743777240626514, 0.19059412111528218, 0.2070248753298074, 0.22400449332781136, 0.24099366879090667, 0.25739506841637194, 0.2744091609492898, 0.29053032607771456, 0.3069597149733454, 0.32755473372526467, 0.3409541081637144, 0.3575254916213453, 0.37439622450619936, 0.390503394883126, 0.40721506625413895, 0.42409023619256914, 0.4411231023259461, 0.4572138886433095, 0.4743658797815442, 0.4904600796289742, 0.50707071647048, 0.5301137766800821, 0.5410111790988594, 0.557247714838013, 0.5743857112247497, 0.5905884550884366, 0.607045833254233, 0.6241578885819763, 0.641072653234005, 0.6574139781296253, 0.6738088924903423, 0.6906577798072249, 0.7077496964484453, 0.7238507228903472, 0.7409880366176367, 0.7575911642052233, 0.772835444426164, 0.7902741555590183, 0.8068735282868147, 0.8241835567168891, 0.8402398684993386, 0.857385374372825, 0.8753074132837355, 0.8904806962236762, 0.9133288550656289, 0.9241037189494818, 0.9410324783530086, 0.9575564165133983, 0.9736632455606014, 0.9966021992731839, 1.0084764971397817, 1.0240095451008528, 1.040319126099348, 1.0573345839511603, 1.0744630233384669, 1.0905616604723036, 1.1068773854058236, 1.130245053442195, 1.1402423602994531, 1.158947758609429, 1.1748450093436986, 1.1908228143583983, 1.2095125115010887, 1.2242137305438519, 1.2402953009586781, 1.2589624701067805, 1.2748566486407071, 1.2906016646884382, 1.3109027955215424, 1.3240256900899112, 1.3410636761691421, 1.3575125210918486, 1.3743279578629881, 1.3905317254830152, 1.4069467782974243, 1.4240967216901481, 1.4402178865857422, 1.4588696958962828, 1.4748249729163945, 1.4912550444714725, 1.5078370093833655, 1.5237318705767393, 1.5407565445639193, 1.557084898930043, 1.58045973489061, 1.590318460483104, 1.6137294778600335, 1.6237134728580713, 1.6465612903703004, 1.6570521648973227, 1.6741003908682615, 1.6902812893968076, 1.7134339173790067, 1.72364558163099, 1.7465841937810183, 1.7570446897298098, 1.7802167739719152, 1.7904059099964797, 1.8129745172336698, 1.8238193541765213, 1.8468955238349736, 1.8570634971838444, 1.8800181522965431, 1.8904578268993646, 1.9134281831793487, 1.923822119133547, 1.9469228645320982, 1.957067968789488, 1.9798430823720992, 1.9903418077155948, 2.013551097130403, 2.0237214600201696, 2.040643392596394, 2.057072440162301, 2.0741445594467223, 2.090394407045096, 2.107420787680894, 2.1238085341174155, 2.140814434736967, 2.157105242367834, 2.180180046474561, 2.1904039985965937, 2.2133866427466273, 2.2238440667279065, 2.240792964817956, 2.2570574898272753, 2.2741459931712598, 2.290296171559021]
25	images/0534.jpg	images/0233.jpg	left	1.456	[0.0, 0.0, 0.0, 0.0, 0.0, 0.0, 0.0, 0.0, 0.0, 0.0, 0.0, -1.0, -10.0, -15.0, -20.0, -21.0, -21.0, -16.0, -11.0, 1.0, 16.0, 32.0, 66.0, 121.0, 182.0, 243.0, 301.0, 362.0, 380.0, 443.0, 492.0, 533.0, 573.0, 600.0, 615.0, 622.0, 627.0, 631.0, 634.0, 637.0, 639.0, 654.0, 667.0, 680.0, 694.0, 697.0, 705.0, 714.0, 719.0, 719.0, 719.0, 719.0, 697.0, 624.0, 458.0, 341.0, 164.0, 103.0, -40.0, -175.0, -280.0, -354.0, -384.0, -391.0, -395.0, -397.0, -407.0, -424.0, -446.0, -461.0, -470.0, -470.0, -472.0, -472.0, -478.0, -492.0, -511.0, -536.0, -572.0, -598.0, -628.0, -634.0, -655.0, -669.0, -670.0, -670.0, -670.0, -670.0]	[-490.0, -490.0, -490.0, -490.0, -490.0, -490.0, -490.0, -490.0, -490.0, -490.0, -490.0, -489.0, -483.0, -480.0, -477.0, -472.0, -469.0, -466.0, -463.0, -455.0, -448.0, -439.0, -417.0, -379.0, -333.0, -267.0, -209.0, -141.0, -116.0, -18.0, 57.0, 110.0, 146.0, 167.0, 182.0, 202.0, 222.0, 241.0, 257.0, 268.0, 273.0, 291.0, 309.0, 326.0, 340.0, 342.0, 346.0, 351.0, 353.0, 353.0, 354.0, 354.0, 356.0, 356.0, 338.0, 321.0, 295.0, 287.0, 270.0, 270.0, 270.0, 270.0, 270.0, 270.0, 272.0, 272.0, 273.0, 277.0, 279.0, 282.0, 284.0, 284.0, 286.0, 286.0, 286.0, 288.0, 291.0, 294.0, 301.0, 302.0, 305.0, 305.0, 308.0, 309.0, 309.0, 309.0, 309.0, 309.0]	[0.015321592101827264, 0.019253408769145608, 0.0244454275816679, 0.04080279520712793, 0.05688777891919017, 0.07405683677643538, 0.09041181509383023, 0.11287187831476331, 0.12364093936048448, 0.14084481331519783, 0.15699703968130052, 0.18053742218762636, 0.1909709528554231, 0.20717233140021563, 0.2238153947982937, 0.24683831632137299, 0.2575810947455466, 0.2740767023060471, 0.29099692846648395, 0.30710819480009377, 0.3236645597498864, 0.3406591962557286, 0.3568124466110021, 0.3754154450725764, 0.3913171330932528, 0.4072563676163554, 0.42747899191454053, 0.440668105147779, 0.4575176751241088, 0.47396071744151413, 0.49142605252563953, 0.5070232711732388, 0.5253272617701441, 0.54219253314659, 0.5575538906268775, 0.5740761221386492, 0.5914209666661918, 0.6073919450864196, 0.6277944520115852, 0.6404405040666461, 0.6584925909992307, 0.6739949190523475, 0.6902041479479522, 0.7137073252815753, 0.7246173571329564, 0.7407422768883407, 0.7570003164000809, 0.7741724462248385, 0.7902372914832085, 0.8072578692808747, 0.8235763250850141, 0.8406262577045709, 0.8568815665785223, 0.8738366086035967, 0.8902383495587856, 0.913045548601076, 0.923574993852526, 0.9405692890286446, 0.9568635101895779, 0.9739690800197423, 0.9903250823263079, 1.0138439610600471, 1.0235231453552842, 1.0406447579152882, 1.0569031389895827, 1.073861594311893, 1.0903118045534939, 1.113419376546517, 1.12356857676059, 1.1468119996134192, 1.1568325171247125, 1.1799595451448113, 1.1902087558992207, 1.2071911045350134, 1.2235706588253379, 1.2405359409749508, 1.2569530417677015, 1.2804664589930326, 1.2903074354398996, 1.3132614076603204, 1.3239372847601771, 1.3406984496396035, 1.357095411978662, 1.3801866001449525, 1.3904764293693006, 1.4135147109627724, 1.423771430971101, 1.4407261316664517]
26	images/0234.jpg	images/0049.jpg	right	1.599	[0.0, 0.0, 0.0, 0.0, 0.0, 0.0, 0.0, 0.0, 0.0, 0.0, 0.0, 0.0, 0.0, 1.0, 1.0, 1.0, 1.0, 1.0, 2.0, 13.0, 16.0, 26.0, 36.0, 50.0, 63.0, 79.0, 96.0, 121.0, 128.0, 143.0, 159.0, 174.0, 175.0, 175.0, 173.0, 163.0, 130.0, 63.0, -13.0, -94.0, -179.0, -284.0, -419.0, -616.0, -709.0, -742.0, -752.0, -755.0, -755.0, -755.0, -755.0, -756.0, -756.0, -756.0, -756.0, -751.0, -739.0, -716.0, -686.0, -645.0, -577.0, -486.0, -378.0, -240.0, -116.0, 3.0, 158.0, 245.0, 316.0, 367.0, 400.0, 424.0, 444.0, 456.0, 458.0, 458.0, 459.0, 462.0, 483.0, 494.0, 512.0, 529.0, 533.0, 538.0, 557.0, 565.0, 583.0, 603.0, 629.0, 657.0, 685.0, 708.0, 708.0, 708.0, 708.0, 708.0]	[-490.0, -490.0, -490.0, -490.0, -490.0, -490.0, -490.0, -490.0, -490.0, -490.0, -490.0, -490.0, -490.0, -490.0, -490.0, -488.0, -487.0, -483.0, -478.0, -455.0, -447.0, -425.0, -401.0, -367.0, -329.0, -269.0, -209.0, -122.0, -98.0, -41.0, 19.0, 90.0, 119.0, 141.0, 155.0, 168.0, 183.0, 210.0, 231.0, 265.0, 299.0, 344.0, 380.0, 417.0, 419.0, 419.0, 419.0, 419.0, 419.0, 419.0, 419.0, 417.0, 415.0, 411.0, 401.0, 390.0, 382.0, 379.0, 379.0, 379.0, 379.0, 384.0, 400.0, 416.0, 429.0, 447.0, 464.0, 466.0, 466.0, 466.0, 466.0, 466.0, 466.0, 466.0, 466.0, 466.0, 466.0, 465.0, 457.0, 455.0, 449.0, 445.0, 442.0, 442.0, 438.0, 437.0, 434.0, 432.0, 427.0, 425.0, 420.0, 420.0, 420.0, 420.0, 420.0, 420.0]	[0.00947011774405837, 0.014399651205167174, 0.0201709121465683, 0.035147587303072214, 0.05146160558797419, 0.07380834617651999, 0.08608405175618827, 0.10162733984179795, 0.11817073402926326, 0.13538211723789573, 0.15139678632840514, 0.16836275113746524, 0.18595711002126336, 0.20197587506845593, 0.21836020820774138, 0.2351937354542315, 0.2514579191338271, 0.26848771306686103, 0.2861916399560869, 0.3023073438089341, 0.3225538614206016, 0.33510809508152306, 0.3514975479338318, 0.3699660610873252, 0.38569776504300535, 0.4017940128687769, 0.4239823748357594, 0.4350664864759892, 0.4520703391171992, 0.46858164807781577, 0.48608521232381463, 0.5016639991663396, 0.5197758190333843, 0.5351856458000839, 0.5513883896637708, 0.5700371267739683, 0.5845434446819127, 0.6016848545987159, 0.6187658484559506, 0.6348685815464705, 0.6523107059765607, 0.6689595719799399, 0.685534710297361, 0.7015596192795783, 0.718012219062075, 0.7350908236112446, 0.7517983990255743, 0.7685049504507333, 0.785343597875908, 0.8015077707823366, 0.8182317302562296, 0.835088127059862, 0.8513840546365827, 0.8702874262817204, 0.8859351624269038, 0.9016272716689855, 0.9196182596497238, 0.93522367044352, 0.951410030014813, 0.9684190028347075, 0.9859092552214861, 1.0019747829064727, 1.018222582526505, 1.0351236939895898, 1.05149437347427, 1.0724498401395977, 1.0854614600539207, 1.1016246092040092, 1.1180604833643883, 1.1406447920016944, 1.1518292555119842, 1.1685890548396856, 1.1859178566373885, 1.201687448658049, 1.219547364860773, 1.236741681350395, 1.2513701964635402, 1.2701469336170703, 1.2845675768330693, 1.3016028320416808, 1.3180373411159962, 1.341611857060343, 1.3512814841233194, 1.3745194454677403, 1.3854659998323768, 1.4016581622418016, 1.4184029430616647, 1.4351118837948889, 1.4520542963873595, 1.4685249866452068, 1.4977632437366992, 1.5028293104842305, 1.5181981772184372, 1.5352214858867228, 1.551351525587961, 1.5701883372385055]
27	images/0258.jpg	images/0454.jpg	right	1.295	[0.0, 0.0, 0.0, 0.0, 0.0, 0.0, 0.0, 0.0, 0.0, 0.0, 0.0, 0.0, -2.0, -3.0, -3.0, -2.0, 4.0, 6.0, 8.0, 11.0, 11.0, 12.0, 12.0, 12.0, 12.0, 8.0, 3.0, -2.0, -19.0, -37.0, -52.0, -88.0, -107.0, -146.0, -188.0, -244.0, -316.0, -330.0, -349.0, -351.0, -335.0, -285.0, -211.0, -118.0, -8.0, 109.0, 231.0, 409.0, 468.0, 563.0, 664.0, 701.0, 724.0, 734.0, 737.0, 737.0, 737.0, 737.0, 737.0, 736.0, 733.0, 731.0, 729.0, 728.0, 726.0, 724.0, 721.0, 718.0, 714.0, 713.0, 712.0, 712.0, 712.0, 712.0, 712.0, 712.0, 712.0]	[-490.0, -490.0, -490.0, -490.0, -490.0, -490.0, -491.0, -491.0, -491.0, -491.0, -491.0, -489.0, -488.0, -487.0, -486.0, -483.0, -479.0, -477.0, -475.0, -468.0, -462.0, -460.0, -449.0, -428.0, -419.0, -393.0, -376.0, -367.0, -338.0, -316.0, -295.0, -243.0, -216.0, -142.0, -80.0, -13.0, 76.0, 94.0, 133.0, 163.0, 215.0, 283.0, 353.0, 407.0, 452.0, 486.0, 505.0, 519.0, 519.0, 519.0, 519.0, 512.0, 504.0, 500.0, 498.0, 498.0, 498.0, 497.0, 493.0, 487.0, 478.0, 466.0, 443.0, 426.0, 409.0, 399.0, 396.0, 392.0, 390.0, 389.0, 388.0, 388.0, 388.0, 388.0, 388.0, 388.0, 388.0]	[0.0004474879242479801, 0.005743954563513398, 0.01697859400883317, 0.03409747593104839, 0.05052481684833765, 0.06735697900876403, 0.0836334505584091, 0.10001812479458749, 0.12464258167892694, 0.13329230528324842, 0.15234893537126482, 0.16725427191704512, 0.18354473821818829, 0.20158897433429956, 0.21807092847302556, 0.23333432339131832, 0.2524186016526073, 0.266437154263258, 0.2892539107706398, 0.30068891285918653, 0.31701044039800763, 0.3341112316120416, 0.3571365426760167, 0.36698775878176093, 0.38396942475810647, 0.4006722215563059, 0.4167800748255104, 0.4341532497201115, 0.45031230291351676, 0.4671588009223342, 0.4839349843095988, 0.5012200954370201, 0.5170190420467407, 0.535350680584088, 0.5504065449349582, 0.5681527971755713, 0.5835646719206125, 0.6007211005780846, 0.6168412417173386, 0.6340751526877284, 0.6503427498973906, 0.6673575250897557, 0.6835769941098988, 0.7006962173618376, 0.716933777090162, 0.7338987176772207, 0.7562038155738264, 0.7670114473439753, 0.7839555668178946, 0.8011389605235308, 0.8168583766091615, 0.8354623990599066, 0.8504363433457911, 0.8674350760411471, 0.883607099764049, 0.9009659388102591, 0.9169085866305977, 0.933922337833792, 0.9502875562757254, 0.9674467153381556, 0.9835835818666965, 1.0006106451619416, 1.0168857513926923, 1.034085188060999, 1.0504954622592777, 1.067100637825206, 1.0839280211366713, 1.1012291749939322, 1.1169707775115967, 1.1354764960706234, 1.1504791125189513, 1.1674126503057778, 1.1835816020611674, 1.2006004734430462, 1.2167789824306965, 1.233829939039424, 1.2504228265024722]
28	images/0278.jpg	images/0156.jpg	right	1.323	[0.0, 0.0, 0.0, 0.0, 0.0, 0.0, 0.0, 0.0, 0.0, 0.0, 2.0, 2.0, 4.0, 5.0, 7.0, 7.0, 9.0, 10.0, 12.0, 16.0, 22.0, 36.0, 79.0, 102.0, 147.0, 220.0, 278.0, 342.0, 401.0, 459.0, 522.0, 572.0, 612.0, 642.0, 668.0, 696.0, 703.0, 725.0, 736.0, 747.0, 755.0, 760.0, 760.0, 760.0, 760.0, 760.0, 759.0, 754.0, 749.0, 740.0, 725.0, 708.0, 694.0, 685.0, 681.0, 681.0, 681.0, 681.0, 681.0, 680.0, 679.0, 679.0, 678.0, 677.0, 676.0, 675.0, 674.0, 673.0, 673.0, 673.0, 673.0, 673.0, 673.0, 673.0, 673.0, 673.0, 673.0, 673.0, 673.0]	[-490.0, -490.0, -490.0, -490.0, -490.0, -490.0, -490.0, -490.0, -490.0, -490.0, -490.0, -490.0, -489.0, -487.0, -485.0, -484.0, -482.0, -480.0, -476.0, -473.0, -463.0, -450.0, -413.0, -397.0, -360.0, -302.0, -256.0, -205.0, -153.0, -99.0, -29.0, 33.0, 90.0, 134.0, 170.0, 209.0, 222.0, 252.0, 268.0, 281.0, 293.0, 304.0, 311.0, 318.0, 327.0, 331.0, 336.0, 345.0, 350.0, 353.0, 355.0, 356.0, 356.0, 356.0, 356.0, 356.0, 356.0, 356.0, 356.0, 356.0, 356.0, 356.0, 355.0, 355.0, 354.0, 352.0, 351.0, 350.0, 349.0, 349.0, 349.0, 348.0, 348.0, 347.0, 347.0, 347.0, 347.0, 347.0, 347.0]	[0.0026187077164649963, 0.007833936950191855, 0.02211019629612565, 0.0383538999594748, 0.054711950244382024, 0.07611763523891568, 0.08857527165673673, 0.10519136977382004, 0.12128454563207924, 0.1442214511334896, 0.15471915248781443, 0.17523873667232692, 0.18921120930463076, 0.20494905742816627, 0.2242354047484696, 0.23861474683508277, 0.25511342636309564, 0.2720551562961191, 0.2885978678241372, 0.3052149899303913, 0.32141534448601305, 0.34419011673890054, 0.35465812194161117, 0.3716281827073544, 0.388359310105443, 0.405191813595593, 0.4213986531831324, 0.43839363125152886, 0.45540260383859277, 0.47161934222094715, 0.4880323470570147, 0.5049894370604306, 0.5216823350638151, 0.5385482890997082, 0.5553405152168125, 0.5715098083019257, 0.588713682256639, 0.6049427085090429, 0.6216922679450363, 0.6385923554189503, 0.6558924850542098, 0.671646717004478, 0.6901206916663796, 0.7131149412598461, 0.7220076939556748, 0.7382432057056576, 0.7553016715683043, 0.7715143139939755, 0.7885427426081151, 0.8049762274604291, 0.8217148643452674, 0.8385268875863403, 0.8544702180661261, 0.8750328102614731, 0.8886967180296779, 0.9047799950931221, 0.9219674849882722, 0.9382453218568116, 0.9545699215959758, 0.9772696006111801, 0.9885984482243657, 1.0051148768980056, 1.0219978976529092, 1.0382631053216755, 1.0545989689417183, 1.0717905547935516, 1.0887401355430484, 1.1047981539741158, 1.1219969077501446, 1.1382802061270922, 1.154588421806693, 1.1773020955733955, 1.188556191045791, 1.2051873079035431, 1.2211971983779222, 1.238426672294736, 1.2555165407247841, 1.2715305271558464, 1.2879117880947888]
29	images/0022.jpg	images/0385.jpg	left	1.354	[0.0, 0.0, 0.0, 0.0, 0.0, 1.0, 2.0, 2.0, 2.0, 2.0, 2.0, 2.0, 2.0, 2.0, 2.0, 2.0, 2.0, 3.0, 3.0, 6.0, 11.0, 26.0, 42.0, 76.0, 113.0, 160.0, 207.0, 286.0, 311.0, 431.0, 473.0, 590.0, 653.0, 705.0, 740.0, 766.0, 773.0, 788.0, 790.0, 794.0, 795.0, 795.0, 795.0, 796.0, 798.0, 798.0, 798.0, 784.0, 778.0, 759.0, 737.0, 680.0, 653.0, 559.0, 427.0, 171.0, 86.0, -166.0, -311.0, -490.0, -534.0, -592.0, -617.0, -628.0, -635.0, -645.0, -648.0, -651.0, -653.0, -654.0, -656.0, -662.0, -672.0, -685.0, -698.0, -714.0, -722.0, -724.0, -724.0, -724.0, -724.0]	[-490.0, -490.0, -490.0, -490.0, -490.0, -489.0, -491.0, -494.0, -494.0, -494.0, -494.0, -494.0, -494.0, -493.0, -493.0, -492.0, -491.0, -489.0, -487.0, -482.0, -473.0, -450.0, -422.0, -382.0, -336.0, -280.0, -237.0, -179.0, -161.0, -61.0, -21.0, 62.0, 95.0, 121.0, 142.0, 160.0, 168.0, 183.0, 185.0, 189.0, 191.0, 192.0, 194.0, 201.0, 220.0, 230.0, 238.0, 248.0, 251.0, 259.0, 270.0, 298.0, 306.0, 327.0, 346.0, 385.0, 396.0, 431.0, 443.0, 445.0, 441.0, 423.0, 413.0, 406.0, 401.0, 392.0, 392.0, 389.0, 388.0, 388.0, 386.0, 383.0, 377.0, 370.0, 362.0, 356.0, 355.0, 354.0, 354.0, 354.0, 354.0]	[0.0006799355614930391, 0.005158568033948541, 0.01753394305706024, 0.034716312773525715, 0.0506511100102216, 0.06819324498064816, 0.08428471419028938, 0.10052261501550674, 0.11769372108392417, 0.13385687000118196, 0.15683302888646722, 0.16723037837073207, 0.19012905447743833, 0.20061071310192347, 0.21770706702955067, 0.23386680288240314, 0.250929364701733, 0.26745808171108365, 0.2842318757902831, 0.3007483046967536, 0.3178084772080183, 0.33393203164450824, 0.3509208655450493, 0.3672727718949318, 0.38431417127139866, 0.40074970410205424, 0.4241163481492549, 0.43403753777965903, 0.45727618178352714, 0.46749160066246986, 0.4907193221151829, 0.5007268688641489, 0.5176750842947513, 0.5340986703522503, 0.5576967382803559, 0.5675837947055697, 0.5904066949151456, 0.600769569631666, 0.6242976642679423, 0.6340498940553516, 0.6571554180700332, 0.6673943889327347, 0.6842524921521544, 0.7005559292156249, 0.717589819105342, 0.7339260240551084, 0.7550388453528285, 0.7675442681647837, 0.7842726651579142, 0.8006075047887862, 0.8238051887601614, 0.8339786236174405, 0.8508483322802931, 0.8672804518137127, 0.8902525147423148, 0.9005839868914336, 0.9240158253815025, 0.9338946896605194, 0.9570875952485949, 0.9672306512948126, 0.9842406481038779, 1.0005703675560653, 1.0176465827971697, 1.0338384038768709, 1.056878050789237, 1.0679218850564212, 1.0840952740982175, 1.1004717564210296, 1.1175094011705369, 1.133773926179856, 1.150988381356001, 1.1678587726783007, 1.1842250148765743, 1.2004663292318583, 1.2176142244134098, 1.2344067918602377, 1.2510225486475974, 1.2671669244300574, 1.2855917471460998, 1.3020375198684633, 1.3175152719486505]
30	images/0249.jpg	images/0002.jpg	right	1.041	[0.0, 2.0, 2.0, 2.0, 2.0, 2.0, 2.0, 2.0, 2.0, 2.0, 3.0, 3.0, 3.0, 3.0, 5.0, 6.0, 9.0, 13.0, 18.0, 25.0, 35.0, 50.0, 69.0, 99.0, 138.0, 181.0, 232.0, 243.0, 279.0, 308.0, 364.0, 427.0, 481.0, 522.0, 558.0, 579.0, 601.0, 606.0, 619.0, 628.0, 631.0, 635.0, 638.0, 641.0, 650.0, 657.0, 664.0, 669.0, 669.0, 670.0, 671.0, 672.0, 673.0, 673.0, 673.0, 673.0, 673.0, 673.0, 673.0, 673.0, 673.0, 673.0, 673.0]	[-490.0, -490.0, -490.0, -490.0, -490.0, -490.0, -490.0, -490.0, -490.0, -490.0, -490.0, -490.0, -490.0, -490.0, -490.0, -487.0, -482.0, -475.0, -463.0, -447.0, -427.0, -397.0, -354.0, -293.0, -229.0, -166.0, -104.0, -91.0, -60.0, -40.0, 7.0, 52.0, 90.0, 115.0, 141.0, 159.0, 185.0, 193.0, 217.0, 230.0, 236.0, 242.0, 248.0, 253.0, 265.0, 277.0, 289.0, 297.0, 298.0, 300.0, 301.0, 304.0, 305.0, 305.0, 305.0, 305.0, 305.0, 305.0, 305.0, 305.0, 305.0, 305.0, 305.0]	[0.011746468488126993, 0.016563703306019306, 0.023329267743974924, 0.03950402210466564, 0.05676558124832809, 0.07371925795450807, 0.08982403902336955, 0.10628483071923256, 0.1294569147285074, 0.1395487708505243, 0.15943654743023217, 0.17408929718658328, 0.19001590250991285, 0.20702316844835877, 0.22350921854376793, 0.23960137041285634, 0.26292500644922256, 0.2737401477061212, 0.28987155272625387, 0.306215608259663, 0.3231976155657321, 0.3412152277305722, 0.3573944193776697, 0.3729465820360929, 0.3901378265582025, 0.40707204723730683, 0.4230553137604147, 0.4402800090610981, 0.456424725940451, 0.47286879224702716, 0.4901351302396506, 0.5061859805136919, 0.5233154438901693, 0.5408514349255711, 0.5566483333241194, 0.5766412403900176, 0.5900764549151063, 0.6069338757079095, 0.6232403847388923, 0.6396533895749599, 0.663287638919428, 0.6730217777658254, 0.6900836571585387, 0.7063198513351381, 0.7234039173927158, 0.7397029169369489, 0.7627022864762694, 0.7729945052415133, 0.7900853978935629, 0.8062816562596709, 0.829536001663655, 0.839679399272427, 0.856939593097195, 0.8730061447713524, 0.8900212612934411, 0.9063421064056456, 0.9233845295384526, 0.9397139078937471, 0.9567392645403743, 0.9729894534684718, 0.9961055591702461, 1.0062086791731417, 1.0232978651765734]
31	images/0261.jpg	images/0424.jpg	right	1.132	[0.0, 0.0, 0.0, 0.0, 0.0, 0.0, 0.0, 0.0, 0.0, 0.0, 0.0, 0.0, -6.0, -9.0, -14.0, -18.0, -22.0, -29.0, -32.0, -37.0, -45.0, -57.0, -68.0, -79.0, -94.0, -108.0, -135.0, -143.0, -160.0, -188.0, -197.0, -232.0, -256.0, -273.0, -277.0, -266.0, -204.0, -181.0, -117.0, 33.0, 94.0, 235.0, 452.0, 587.0, 692.0, 771.0, 810.0, 825.0, 827.0, 827.0, 827.0, 827.0, 827.0, 827.0, 827.0, 827.0, 827.0, 824.0, 820.0, 815.0, 804.0, 799.0, 789.0, 773.0, 770.0, 768.0, 768.0, 768.0]	[-490.0, -490.0, -490.0, -490.0, -490.0, -490.0, -490.0, -490.0, -490.0, -490.0, -490.0, -490.0, -482.0, -479.0, -477.0, -474.0, -470.0, -464.0, -462.0, -458.0, -451.0, -439.0, -424.0, -408.0, -388.0, -369.0, -339.0, -330.0, -315.0, -291.0, -281.0, -239.0, -217.0, -201.0, -177.0, -123.0, -21.0, 9.0, 73.0, 186.0, 219.0, 284.0, 360.0, 398.0, 423.0, 436.0, 439.0, 439.0, 439.0, 439.0, 439.0, 439.0, 439.0, 439.0, 439.0, 439.0, 438.0, 433.0, 427.0, 419.0, 403.0, 398.0, 390.0, 382.0, 382.0, 381.0, 381.0, 381.0]	[0.0079252440482378, 0.01224720454774797, 0.01597080798819661, 0.03803594852797687, 0.04898284422233701, 0.06568871298804879, 0.0816357983276248, 0.10184920649044216, 0.11507450114004314, 0.13260298292152584, 0.14830840402282774, 0.17274307971820235, 0.1824393307324499, 0.1987250184174627, 0.21504210866987705, 0.23198588658124208, 0.2492017070762813, 0.2652208136860281, 0.2825018288567662, 0.29881926043890417, 0.31499503878876567, 0.3320040113758296, 0.3490239067468792, 0.3658659674692899, 0.38165603927336633, 0.404832219472155, 0.4149793714750558, 0.4321801734622568, 0.4496564310975373, 0.465317479101941, 0.48515849304385483, 0.49887940334156156, 0.5158849626313895, 0.5319982769433409, 0.5483310685958713, 0.5713539901189506, 0.5824107951484621, 0.59874904807657, 0.6173373693600297, 0.6319512070622295, 0.648718174546957, 0.6654035632964224, 0.6824729519430548, 0.6987227995414287, 0.7158126682043076, 0.7319713800679892, 0.7487704327795655, 0.7725787619128823, 0.7824170074891299, 0.7985828872770071, 0.8157591130584478, 0.8318567262031138, 0.8485277788713574, 0.8716329617891461, 0.8824419588781893, 0.8986255880445242, 0.915819221874699, 0.9319564295001328, 0.948682778282091, 0.9719900304917246, 0.9823785051703453, 0.9986430301796645, 1.0164305835496634, 1.0319718236569315, 1.0501075370702893, 1.0656453638803214, 1.0817528755869716, 1.1005995857995003]
