trialIndex	stimulus	isAnimate	left_option	right_option	response	response_time	xTrajectory	yTrajectory	tTrajectory
0	楼梯	False	inanimate	animate	left	1.512	[0.0, 0.0, 0.0, 0.0, 0.0, 0.0, 0.0, 0.0, 0.0, 0.0, 0.0, 0.0, 0.0, 0.0, 0.0, 0.0, 0.0, 0.0, 0.0, 0.0, 0.0, 0.0, 0.0, 0.0, 0.0, 0.0, 0.0, 0.0, 0.0, 0.0, 0.0, 0.0, 0.0, 0.0, 0.0, 0.0, 0.0, 0.0, 0.0, 0.0, 0.0, 0.0, 0.0, 0.0, 0.0, 0.0, 0.0, 0.0, 0.0, 0.0, 0.0, 0.0, 0.0, 0.0, 0.0, 0.0, 0.0, -3.0, -9.0, -53.0, -81.0, -220.0, -339.0, -481.0, -627.0, -755.0, -868.0, -946.0, -960.0, -960.0, -960.0, -960.0, -960.0, -960.0, -960.0, -959.0, -953.0, -941.0, -924.0, -904.0, -881.0, -857.0, -824.0, -815.0, -803.0, -796.0, -795.0, -795.0, -795.0, -795.0, -795.0]	[-490.0, -490.0, -490.0, -490.0, -490.0, -490.0, -490.0, -490.0, -490.0, -490.0, -489.0, -488.0, -488.0, -487.0, -487.0, -485.0, -484.0, -484.0, -482.0, -482.0, -481.0, -479.0, -479.0, -479.0, -479.0, -478.0, -478.0, -478.0, -476.0, -475.0, -474.0, -473.0, -472.0, -472.0, -469.0, -468.0, -467.0, -467.0, -466.0, -465.0, -464.0, -464.0, -463.0, -463.0, -463.0, -463.0, -463.0, -463.0, -463.0, -463.0, -463.0, -463.0, -463.0, -463.0, -462.0, -458.0, -452.0, -441.0, -425.0, -361.0, -323.0, -166.0, -55.0, 65.0, 166.0, 264.0, 357.0, 446.0, 524.0, 540.0, 540.0, 540.0, 540.0, 540.0, 540.0, 540.0, 537.0, 529.0, 519.0, 505.0, 490.0, 472.0, 459.0, 456.0, 456.0, 456.0, 456.0, 456.0, 456.0, 456.0, 456.0]	[0.016556876711547375, 0.02182330610230565, 0.03153491695411503, 0.049818769097328186, 0.06620822194963694, 0.08168324339203537, 0.09949707961641252, 0.1164852308575064, 0.13139500468969345, 0.14954368863254786, 0.16619016556069255, 0.18160238163545728, 0.19950906047597528, 0.21635043853893876, 0.23142439336515963, 0.24944985611364245, 0.2660140716470778, 0.281635524937883, 0.2995193344540894, 0.3168396030087024, 0.33135377150028944, 0.3495727702975273, 0.3660560897551477, 0.3815819697920233, 0.39951697923243046, 0.4164385707117617, 0.43138281907886267, 0.4495390122756362, 0.4659844439011067, 0.4814396679867059, 0.49957196810282767, 0.5164031060412526, 0.5313507677055895, 0.5494547372218221, 0.5662476459983736, 0.5816072968300432, 0.5994979329407215, 0.6163836843334138, 0.6313678685110062, 0.6495042645838112, 0.6662698667496443, 0.6816503389272839, 0.6998505641240627, 0.7162837078794837, 0.7313839453272521, 0.7495066882111132, 0.7660456448793411, 0.7815991730894893, 0.7995041452813894, 0.8164042325224727, 0.83137749414891, 0.8496528128162026, 0.8662528684362769, 0.881619687192142, 0.8995898540597409, 0.9164039252791554, 0.9313645577058196, 0.9495818496216089, 0.9662368597928435, 0.9815644253976643, 0.9994560854975134, 1.0163541247602552, 1.0313717597164214, 1.0495702784974128, 1.066604851046577, 1.0816269235219806, 1.0994820608757436, 1.1163172950036824, 1.1313673565164208, 1.1495716779027134, 1.165939285652712, 1.1816566535271704, 1.19945274037309, 1.216237457236275, 1.2314025480300188, 1.249681621324271, 1.266205218154937, 1.2816553222946823, 1.2994462891947478, 1.3163221420254558, 1.331081046257168, 1.3495427328161895, 1.3661281110253185, 1.381489468505606, 1.3994364247191697, 1.4163511893711984, 1.431335715111345, 1.4495045377407223, 1.466481083771214, 1.4815721053164452, 1.4993890135083348]
1	乌鸦	True	inanimate	animate	right	1.307	[0.0, 0.0, 0.0, 0.0, 0.0, 0.0, 0.0, 0.0, 0.0, 0.0, 0.0, 0.0, 0.0, 0.0, 0.0, 0.0, 0.0, 0.0, 0.0, 0.0, 0.0, 0.0, 0.0, 0.0, -1.0, -1.0, -1.0, -1.0, -1.0, -1.0, -1.0, -1.0, -1.0, -1.0, -1.0, -1.0, -1.0, -1.0, -1.0, -1.0, -1.0, -1.0, -1.0, -1.0, 0.0, 1.0, 6.0, 18.0, 46.0, 102.0, 178.0, 272.0, 371.0, 487.0, 607.0, 728.0, 884.0, 928.0, 959.0, 959.0, 959.0, 959.0, 959.0, 959.0, 959.0, 959.0, 959.0, 958.0, 947.0, 943.0, 925.0, 905.0, 898.0, 882.0, 879.0, 875.0, 873.0, 873.0, 873.0]	[-490.0, -490.0, -490.0, -490.0, -490.0, -490.0, -490.0, -490.0, -490.0, -490.0, -490.0, -490.0, -490.0, -490.0, -490.0, -490.0, -490.0, -490.0, -490.0, -490.0, -490.0, -490.0, -490.0, -490.0, -489.0, -489.0, -489.0, -489.0, -489.0, -489.0, -489.0, -488.0, -488.0, -488.0, -488.0, -486.0, -483.0, -483.0, -483.0, -483.0, -483.0, -483.0, -483.0, -483.0, -482.0, -480.0, -476.0, -468.0, -454.0, -420.0, -364.0, -287.0, -188.0, -59.0, 66.0, 193.0, 380.0, 432.0, 540.0, 540.0, 540.0, 540.0, 540.0, 540.0, 540.0, 540.0, 540.0, 535.0, 520.0, 514.0, 499.0, 488.0, 485.0, 480.0, 479.0, 479.0, 479.0, 479.0, 479.0]	[0.015493453480303288, 0.020145141752436757, 0.02916487050242722, 0.047221394488587976, 0.06412591924890876, 0.079231959534809, 0.0974041954614222, 0.11402268311940134, 0.12947654188610613, 0.14737878320738673, 0.16424234793521464, 0.1791128683835268, 0.20456403400748968, 0.21420771977864206, 0.22921443195082247, 0.2486786141525954, 0.26398843014612794, 0.27990445401519537, 0.29747423715889454, 0.3143804685678333, 0.3294141460210085, 0.34752460080198944, 0.36410793103277683, 0.37949796044267714, 0.39756131125614047, 0.41409310000017285, 0.42913155630230904, 0.44739083223976195, 0.46411786368116736, 0.47920239996165037, 0.497209430905059, 0.513915982330218, 0.5290640066377819, 0.547460839850828, 0.5639837540220469, 0.5792246209457517, 0.5972722703590989, 0.6144263094756752, 0.6290418540593237, 0.6476533857639879, 0.6641947319731116, 0.6794226281344891, 0.6973962082993239, 0.7142474851571023, 0.729106058832258, 0.7476633186452091, 0.7641159181948751, 0.7791762198321521, 0.7974331064615399, 0.8143273910973221, 0.8292648128699511, 0.8477111393585801, 0.864019355038181, 0.879296061815694, 0.8971505167428404, 0.9142335585784167, 0.9292201322969049, 0.9476432481314987, 0.9641634316649288, 0.9793257920537144, 0.9973632013425231, 1.0142370061948895, 1.0289583639241755, 1.0475873036775738, 1.0683154424186796, 1.0789940503891557, 1.097366648958996, 1.1142564963083714, 1.1290392940863967, 1.1474077966995537, 1.1708580672275275, 1.1790196844376624, 1.2043404607102275, 1.2141787065193057, 1.2289502401836216, 1.2475173987913877, 1.2707318081520498, 1.2790821825619787, 1.302184634609148]
2	绵羊	True	animate	inanimate	left	1.189	[0.0, 0.0, 0.0, 0.0, 0.0, 0.0, 0.0, 0.0, 0.0, 0.0, 0.0, 0.0, 0.0, 0.0, 0.0, 0.0, 0.0, 0.0, 0.0, 0.0, 0.0, 0.0, 0.0, 0.0, 0.0, 0.0, 0.0, 0.0, 0.0, 0.0, 0.0, 0.0, 0.0, 0.0, -1.0, -1.0, -2.0, -4.0, -4.0, -4.0, -5.0, -5.0, -5.0, -5.0, -5.0, -5.0, -13.0, -27.0, -53.0, -93.0, -150.0, -223.0, -316.0, -422.0, -541.0, -720.0, -821.0, -857.0, -912.0, -925.0, -928.0, -931.0, -933.0, -934.0, -937.0, -938.0, -939.0, -939.0, -939.0, -939.0, -939.0, -939.0]	[-490.0, -490.0, -490.0, -490.0, -490.0, -490.0, -490.0, -490.0, -490.0, -490.0, -490.0, -490.0, -490.0, -490.0, -490.0, -490.0, -490.0, -490.0, -490.0, -490.0, -490.0, -490.0, -490.0, -490.0, -490.0, -490.0, -490.0, -490.0, -489.0, -488.0, -488.0, -487.0, -487.0, -487.0, -485.0, -484.0, -481.0, -478.0, -477.0, -475.0, -474.0, -474.0, -472.0, -469.0, -466.0, -462.0, -438.0, -409.0, -357.0, -287.0, -198.0, -93.0, 15.0, 121.0, 207.0, 308.0, 358.0, 371.0, 396.0, 404.0, 407.0, 409.0, 412.0, 415.0, 420.0, 424.0, 428.0, 433.0, 433.0, 433.0, 433.0, 433.0]	[0.015213730745017529, 0.02051190403290093, 0.028458140091970563, 0.04710551188327372, 0.06921912194229662, 0.07860680762678385, 0.10034051397815347, 0.11367571773007512, 0.12851688358932734, 0.14711339655332267, 0.16357623622752726, 0.17888844176195562, 0.20078325713984668, 0.21371705317869782, 0.22877769614569843, 0.24718101462349296, 0.2661611863877624, 0.2788598039187491, 0.3023066611494869, 0.31375565798953176, 0.3315630089491606, 0.34722849423997104, 0.3647938398644328, 0.37894175783731043, 0.39809566806070507, 0.41375944670289755, 0.4299956411123276, 0.447016560472548, 0.4642456928268075, 0.4789687574375421, 0.49695257749408484, 0.5135587770491838, 0.5286115691997111, 0.5467933625914156, 0.5661022381391376, 0.578782764961943, 0.5988565681036562, 0.6136246884707361, 0.6297465362586081, 0.646752095548436, 0.6644485131837428, 0.6787981591187418, 0.6970659682992846, 0.7136243812274188, 0.7290417172480375, 0.746737452223897, 0.7637955769896507, 0.77877566521056, 0.7971554317045957, 0.8133291620761156, 0.8290007915347815, 0.8466378170996904, 0.8636413284111768, 0.8787262060213834, 0.8969516900833696, 0.9132954042870551, 0.9288468842860311, 0.9468327525537461, 0.9635614906437695, 0.978760032216087, 0.9970718733966351, 1.0133520998060703, 1.028997446410358, 1.046640957472846, 1.063700788654387, 1.0787064770702273, 1.097016952931881, 1.1134535097517073, 1.1288804032374173, 1.1468055141158402, 1.1637247160542756, 1.1787935511674732]
3	老鹰	True	animate	inanimate	left	1.414	[0.0, 0.0, 0.0, 0.0, 0.0, 0.0, 0.0, 0.0, 0.0, 0.0, 0.0, 0.0, 0.0, 0.0, 0.0, 0.0, 0.0, 0.0, 0.0, -1.0, -1.0, -1.0, -3.0, -3.0, -3.0, -3.0, -3.0, -3.0, -3.0, -3.0, -4.0, -4.0, -4.0, -4.0, -4.0, -4.0, -4.0, -5.0, -5.0, -6.0, -7.0, -8.0, -9.0, -11.0, -11.0, -13.0, -17.0, -27.0, -49.0, -88.0, -144.0, -220.0, -345.0, -438.0, -483.0, -614.0, -675.0, -712.0, -727.0, -732.0, -736.0, -737.0, -737.0, -739.0, -740.0, -742.0, -744.0, -746.0, -749.0, -749.0, -749.0, -753.0, -759.0, -763.0, -768.0, -770.0, -774.0, -779.0, -781.0, -786.0, -789.0, -789.0, -789.0, -789.0, -789.0, -789.0]	[-490.0, -490.0, -490.0, -490.0, -490.0, -490.0, -490.0, -490.0, -490.0, -490.0, -490.0, -490.0, -490.0, -490.0, -490.0, -490.0, -490.0, -490.0, -490.0, -491.0, -491.0, -491.0, -491.0, -491.0, -491.0, -491.0, -489.0, -489.0, -489.0, -489.0, -488.0, -488.0, -488.0, -488.0, -488.0, -488.0, -487.0, -487.0, -486.0, -485.0, -484.0, -483.0, -482.0, -480.0, -479.0, -476.0, -466.0, -451.0, -407.0, -342.0, -273.0, -207.0, -121.0, -70.0, -42.0, 34.0, 79.0, 110.0, 126.0, 138.0, 149.0, 158.0, 166.0, 175.0, 182.0, 189.0, 196.0, 214.0, 229.0, 241.0, 247.0, 260.0, 289.0, 313.0, 328.0, 340.0, 350.0, 369.0, 377.0, 394.0, 403.0, 410.0, 413.0, 414.0, 414.0, 414.0]	[0.013949262211099267, 0.023209972074255347, 0.028828315902501345, 0.04822730319574475, 0.0629636796656996, 0.07585992920212448, 0.09444278897717595, 0.11544774891808629, 0.12600927939638495, 0.14861372648738325, 0.16105190687812865, 0.17583265667781234, 0.19441142049618065, 0.21741727530024946, 0.22590520698577166, 0.2484990726225078, 0.26122704497538507, 0.27589890942908823, 0.2944090652745217, 0.3153327878098935, 0.32603597175329924, 0.344137551728636, 0.3611618843860924, 0.37598666618578136, 0.39445790997706354, 0.41351795359514654, 0.42610939242877066, 0.44429971906356514, 0.4611960519105196, 0.4761160654015839, 0.4944180082529783, 0.5145556405186653, 0.5260391118936241, 0.5482465885579586, 0.5611844805534929, 0.5801923002582043, 0.5945941701065749, 0.613298203330487, 0.6262357539962977, 0.6463488102890551, 0.6612408347427845, 0.6785737324971706, 0.6944556231610477, 0.7123247552663088, 0.7262624120339751, 0.7456422848626971, 0.7612261916510761, 0.7788393239025027, 0.7944228891283274, 0.8124582506716251, 0.8263133049476892, 0.8450518127065152, 0.8610801349859685, 0.8772852681577206, 0.8941904753446579, 0.9118517357856035, 0.9262802295852453, 0.9453689453657717, 0.9610822172835469, 0.9766098039690405, 0.9942601416260004, 1.011074895504862, 1.0260502053424716, 1.0439855561126024, 1.0606275955215096, 1.0761620090343058, 1.0939372745342553, 1.1108322418294847, 1.1261731192935258, 1.143983542220667, 1.1606627870351076, 1.1765139575581998, 1.1942076445557177, 1.211159273283556, 1.2260693882126361, 1.2441911068744957, 1.260879567824304, 1.2761753892991692, 1.294099134625867, 1.310950752813369, 1.326083758380264, 1.3441853383556008, 1.360876529943198, 1.3762529059313238, 1.394236384658143, 1.411226584110409]
4	蚂蚁	True	inanimate	animate	right	1.491	[0.0, 0.0, 0.0, 0.0, 0.0, 0.0, 0.0, 0.0, 0.0, 0.0, 0.0, 0.0, 0.0, 0.0, 0.0, 0.0, 0.0, 0.0, 0.0, 0.0, 0.0, 0.0, 0.0, 0.0, 0.0, 0.0, 0.0, 0.0, 0.0, 0.0, 0.0, 0.0, 0.0, 0.0, 0.0, 0.0, 0.0, 0.0, 0.0, 0.0, 0.0, 0.0, 0.0, 0.0, 0.0, 0.0, 0.0, 0.0, 0.0, 0.0, 0.0, 0.0, 0.0, 0.0, 0.0, -1.0, -1.0, -1.0, -1.0, -1.0, 6.0, 41.0, 103.0, 209.0, 328.0, 514.0, 580.0, 764.0, 853.0, 895.0, 905.0, 906.0, 906.0, 906.0, 906.0, 906.0, 906.0, 906.0, 905.0, 902.0, 895.0, 891.0, 872.0, 860.0, 852.0, 850.0, 849.0, 849.0, 849.0]	[-490.0, -490.0, -490.0, -490.0, -490.0, -490.0, -490.0, -490.0, -490.0, -490.0, -490.0, -490.0, -490.0, -490.0, -490.0, -490.0, -490.0, -490.0, -490.0, -490.0, -490.0, -490.0, -490.0, -490.0, -490.0, -490.0, -490.0, -490.0, -490.0, -490.0, -490.0, -490.0, -490.0, -490.0, -490.0, -490.0, -490.0, -488.0, -487.0, -485.0, -482.0, -481.0, -480.0, -480.0, -480.0, -480.0, -480.0, -480.0, -480.0, -480.0, -480.0, -480.0, -479.0, -475.0, -473.0, -472.0, -472.0, -472.0, -468.0, -456.0, -433.0, -387.0, -330.0, -251.0, -165.0, -21.0, 46.0, 227.0, 306.0, 346.0, 362.0, 370.0, 375.0, 376.0, 376.0, 376.0, 376.0, 376.0, 376.0, 376.0, 376.0, 376.0, 377.0, 382.0, 386.0, 388.0, 389.0, 389.0, 389.0]	[0.003915432607755065, 0.008705019485205412, 0.022858398966491222, 0.04090502439066768, 0.057652194518595934, 0.07283230405300856, 0.09090760140679777, 0.10802341136150062, 0.1228679905179888, 0.14129554363898933, 0.15760853793472052, 0.1730770741123706, 0.19106123549863696, 0.20788588817231357, 0.22281443537212908, 0.24132595653645694, 0.257697660010308, 0.27297129505313933, 0.29084759508259594, 0.30807945830747485, 0.32285781879909337, 0.34131199587136507, 0.35790317691862583, 0.37305973446927965, 0.3951299951877445, 0.40761664463207126, 0.42259775707498193, 0.4412563927471638, 0.46467321272939444, 0.47268600878305733, 0.4978190518449992, 0.5077825668267906, 0.5226008631289005, 0.5414598614443094, 0.5642530657351017, 0.5727263202425092, 0.5979788298718631, 0.6077341316267848, 0.6227439157664776, 0.6412946903146803, 0.6637527055572718, 0.6727813088800758, 0.6909078063908964, 0.7078935683239251, 0.7226367713883519, 0.7413571884389967, 0.7639862115029246, 0.7727868044748902, 0.7910136536229402, 0.807916471734643, 0.8226559201721102, 0.8412322946824133, 0.8636896272655576, 0.8727329079993069, 0.8948867951985449, 0.907843119231984, 0.9227433355990797, 0.9412309634499252, 0.9618543130345643, 0.9728213474154472, 0.9934914594050497, 1.0077701080590487, 1.022774089826271, 1.0411767256446183, 1.0631514131091535, 1.0728101173881441, 1.092419707449153, 1.107766728848219, 1.12528087454848, 1.1411736877635121, 1.15854174294509, 1.172994130058214, 1.192138483049348, 1.2077998723834753, 1.223538744263351, 1.2411040898878127, 1.2582431104965508, 1.2730081588961184, 1.2909107417799532, 1.3075374213512987, 1.3226321975234896, 1.340815014904365, 1.3598607224412262, 1.3728453770745546, 1.3922419752925634, 1.4077023193240166, 1.4236057137604803, 1.4407819397747517, 1.4586363944690675]
5	毛巾	False	animate	inanimate	right	1.308	[0.0, 0.0, 0.0, 0.0, 1.0, 1.0, 1.0, 1.0, 1.0, 1.0, 1.0, 2.0, 2.0, 3.0, 3.0, 3.0, 3.0, 3.0, 3.0, 3.0, 3.0, 4.0, 4.0, 4.0, 4.0, 4.0, 4.0, 4.0, 4.0, 4.0, 4.0, 4.0, 4.0, 4.0, 4.0, 4.0, 4.0, 3.0, 2.0, 1.0, -1.0, -4.0, -11.0, -21.0, -61.0, -76.0, -107.0, -111.0, -117.0, -118.0, -92.0, -80.0, -33.0, 42.0, 151.0, 283.0, 474.0, 528.0, 656.0, 679.0, 715.0, 726.0, 733.0, 733.0, 735.0, 739.0, 748.0, 759.0, 772.0, 786.0, 791.0, 792.0, 793.0, 794.0, 794.0, 794.0, 794.0, 794.0, 794.0]	[-490.0, -490.0, -490.0, -490.0, -490.0, -490.0, -490.0, -490.0, -490.0, -490.0, -490.0, -490.0, -490.0, -490.0, -490.0, -490.0, -490.0, -490.0, -490.0, -490.0, -490.0, -489.0, -489.0, -488.0, -488.0, -488.0, -486.0, -486.0, -486.0, -485.0, -485.0, -483.0, -483.0, -483.0, -482.0, -482.0, -481.0, -480.0, -479.0, -476.0, -475.0, -472.0, -460.0, -446.0, -415.0, -402.0, -371.0, -362.0, -345.0, -322.0, -276.0, -261.0, -216.0, -153.0, -75.0, 16.0, 138.0, 171.0, 250.0, 265.0, 289.0, 299.0, 305.0, 306.0, 310.0, 315.0, 329.0, 345.0, 369.0, 401.0, 417.0, 420.0, 422.0, 425.0, 425.0, 425.0, 425.0, 425.0, 425.0]	[0.01594213559292257, 0.02102492772974074, 0.029851120663806796, 0.048455825773999095, 0.0652671663556248, 0.08023701468482614, 0.09829251491464674, 0.11497005308046937, 0.13276648125611246, 0.14835550799034536, 0.16633762139827013, 0.1798803557176143, 0.20006065466441214, 0.21479259384796023, 0.23273579543456435, 0.248329259455204, 0.26587139442563057, 0.280144581804052, 0.2988342789467424, 0.3150267826858908, 0.3306977292522788, 0.3483808347955346, 0.365283994236961, 0.3798920293338597, 0.3984841052442789, 0.4150216968264431, 0.43028952879831195, 0.44831942906603217, 0.46532259904779494, 0.48003474064171314, 0.49848311534151435, 0.5150906802155077, 0.5302745443768799, 0.5483611058443785, 0.5653472091071308, 0.5801085028797388, 0.5985142106655985, 0.619279213482514, 0.6300284774042666, 0.6482604467310011, 0.6652127578854561, 0.6799668837338686, 0.6983722501900047, 0.7193379569798708, 0.7299831141717732, 0.7548983867745847, 0.7649694215506315, 0.7798839739989489, 0.7983913992065936, 0.821425243280828, 0.8299630095716566, 0.8482403762172908, 0.8652148742694408, 0.8801905252039433, 0.8985576624982059, 0.9186498974449933, 0.9300668090581894, 0.9503385853022337, 0.9651039750315249, 0.9805591991171241, 1.0012829005718231, 1.021727732848376, 1.029972976539284, 1.0496405931189656, 1.0651811505667865, 1.08238604827784, 1.0983430321794003, 1.115811439231038, 1.1302969357930124, 1.1488709209952503, 1.1650651313830167, 1.181151821743697, 1.1982437383849174, 1.2150933083612472, 1.2302235832903534, 1.2483340380713344, 1.2647432882804424, 1.2832479828502983, 1.298179260455072]
6	犯人	True	inanimate	animate	right	1.528	[0.0, 0.0, 0.0, 0.0, 0.0, 0.0, 0.0, 0.0, 1.0, 1.0, 1.0, 1.0, 1.0, 1.0, 1.0, 1.0, 1.0, 1.0, 1.0, 1.0, 1.0, 1.0, 1.0, 1.0, 1.0, 1.0, 1.0, 1.0, 1.0, 1.0, 1.0, 1.0, 1.0, 1.0, 1.0, 1.0, 1.0, 1.0, 1.0, 1.0, 1.0, 1.0, 1.0, 1.0, 1.0, 1.0, 1.0, 1.0, 1.0, 1.0, 1.0, 1.0, -8.0, -15.0, -20.0, -45.0, -88.0, -109.0, -186.0, -213.0, -243.0, -254.0, -257.0, -257.0, -244.0, -205.0, -164.0, 13.0, 268.0, 351.0, 580.0, 649.0, 756.0, 830.0, 881.0, 889.0, 892.0, 892.0, 892.0, 892.0, 892.0, 892.0, 892.0, 892.0, 893.0, 894.0, 894.0, 893.0, 891.0, 888.0, 887.0, 883.0]	[-490.0, -490.0, -490.0, -490.0, -490.0, -490.0, -490.0, -490.0, -490.0, -490.0, -490.0, -490.0, -490.0, -490.0, -490.0, -490.0, -490.0, -490.0, -490.0, -490.0, -490.0, -490.0, -490.0, -490.0, -490.0, -490.0, -490.0, -490.0, -490.0, -490.0, -490.0, -490.0, -490.0, -490.0, -490.0, -490.0, -490.0, -490.0, -490.0, -490.0, -490.0, -490.0, -490.0, -490.0, -490.0, -490.0, -490.0, -490.0, -490.0, -490.0, -490.0, -488.0, -479.0, -470.0, -464.0, -445.0, -420.0, -408.0, -364.0, -345.0, -318.0, -290.0, -240.0, -227.0, -171.0, -116.0, -89.0, 14.0, 144.0, 182.0, 278.0, 304.0, 353.0, 385.0, 406.0, 411.0, 413.0, 413.0, 413.0, 413.0, 413.0, 413.0, 413.0, 413.0, 415.0, 418.0, 424.0, 426.0, 426.0, 426.0, 426.0, 425.0]	[0.009199611376971006, 0.01345228124409914, 0.016889164689928293, 0.03552561393007636, 0.058201740961521864, 0.06696820049546659, 0.08963238075375557, 0.10220572911202908, 0.11700491094961762, 0.1355734346434474, 0.1572228316217661, 0.1670440104790032, 0.18728370149619877, 0.2021719713229686, 0.21974892215803266, 0.23560965014621615, 0.25313881458714604, 0.267270689830184, 0.28643484017811716, 0.30215493869036436, 0.31755008827894926, 0.3352543564978987, 0.35181618272326887, 0.36692870827391744, 0.3874039191287011, 0.40191842895001173, 0.41868334845639765, 0.4353458678815514, 0.4519868833012879, 0.4671489023603499, 0.4863297778647393, 0.5019297271501273, 0.517661772435531, 0.5354179232381284, 0.5523330292198807, 0.5671909204684198, 0.5856365642976016, 0.6019959799014032, 0.6172894120682031, 0.6353568588383496, 0.6523006367497146, 0.6671346344519407, 0.6854481825139374, 0.701781656825915, 0.7172041127923876, 0.7354357407893986, 0.7521798389498144, 0.7671725566033274, 0.7855635872110724, 0.8020445173606277, 0.8172515924088657, 0.8396338315214962, 0.8520590411499143, 0.8670241108629853, 0.8854639520868659, 0.9088032895233482, 0.9169730986468494, 0.9422119550872594, 0.9520246007014066, 0.9668712278362364, 0.9854752502869815, 1.0086940969340503, 1.016951970057562, 1.0415293227415532, 1.0520229281391948, 1.0668763818684965, 1.0854404682759196, 1.1080718806479126, 1.116970436181873, 1.1411156612448394, 1.151936263544485, 1.1670552745927125, 1.185410123784095, 1.2076336431782693, 1.2170646782033145, 1.2397104266565293, 1.2520366497337818, 1.2668979540467262, 1.2855972084216774, 1.3019661814905703, 1.3172872615978122, 1.338027688441798, 1.3522363638039678, 1.3697976134717464, 1.3855429706163704, 1.4036776600405574, 1.4172552104573697, 1.4363586034160107, 1.4520797259174287, 1.4678779898677021, 1.48531704233028, 1.5020423671230674]
7	大门	False	inanimate	animate	left	1.699	[0.0, 0.0, 0.0, 0.0, 0.0, 0.0, 0.0, 0.0, 0.0, 0.0, 1.0, 1.0, 1.0, 1.0, 1.0, 1.0, 1.0, 1.0, 1.0, 1.0, 1.0, 2.0, 2.0, 2.0, 2.0, 2.0, 2.0, 2.0, 2.0, 2.0, 2.0, 2.0, 2.0, 2.0, 2.0, 2.0, 2.0, 2.0, 2.0, 2.0, 2.0, 2.0, 2.0, 2.0, 2.0, 2.0, -7.0, -26.0, -61.0, -121.0, -239.0, -274.0, -377.0, -405.0, -436.0, -461.0, -468.0, -469.0, -483.0, -485.0, -487.0, -488.0, -499.0, -507.0, -523.0, -527.0, -534.0, -539.0, -551.0, -557.0, -584.0, -606.0, -633.0, -668.0, -703.0, -745.0, -771.0, -794.0, -803.0, -809.0, -809.0, -809.0, -808.0, -807.0, -807.0, -807.0, -807.0, -807.0, -807.0, -807.0, -807.0, -807.0, -807.0, -807.0, -807.0, -807.0, -807.0, -807.0, -807.0, -807.0, -807.0, -807.0, -807.0]	[-490.0, -490.0, -490.0, -490.0, -490.0, -490.0, -490.0, -490.0, -490.0, -490.0, -491.0, -491.0, -491.0, -491.0, -491.0, -491.0, -491.0, -491.0, -491.0, -491.0, -491.0, -491.0, -491.0, -490.0, -490.0, -489.0, -489.0, -489.0, -489.0, -488.0, -488.0, -488.0, -488.0, -488.0, -488.0, -488.0, -488.0, -488.0, -488.0, -488.0, -488.0, -488.0, -488.0, -488.0, -488.0, -488.0, -459.0, -424.0, -380.0, -305.0, -167.0, -128.0, -13.0, 21.0, 58.0, 107.0, 125.0, 133.0, 177.0, 184.0, 189.0, 190.0, 206.0, 216.0, 235.0, 239.0, 244.0, 247.0, 251.0, 251.0, 256.0, 263.0, 272.0, 286.0, 302.0, 331.0, 352.0, 370.0, 388.0, 398.0, 409.0, 410.0, 416.0, 417.0, 417.0, 417.0, 417.0, 417.0, 417.0, 417.0, 417.0, 417.0, 417.0, 417.0, 417.0, 417.0, 417.0, 417.0, 417.0, 417.0, 417.0, 417.0, 417.0]	[0.016468983376398683, 0.021113503724336624, 0.02699979394674301, 0.04575775773264468, 0.06771742645651102, 0.07733141630887985, 0.09672528365626931, 0.11241875821724534, 0.1274159133899957, 0.14583117864094675, 0.16347230016253889, 0.1775533170439303, 0.1961037500295788, 0.21233482449315488, 0.2277880006004125, 0.24568375665694475, 0.2621035883203149, 0.27736664190888405, 0.29576074448414147, 0.3121918400283903, 0.32720845099538565, 0.34539775364100933, 0.3640809655189514, 0.3774499613791704, 0.3966915940400213, 0.41233386867679656, 0.4278443888761103, 0.4456729022786021, 0.46249482431448996, 0.47745204344391823, 0.495778220705688, 0.5122509589418769, 0.5275751110166311, 0.5456671337597072, 0.5624549225904047, 0.5771185951307416, 0.5959509694948792, 0.6123223316390067, 0.6275225798599422, 0.6456528319977224, 0.662524247309193, 0.6771377439144999, 0.695793648948893, 0.7124705044552684, 0.7274901873897761, 0.7459061353001744, 0.7624471401795745, 0.7771903432440013, 0.7957271230407059, 0.8166044245008379, 0.8275427869521081, 0.8526710513979197, 0.8622280384879559, 0.8771251828875393, 0.8955889174249023, 0.9182978123426437, 0.927292623789981, 0.9514951927121729, 0.9622485525906086, 0.9774283207952976, 0.9957705407869071, 1.0163119700737298, 1.027464689919725, 1.050857957918197, 1.0623950185254216, 1.0798371429555118, 1.09578354540281, 1.1143257867079228, 1.127590334508568, 1.1478645000606775, 1.1623315648175776, 1.1801583715714514, 1.1957197503652424, 1.2147231325507164, 1.2276801392436028, 1.2476498356554657, 1.262349689612165, 1.2800996964797378, 1.2956979391165078, 1.312531125266105, 1.3275600241031498, 1.3459401321597397, 1.3621937343850732, 1.3774526920169592, 1.3953248960897326, 1.4121468181256205, 1.427424549125135, 1.4455940544139594, 1.461963709909469, 1.4772602142766118, 1.4952675863169134, 1.5135698702652007, 1.527373724617064, 1.5460408935323358, 1.5620985706336796, 1.5774404723197222, 1.595372409792617, 1.6124260970391333, 1.6273979933466762, 1.6458798185922205, 1.6621494635473937, 1.6774138824548572, 1.6955342357978225]
8	诗人	True	animate	inanimate	left	1.902	[0.0, 0.0, 0.0, 0.0, 0.0, 0.0, 0.0, 0.0, 0.0, 0.0, 0.0, 0.0, 0.0, 0.0, 0.0, 0.0, 0.0, 0.0, 0.0, 0.0, 0.0, 0.0, 0.0, 0.0, 0.0, 1.0, 1.0, 1.0, 1.0, 1.0, 1.0, 1.0, 1.0, 1.0, 1.0, 1.0, 0.0, 0.0, 0.0, 0.0, 0.0, -1.0, -1.0, -1.0, -1.0, -1.0, -1.0, -1.0, -1.0, -1.0, -1.0, -1.0, -1.0, 0.0, 0.0, 1.0, 3.0, 5.0, 14.0, 18.0, 33.0, 63.0, 156.0, 197.0, 325.0, 418.0, 512.0, 605.0, 680.0, 722.0, 733.0, 740.0, 749.0, 749.0, 749.0, 749.0, 749.0, 749.0, 743.0, 713.0, 686.0, 673.0, 665.0, 650.0, 611.0, 523.0, 336.0, 266.0, 21.0, -144.0, -287.0, -395.0, -461.0, -489.0, -503.0, -504.0, -504.0, -504.0, -507.0, -512.0, -538.0, -566.0, -603.0, -647.0, -684.0, -712.0, -735.0, -760.0, -786.0, -806.0, -812.0, -812.0, -812.0, -812.0]	[-490.0, -490.0, -490.0, -490.0, -490.0, -490.0, -490.0, -490.0, -490.0, -490.0, -490.0, -490.0, -490.0, -490.0, -490.0, -490.0, -490.0, -490.0, -490.0, -490.0, -490.0, -490.0, -490.0, -490.0, -490.0, -490.0, -490.0, -490.0, -489.0, -489.0, -488.0, -488.0, -488.0, -488.0, -486.0, -484.0, -482.0, -481.0, -478.0, -478.0, -477.0, -476.0, -476.0, -475.0, -475.0, -474.0, -471.0, -467.0, -466.0, -465.0, -459.0, -457.0, -451.0, -450.0, -447.0, -445.0, -437.0, -433.0, -417.0, -408.0, -385.0, -348.0, -242.0, -195.0, -46.0, 62.0, 174.0, 272.0, 361.0, 418.0, 442.0, 467.0, 490.0, 494.0, 494.0, 494.0, 494.0, 494.0, 493.0, 481.0, 465.0, 457.0, 453.0, 449.0, 443.0, 435.0, 435.0, 435.0, 435.0, 435.0, 435.0, 435.0, 435.0, 437.0, 440.0, 440.0, 440.0, 440.0, 441.0, 443.0, 447.0, 449.0, 449.0, 449.0, 447.0, 443.0, 438.0, 431.0, 421.0, 414.0, 410.0, 410.0, 410.0, 410.0]	[0.016356514068320394, 0.021131765097379684, 0.032011418137699366, 0.04944296111352742, 0.06666868040338159, 0.08117704628966749, 0.0990093145519495, 0.11585581256076694, 0.1337904806714505, 0.14914808352477849, 0.16714658099226654, 0.18104020575992763, 0.1990134445950389, 0.2158667694311589, 0.2327542274724692, 0.24899451760575175, 0.2680248653050512, 0.28105491725727916, 0.30018698214553297, 0.31588762486353517, 0.3313797127921134, 0.34900206117890775, 0.3661291350144893, 0.38099009823054075, 0.399205683497712, 0.4158890242688358, 0.43116026977077127, 0.4492092845030129, 0.4660888919606805, 0.48073959373869, 0.49935283209197223, 0.5158767704851925, 0.531153135932982, 0.5492171694058925, 0.5661285207606852, 0.5809662730898708, 0.5992934743408114, 0.6157580206636339, 0.6310569141060114, 0.64921447285451, 0.6661521068308502, 0.6810294538736343, 0.699320815037936, 0.7159399853553623, 0.7311078067868948, 0.7491865176707506, 0.7661326848901808, 0.7808277599979192, 0.7993454253301024, 0.8205275370273739, 0.8308552545495331, 0.8566194225568324, 0.8659347458742559, 0.8807441676035523, 0.8993386328220367, 0.9226018527988344, 0.9308324193116277, 0.955015532206744, 0.9659941720310599, 0.9807926709763706, 0.9992990721948445, 1.0157165145501494, 1.031062170630321, 1.054570467909798, 1.0659471021499485, 1.0808169399388134, 1.0993117357138544, 1.1179703713860363, 1.131156753981486, 1.1505560828372836, 1.1659768321551383, 1.1834319273475558, 1.1991841113194823, 1.216980880824849, 1.2311687348410487, 1.2505315409507602, 1.266137634171173, 1.2818235994782299, 1.299092668108642, 1.3159616941120476, 1.3310237023979425, 1.349229047773406, 1.3659151191823184, 1.3809945355169475, 1.3987599024549127, 1.4170232743490487, 1.4310281737707555, 1.450081049464643, 1.4657622361555696, 1.4812553480733186, 1.4992432643193752, 1.5162061569280922, 1.5308223841711879, 1.5492963586002588, 1.565598430344835, 1.581133184954524, 1.5990197251085192, 1.6159385859500617, 1.6310074208304286, 1.6492346115410328, 1.6656018777284771, 1.6811762270517647, 1.698860356817022, 1.7160365825984627, 1.7310371508356184, 1.7494800640270114, 1.7655114585068077, 1.7811312053818256, 1.7988009988330305, 1.8159151021391153, 1.8309808650519699, 1.8492653996217996, 1.8656463192310184, 1.8810356662143022]
9	冰块	False	inanimate	animate	left	1.19	[0.0, 0.0, 0.0, 0.0, 0.0, 0.0, 0.0, 0.0, 0.0, 4.0, 5.0, 5.0, 4.0, 3.0, 3.0, 2.0, 2.0, 2.0, 2.0, 2.0, 2.0, 1.0, 1.0, 1.0, 0.0, -2.0, -2.0, -4.0, -7.0, -10.0, -12.0, -17.0, -21.0, -27.0, -33.0, -41.0, -42.0, -45.0, -46.0, -51.0, -53.0, -57.0, -64.0, -76.0, -87.0, -98.0, -104.0, -112.0, -121.0, -201.0, -246.0, -418.0, -541.0, -625.0, -672.0, -683.0, -684.0, -684.0, -685.0, -686.0, -692.0, -704.0, -714.0, -724.0, -730.0, -730.0, -730.0, -731.0, -732.0, -732.0, -732.0, -732.0]	[-490.0, -490.0, -490.0, -490.0, -490.0, -490.0, -490.0, -490.0, -490.0, -486.0, -483.0, -475.0, -473.0, -471.0, -470.0, -469.0, -469.0, -469.0, -469.0, -469.0, -468.0, -468.0, -468.0, -466.0, -464.0, -455.0, -452.0, -444.0, -438.0, -431.0, -426.0, -419.0, -411.0, -401.0, -391.0, -383.0, -381.0, -379.0, -378.0, -373.0, -371.0, -365.0, -356.0, -336.0, -314.0, -293.0, -275.0, -212.0, -167.0, -6.0, 52.0, 215.0, 305.0, 364.0, 397.0, 405.0, 407.0, 407.0, 409.0, 414.0, 421.0, 431.0, 437.0, 442.0, 443.0, 443.0, 443.0, 443.0, 442.0, 442.0, 442.0, 442.0]	[0.014193827286362648, 0.018811382120475173, 0.026684914249926805, 0.04499231814406812, 0.0686163273639977, 0.07652228605002165, 0.09466516738757491, 0.11189225176349282, 0.12640368985012174, 0.14506846945732832, 0.1681436151266098, 0.17650900804437697, 0.19462458277121186, 0.21168407285586, 0.22640747856348753, 0.24501115968450904, 0.26697287638671696, 0.27649538894183934, 0.2948143982794136, 0.3117810455150902, 0.3264054646715522, 0.3449743299279362, 0.36748695839196444, 0.3765162443742156, 0.40081711718812585, 0.4148189448751509, 0.42639184556901455, 0.4449856278952211, 0.46557552670128644, 0.47657874249853194, 0.49767210776917636, 0.5118381164502352, 0.5267243380658329, 0.5451696407981217, 0.564656350761652, 0.5766521631740034, 0.599241933086887, 0.6116316439583898, 0.6265721376985312, 0.6449699949007481, 0.6642928649671376, 0.6766446880064905, 0.6955364544410259, 0.7117354434449226, 0.7265834358986467, 0.7449495489709079, 0.7646205790806562, 0.7766279969364405, 0.7967526584398001, 0.8115672003477812, 0.8289140928536654, 0.8448557166848332, 0.8626149394549429, 0.8767963082063943, 0.8954167147167027, 0.9115331009961665, 0.927332047605887, 0.9449311853386462, 0.9621340353041887, 0.9768509557470679, 0.995453271549195, 1.0115041218232363, 1.0269146314822137, 1.0445226437877864, 1.061200523050502, 1.0767369845416397, 1.0947098820470273, 1.1112556655425578, 1.1277738010976464, 1.1445008325390518, 1.1620583275798708, 1.1766598774120212]
10	女王	True	animate	inanimate	left	1.415	[0.0, 0.0, 0.0, 0.0, 0.0, 0.0, 0.0, 0.0, 0.0, 1.0, 1.0, 1.0, 1.0, 1.0, 1.0, 1.0, 1.0, 1.0, 1.0, 1.0, 1.0, 2.0, 2.0, 2.0, 2.0, 2.0, 2.0, 2.0, 2.0, 1.0, 0.0, -4.0, -5.0, -10.0, -13.0, -15.0, -16.0, -20.0, -21.0, -23.0, -23.0, -23.0, -17.0, 13.0, 74.0, 163.0, 345.0, 472.0, 534.0, 705.0, 780.0, 814.0, 825.0, 827.0, 827.0, 818.0, 793.0, 726.0, 561.0, 426.0, 345.0, 91.0, -79.0, -231.0, -358.0, -467.0, -556.0, -624.0, -652.0, -666.0, -666.0, -666.0, -666.0, -669.0, -674.0, -679.0, -680.0, -680.0, -680.0, -687.0, -695.0, -699.0, -701.0, -701.0, -701.0]	[-490.0, -490.0, -490.0, -490.0, -490.0, -490.0, -490.0, -490.0, -490.0, -490.0, -490.0, -490.0, -490.0, -490.0, -490.0, -490.0, -490.0, -490.0, -490.0, -490.0, -490.0, -487.0, -485.0, -485.0, -484.0, -481.0, -480.0, -476.0, -472.0, -457.0, -447.0, -429.0, -422.0, -407.0, -377.0, -361.0, -353.0, -330.0, -317.0, -311.0, -306.0, -298.0, -278.0, -232.0, -167.0, -90.0, 40.0, 128.0, 174.0, 321.0, 384.0, 411.0, 425.0, 435.0, 446.0, 458.0, 466.0, 478.0, 478.0, 476.0, 474.0, 453.0, 451.0, 442.0, 442.0, 442.0, 442.0, 442.0, 442.0, 442.0, 442.0, 442.0, 442.0, 442.0, 443.0, 444.0, 444.0, 444.0, 444.0, 444.0, 441.0, 438.0, 435.0, 435.0, 435.0]	[0.013460643822327256, 0.01904178224503994, 0.024789150105789304, 0.04332831921055913, 0.05975600145757198, 0.07528392947278917, 0.09732790756970644, 0.10999375698156655, 0.12496838415972888, 0.1433580492157489, 0.16383428405970335, 0.174896550597623, 0.1977023840881884, 0.2099709219764918, 0.22480321303009987, 0.24337003007531166, 0.26667864760383964, 0.27484128857031465, 0.2930544847622514, 0.31006755330599844, 0.32482099649496377, 0.34335641097277403, 0.36552668223157525, 0.3750389546621591, 0.39910635561682284, 0.41002355539239943, 0.42481215577572584, 0.4433120717294514, 0.46549702039919794, 0.47491440223529935, 0.4932893901132047, 0.5100379255600274, 0.5250821844674647, 0.5433517005294561, 0.5619181762449443, 0.5752093482296914, 0.594710735604167, 0.6100284024141729, 0.6275394761469215, 0.6433776759076864, 0.6611208561807871, 0.6752356649376452, 0.6943735324312001, 0.7099898657761514, 0.7259710843209177, 0.7431353635620326, 0.75998186157085, 0.7752773417159915, 0.7928757967893034, 0.8095680121332407, 0.8278904347680509, 0.8431070670485497, 0.8610792818944901, 0.8748920108191669, 0.8944630301557481, 0.909811758203432, 0.9265814563259482, 0.9431043704971671, 0.9603959668893367, 0.9748674689326435, 0.9938343286048621, 1.0097428429871798, 1.0252267392352223, 1.0430709540378302, 1.060055009322241, 1.0748531671706587, 1.093264336232096, 1.1098166052252054, 1.1253595517482609, 1.143149153329432, 1.15986219025217, 1.1751167103648186, 1.1931483170483261, 1.2095336741767824, 1.2252199808135629, 1.2431304142810404, 1.2600028535816818, 1.2748047660570592, 1.293276351178065, 1.309585249517113, 1.3253172948025167, 1.343148539075628, 1.3600073249544948, 1.3749566935002804, 1.3933760547079146]
11	汽车	False	inanimate	animate	left	1.346	[0.0, 0.0, 0.0, 0.0, 0.0, 0.0, 0.0, 0.0, 0.0, 0.0, 0.0, 0.0, 0.0, 0.0, 0.0, 0.0, 0.0, 0.0, 0.0, 0.0, 0.0, 0.0, 0.0, 0.0, 0.0, 0.0, 0.0, 0.0, 0.0, 0.0, 0.0, 0.0, 0.0, 0.0, 0.0, 0.0, 0.0, 0.0, 0.0, 0.0, -3.0, -16.0, -36.0, -67.0, -132.0, -232.0, -355.0, -490.0, -630.0, -762.0, -853.0, -909.0, -941.0, -946.0, -947.0, -948.0, -952.0, -956.0, -958.0, -959.0, -959.0, -959.0, -959.0, -959.0, -959.0, -959.0, -959.0, -959.0, -959.0, -959.0, -950.0, -930.0, -905.0, -878.0, -850.0, -828.0, -825.0, -825.0, -825.0, -825.0, -825.0]	[-490.0, -490.0, -490.0, -490.0, -490.0, -490.0, -490.0, -490.0, -490.0, -490.0, -490.0, -490.0, -490.0, -490.0, -490.0, -490.0, -490.0, -490.0, -490.0, -490.0, -490.0, -490.0, -490.0, -490.0, -490.0, -490.0, -490.0, -490.0, -490.0, -490.0, -490.0, -490.0, -490.0, -490.0, -490.0, -490.0, -490.0, -490.0, -490.0, -490.0, -489.0, -484.0, -461.0, -424.0, -356.0, -262.0, -137.0, -11.0, 118.0, 228.0, 309.0, 365.0, 431.0, 452.0, 460.0, 478.0, 494.0, 512.0, 520.0, 521.0, 521.0, 521.0, 521.0, 521.0, 521.0, 521.0, 521.0, 521.0, 521.0, 520.0, 498.0, 460.0, 419.0, 396.0, 386.0, 381.0, 381.0, 381.0, 381.0, 381.0, 381.0]	[0.006047058384865522, 0.01139404228888452, 0.027652764692902565, 0.045406184857711196, 0.06228749896399677, 0.0773307338822633, 0.09542070864699781, 0.11210404941812158, 0.12747291615232825, 0.1455209068953991, 0.16227046633139253, 0.17738913604989648, 0.19559755339287221, 0.21620827354490757, 0.23319301148876548, 0.24955925368703902, 0.2621366980019957, 0.27727277553640306, 0.29546344350092113, 0.3161448196042329, 0.32706611533649266, 0.3499067649245262, 0.3658678447827697, 0.37698779650963843, 0.39548088563606143, 0.41644727485254407, 0.42703372286632657, 0.45202954998239875, 0.4622193688992411, 0.4770106999203563, 0.49548467458225787, 0.5185407053213567, 0.5270607222337276, 0.5515308964531869, 0.5621251950506121, 0.5769820620771497, 0.5955403458792716, 0.6148615092970431, 0.6273013963364065, 0.645315253874287, 0.6621921304613352, 0.6773060213308781, 0.6955926041118801, 0.7144359010271728, 0.7274010996334255, 0.7468113510403782, 0.762190799228847, 0.7796697877347469, 0.7954236783552915, 0.8130006291903555, 0.8273710964713246, 0.8454504900146276, 0.8619880815967917, 0.8769927457906306, 0.8949741765391082, 0.9119172720238566, 0.9270591521635652, 0.9450730097014457, 0.9616877424996346, 0.9771122464444488, 0.9949591921176761, 1.0119128688238561, 1.0271257462445647, 1.0451819291338325, 1.0617256646510214, 1.0772617845796049, 1.0950124741066247, 1.1118879856076092, 1.1271394337527454, 1.145037920679897, 1.1618345840834081, 1.177417125320062, 1.1952470042742789, 1.2121303661260754, 1.2272742944769561, 1.2452782532200217, 1.261985487304628, 1.277403847547248, 1.295271273003891, 1.3121358617208898, 1.3271002487745136]
12	骆驼	True	animate	inanimate	left	1.385	[0.0, 0.0, 0.0, 0.0, 0.0, 0.0, 0.0, 0.0, 0.0, 0.0, 0.0, 0.0, 0.0, 0.0, 0.0, 0.0, 0.0, 0.0, 0.0, 0.0, 0.0, 0.0, 0.0, 0.0, 0.0, 0.0, 0.0, 0.0, 0.0, 0.0, 0.0, 0.0, 0.0, 0.0, 0.0, 0.0, 0.0, 0.0, 0.0, 0.0, 0.0, 0.0, 0.0, 0.0, -1.0, -2.0, -4.0, -28.0, -79.0, -176.0, -302.0, -447.0, -598.0, -724.0, -836.0, -927.0, -960.0, -960.0, -960.0, -960.0, -960.0, -960.0, -960.0, -960.0, -960.0, -960.0, -960.0, -960.0, -960.0, -960.0, -960.0, -955.0, -951.0, -925.0, -891.0, -853.0, -822.0, -803.0, -801.0, -801.0, -801.0, -801.0, -801.0]	[-490.0, -490.0, -490.0, -490.0, -490.0, -490.0, -490.0, -490.0, -490.0, -490.0, -490.0, -490.0, -490.0, -490.0, -490.0, -490.0, -490.0, -490.0, -490.0, -490.0, -490.0, -490.0, -490.0, -490.0, -490.0, -490.0, -490.0, -490.0, -490.0, -490.0, -490.0, -490.0, -490.0, -490.0, -490.0, -489.0, -489.0, -489.0, -489.0, -489.0, -489.0, -489.0, -487.0, -485.0, -482.0, -478.0, -471.0, -434.0, -377.0, -293.0, -193.0, -70.0, 77.0, 207.0, 326.0, 421.0, 480.0, 507.0, 520.0, 524.0, 524.0, 524.0, 525.0, 527.0, 530.0, 532.0, 533.0, 533.0, 533.0, 533.0, 529.0, 516.0, 507.0, 476.0, 451.0, 426.0, 411.0, 405.0, 405.0, 405.0, 405.0, 405.0, 405.0]	[0.013717667665332556, 0.017801719019189477, 0.025300808483734727, 0.0435785164590925, 0.06044720113277435, 0.07577715581282973, 0.0979576671961695, 0.11058801808394492, 0.12578348768875003, 0.1437027957290411, 0.16479308903217316, 0.17548978747799993, 0.1983038131147623, 0.2105924894567579, 0.22545208735391498, 0.24399330443702638, 0.2638704995624721, 0.2758181842509657, 0.3006419795565307, 0.3106372384354472, 0.32542276685126126, 0.3439844639506191, 0.36037937831133604, 0.37576804240234196, 0.3937371850479394, 0.41067208838649094, 0.4255023314617574, 0.4440421834588051, 0.4645453835837543, 0.4755574739538133, 0.4992886616382748, 0.5107055732514709, 0.5278674631845206, 0.5440224201884121, 0.5618621977046132, 0.5758643664885312, 0.5952387780416757, 0.6107264286838472, 0.6281876678112894, 0.6438995744101703, 0.6615809733048081, 0.6758644005749375, 0.694792689755559, 0.7107551346998662, 0.7269292066339403, 0.7438327071722597, 0.7612659570295364, 0.7759924347046763, 0.7941465801559389, 0.8106247796677053, 0.8256205692887306, 0.8435327094048262, 0.8604375754948705, 0.8758180476725101, 0.8937056118156761, 0.9101735714357346, 0.9257820539642125, 0.9435098743997514, 0.9601259725168347, 0.9755467218346894, 0.9935097207780927, 1.010179408127442, 1.025680712191388, 1.0434686071239412, 1.0604454944841564, 1.075966254575178, 1.0937077279668301, 1.1102572663221508, 1.1259538128506392, 1.1438577610533684, 1.1605527072679251, 1.1757061928510666, 1.193870578194037, 1.2104296735487878, 1.2258159483317286, 1.2437837258912623, 1.2607670985162258, 1.2756632189266384, 1.293951166793704, 1.3148547508753836, 1.331617963500321, 1.3434670029673725, 1.3606381088029593]
13	蜗牛	True	animate	inanimate	left	1.464	[0.0, 0.0, 0.0, 0.0, 0.0, 0.0, 0.0, 0.0, 0.0, 0.0, 0.0, 0.0, 0.0, 0.0, 2.0, 2.0, 2.0, 2.0, 2.0, 2.0, 2.0, 2.0, 2.0, 2.0, 2.0, 2.0, 2.0, 2.0, 2.0, 3.0, 3.0, 3.0, 4.0, 5.0, 6.0, 9.0, 16.0, 19.0, 21.0, 23.0, 25.0, 25.0, 27.0, 46.0, 75.0, 119.0, 198.0, 304.0, 411.0, 511.0, 570.0, 597.0, 607.0, 607.0, 605.0, 551.0, 460.0, 322.0, 153.0, -48.0, -272.0, -496.0, -672.0, -807.0, -947.0, -960.0, -960.0, -960.0, -960.0, -960.0, -960.0, -960.0, -960.0, -960.0, -960.0, -960.0, -960.0, -960.0, -960.0, -944.0, -926.0, -905.0, -887.0, -876.0, -876.0, -876.0, -876.0, -876.0, -876.0]	[-490.0, -490.0, -490.0, -490.0, -490.0, -490.0, -490.0, -490.0, -490.0, -490.0, -490.0, -490.0, -490.0, -490.0, -490.0, -490.0, -490.0, -490.0, -490.0, -490.0, -490.0, -490.0, -490.0, -490.0, -490.0, -490.0, -490.0, -490.0, -490.0, -489.0, -487.0, -485.0, -484.0, -482.0, -480.0, -468.0, -452.0, -443.0, -436.0, -428.0, -421.0, -416.0, -410.0, -376.0, -334.0, -283.0, -213.0, -134.0, -50.0, 44.0, 118.0, 146.0, 173.0, 186.0, 193.0, 227.0, 264.0, 300.0, 344.0, 385.0, 421.0, 456.0, 480.0, 501.0, 520.0, 527.0, 530.0, 534.0, 535.0, 536.0, 537.0, 537.0, 537.0, 537.0, 537.0, 537.0, 537.0, 537.0, 532.0, 509.0, 492.0, 479.0, 468.0, 463.0, 463.0, 463.0, 463.0, 463.0, 463.0]	[0.014544888632372022, 0.02375337458215654, 0.030097051290795207, 0.05024014483205974, 0.06242334935814142, 0.07723754970356822, 0.09576340694911778, 0.11956422682851553, 0.12721213744953275, 0.15247898316010833, 0.162379692774266, 0.1771850185468793, 0.19578119041398168, 0.21831156825646758, 0.2273449501954019, 0.2514147406909615, 0.2624094230122864, 0.2772628767415881, 0.29591297917068005, 0.3153556571342051, 0.3274518216494471, 0.34874930419027805, 0.36243642237968743, 0.37750969477929175, 0.39580993074923754, 0.41430131322704256, 0.4276515357196331, 0.4468006673268974, 0.4625313470605761, 0.4800332048907876, 0.4957358955871314, 0.5133292304817587, 0.527600028552115, 0.5467525734566152, 0.5625085120555013, 0.5781030000653118, 0.595607929630205, 0.612367729190737, 0.6277383025735617, 0.6456954986788332, 0.6622494743205607, 0.6773302559740841, 0.6955021505709738, 0.7122633152175695, 0.7277608646545559, 0.7455665089655668, 0.7622856895904988, 0.7771934154443443, 0.7953219607006758, 0.8121336428448558, 0.8274103496223688, 0.8455194390844554, 0.8622300864662975, 0.877207102952525, 0.8952994670253247, 0.9124883222393692, 0.9275390664115548, 0.945747142424807, 0.9622250006068498, 0.9776884168386459, 0.9954807490576059, 1.0122671723365784, 1.0275827911682427, 1.0455068780574948, 1.0621407255530357, 1.077471704222262, 1.0952421913389117, 1.1123887212015688, 1.1272490015253425, 1.1456461760681123, 1.1622554475907236, 1.177602810319513, 1.1998519296757877, 1.2122382272500545, 1.2272309449035674, 1.2456298263277858, 1.2619100525043905, 1.2775881672278047, 1.2952245101332664, 1.3123386134393513, 1.3272705737035722, 1.3456278124358505, 1.368990701623261, 1.3772864628117532, 1.4013309944421053, 1.4123239701148123, 1.4272702664602548, 1.4456264812033623, 1.465029564453289]
14	枕头	False	inanimate	animate	left	1.573	[0.0, 0.0, 0.0, 0.0, 0.0, 0.0, 0.0, 0.0, 0.0, 0.0, 0.0, 0.0, 0.0, 1.0, 1.0, 1.0, 2.0, 2.0, 2.0, 2.0, 2.0, 2.0, 2.0, 2.0, 2.0, 2.0, 2.0, 2.0, 2.0, 2.0, 2.0, 2.0, 2.0, 2.0, 2.0, 2.0, 2.0, 2.0, 2.0, 2.0, 2.0, 2.0, 2.0, 2.0, 2.0, 2.0, 2.0, 2.0, 2.0, 2.0, 2.0, 2.0, 2.0, 2.0, 2.0, 2.0, 2.0, 2.0, 2.0, 2.0, 2.0, 2.0, 3.0, 4.0, 12.0, 14.0, 25.0, 34.0, 26.0, 26.0, -21.0, -77.0, -169.0, -282.0, -469.0, -525.0, -648.0, -694.0, -707.0, -714.0, -714.0, -714.0, -711.0, -711.0, -715.0, -724.0, -740.0, -743.0, -746.0, -746.0, -750.0, -750.0, -750.0, -750.0, -750.0]	[-490.0, -490.0, -490.0, -490.0, -490.0, -490.0, -490.0, -490.0, -490.0, -490.0, -490.0, -490.0, -490.0, -490.0, -490.0, -489.0, -489.0, -489.0, -489.0, -489.0, -489.0, -489.0, -489.0, -488.0, -487.0, -486.0, -486.0, -486.0, -485.0, -485.0, -485.0, -484.0, -484.0, -484.0, -484.0, -484.0, -484.0, -484.0, -484.0, -484.0, -484.0, -484.0, -484.0, -484.0, -484.0, -484.0, -484.0, -484.0, -484.0, -484.0, -484.0, -484.0, -484.0, -484.0, -484.0, -484.0, -484.0, -484.0, -484.0, -484.0, -484.0, -484.0, -482.0, -478.0, -451.0, -442.0, -410.0, -345.0, -267.0, -267.0, -182.0, -124.0, -62.0, 9.0, 116.0, 149.0, 232.0, 281.0, 301.0, 329.0, 339.0, 344.0, 387.0, 397.0, 406.0, 421.0, 439.0, 443.0, 445.0, 445.0, 443.0, 442.0, 442.0, 442.0, 442.0]	[0.01256157224997878, 0.017871692311018705, 0.023120372323319316, 0.0418824318330735, 0.06487975339405239, 0.0733181918039918, 0.09149315860122442, 0.10853967792354524, 0.12326649692840874, 0.14170258352532983, 0.1642216972541064, 0.17333734058775008, 0.19778396282345057, 0.20851035718806088, 0.22325902176089585, 0.24193301750347018, 0.2584043904207647, 0.2736810971982777, 0.2946788892149925, 0.3085899220313877, 0.3235358770471066, 0.34188219299539924, 0.36075655138120055, 0.3735698568634689, 0.3929084283299744, 0.4086230655666441, 0.42591568594798446, 0.44176276051439345, 0.45861301315017045, 0.4737419227603823, 0.49154620175249875, 0.5082298838533461, 0.5235550599172711, 0.5414617387577891, 0.5582799061667174, 0.5734101810958236, 0.5916756012011319, 0.6083852245938033, 0.6235318835824728, 0.6415426689200103, 0.6594940624199808, 0.6735156872309744, 0.6919596244115382, 0.708368191961199, 0.7237664135172963, 0.74169254838489, 0.758584443712607, 0.7735119666904211, 0.791750421281904, 0.8083907542750239, 0.8236920370254666, 0.8418386729899794, 0.8586336297448725, 0.8735870940145105, 0.8918303274549544, 0.9083832788746804, 0.9235964978579432, 0.9460261822678149, 0.9584431999828666, 0.9732969950418919, 0.9918047615792602, 1.0153523122426122, 1.0233374601230025, 1.048816615017131, 1.0584565461613238, 1.0732656265608966, 1.091851899633184, 1.1147778825834394, 1.12332623032853, 1.141449314309284, 1.1586071082856506, 1.173271463252604, 1.1919154217466712, 1.2082635734695941, 1.2236116188578308, 1.2475684280507267, 1.2583852757234126, 1.2732544308528304, 1.2917389867361635, 1.3123305921908468, 1.3234723890200257, 1.3557235938496888, 1.3659055619500577, 1.3733981661498547, 1.3916342314332724, 1.4086554921232164, 1.4235154311172664, 1.441878472454846, 1.4581750826910138, 1.4739910960197449, 1.4915622444823384, 1.5088944595772773, 1.5232563933823258, 1.544681534403935, 1.5582949249073863]
15	蝴蝶	True	inanimate	animate	right	1.582	[0.0, 0.0, 0.0, 0.0, 0.0, 0.0, 0.0, 0.0, 0.0, 0.0, 0.0, 0.0, 0.0, 0.0, 0.0, 0.0, 0.0, 0.0, 0.0, 0.0, 0.0, 0.0, 0.0, 0.0, 0.0, 0.0, 0.0, 0.0, 0.0, 1.0, 1.0, 1.0, 0.0, 0.0, 0.0, 0.0, 0.0, 0.0, 0.0, 0.0, 0.0, -1.0, -1.0, -1.0, -1.0, -1.0, -1.0, -1.0, -1.0, -1.0, -1.0, -1.0, -1.0, -1.0, -1.0, -1.0, -1.0, -1.0, -1.0, 1.0, 7.0, 31.0, 48.0, 93.0, 147.0, 238.0, 272.0, 366.0, 424.0, 448.0, 496.0, 514.0, 521.0, 523.0, 523.0, 524.0, 526.0, 529.0, 532.0, 540.0, 547.0, 553.0, 580.0, 602.0, 632.0, 667.0, 690.0, 706.0, 716.0, 724.0, 728.0, 730.0, 730.0, 730.0, 730.0, 730.0]	[-490.0, -490.0, -490.0, -490.0, -490.0, -490.0, -490.0, -490.0, -490.0, -490.0, -490.0, -490.0, -490.0, -490.0, -490.0, -490.0, -490.0, -490.0, -490.0, -490.0, -490.0, -490.0, -490.0, -490.0, -490.0, -490.0, -490.0, -490.0, -490.0, -487.0, -486.0, -484.0, -481.0, -480.0, -479.0, -479.0, -479.0, -479.0, -479.0, -479.0, -479.0, -479.0, -479.0, -479.0, -478.0, -478.0, -478.0, -476.0, -476.0, -476.0, -476.0, -476.0, -476.0, -476.0, -476.0, -475.0, -473.0, -473.0, -470.0, -465.0, -455.0, -425.0, -409.0, -364.0, -317.0, -229.0, -199.0, -88.0, 9.0, 56.0, 171.0, 211.0, 231.0, 237.0, 237.0, 237.0, 240.0, 244.0, 249.0, 260.0, 268.0, 273.0, 291.0, 306.0, 328.0, 353.0, 370.0, 386.0, 401.0, 414.0, 419.0, 422.0, 422.0, 422.0, 422.0, 422.0]	[0.013799758162349463, 0.01843949966132641, 0.02563104801811278, 0.04486653697676957, 0.06086277402937412, 0.07643541670404375, 0.09419327438808978, 0.11086569237522781, 0.12578536476939917, 0.14387636352330446, 0.16054639220237732, 0.17570499796420336, 0.1939137566369027, 0.21189757669344544, 0.2258976974990219, 0.24620906845666468, 0.26063278364017606, 0.2760480719152838, 0.2940834332257509, 0.3117979415692389, 0.32587076630443335, 0.3455035670194775, 0.3605983431916684, 0.37743187067098916, 0.3939554675016552, 0.4116044398397207, 0.4257131046615541, 0.4444393243175, 0.46073149726726115, 0.4761150414124131, 0.49408247764222324, 0.5107699143700302, 0.5259179386775941, 0.5442144197877496, 0.5607212914619595, 0.5760966434609145, 0.5940992368850857, 0.6108733725268394, 0.625851412769407, 0.6444233499933034, 0.6607158642727882, 0.6759796005208045, 0.6980536158662289, 0.7107959238346666, 0.7256067111156881, 0.7442766106687486, 0.7650238641072065, 0.7756741414777935, 0.7983086258172989, 0.8108461340889335, 0.8256302971858531, 0.8443397914525121, 0.868380910018459, 0.8756717862561345, 0.8990056621842086, 0.9107451336458325, 0.9256211153697222, 0.9442544924095273, 0.9605121908243746, 0.9758520442992449, 1.0002798929344863, 1.0108622449915856, 1.0257290105801076, 1.0442251719068736, 1.0665258325170726, 1.0757291985210031, 1.0979793416336179, 1.1107155058998615, 1.1257205114234239, 1.1440900380257517, 1.1646311262156814, 1.1758476751856506, 1.1942793242633343, 1.2108394438400865, 1.2283665603026748, 1.2441651655826718, 1.2617513325531036, 1.2760381731204689, 1.294782483484596, 1.310686219483614, 1.3267049845308065, 1.3439897543285042, 1.3607133724726737, 1.3759887139312923, 1.393859552918002, 1.4105370910838246, 1.4257223205640912, 1.4436679114587605, 1.4604120093863457, 1.4759191162884235, 1.4939527709502727, 1.5106118770781904, 1.5258452345151454, 1.5436580467503518, 1.5616893123369664, 1.5756583716720343]
16	珍珠	False	animate	inanimate	right	1.638	[0.0, 0.0, 0.0, 0.0, 0.0, 0.0, 0.0, 1.0, 1.0, 1.0, 1.0, 1.0, 1.0, 1.0, 1.0, 2.0, 2.0, 2.0, 2.0, 2.0, 2.0, 2.0, 2.0, 2.0, 2.0, 2.0, 2.0, 2.0, 2.0, 2.0, 2.0, 2.0, 2.0, 2.0, 2.0, 2.0, 2.0, 2.0, 2.0, 2.0, 2.0, 2.0, 2.0, 2.0, 2.0, 2.0, 2.0, 2.0, 2.0, 4.0, 4.0, 4.0, 4.0, 4.0, 4.0, 4.0, 4.0, 4.0, 4.0, 4.0, 4.0, 4.0, 4.0, 5.0, 5.0, 7.0, 9.0, 21.0, 40.0, 84.0, 152.0, 223.0, 286.0, 337.0, 375.0, 419.0, 484.0, 536.0, 557.0, 576.0, 582.0, 587.0, 598.0, 604.0, 616.0, 626.0, 642.0, 647.0, 654.0, 655.0, 659.0, 673.0, 682.0, 683.0, 685.0, 685.0, 685.0, 685.0, 685.0]	[-490.0, -490.0, -490.0, -490.0, -490.0, -490.0, -492.0, -493.0, -493.0, -493.0, -493.0, -493.0, -493.0, -493.0, -493.0, -493.0, -493.0, -493.0, -493.0, -493.0, -493.0, -493.0, -493.0, -493.0, -493.0, -493.0, -493.0, -493.0, -493.0, -493.0, -493.0, -493.0, -493.0, -493.0, -493.0, -493.0, -493.0, -493.0, -493.0, -493.0, -493.0, -493.0, -493.0, -493.0, -493.0, -493.0, -493.0, -491.0, -486.0, -485.0, -485.0, -485.0, -485.0, -485.0, -485.0, -485.0, -485.0, -484.0, -483.0, -482.0, -482.0, -482.0, -482.0, -481.0, -480.0, -478.0, -475.0, -461.0, -440.0, -396.0, -332.0, -267.0, -194.0, -121.0, -49.0, 28.0, 156.0, 246.0, 281.0, 309.0, 319.0, 324.0, 339.0, 345.0, 361.0, 378.0, 399.0, 404.0, 411.0, 412.0, 415.0, 425.0, 433.0, 434.0, 436.0, 436.0, 436.0, 436.0, 436.0]	[0.01407128875143826, 0.01837379322387278, 0.02647089841775596, 0.04470935300923884, 0.06121008051559329, 0.07658816338516772, 0.0946419567335397, 0.11153794801793993, 0.12660405226051807, 0.1448182724416256, 0.165076736593619, 0.1763124002609402, 0.19896941259503365, 0.21139155025593936, 0.22649144660681486, 0.24471385846845806, 0.2655501998960972, 0.2762496289797127, 0.29882608680054545, 0.3112072644289583, 0.32619895809330046, 0.3447760152630508, 0.36806108080781996, 0.37619334319606423, 0.40077581605874, 0.4114008345641196, 0.4261631523258984, 0.4447562522254884, 0.4668968275655061, 0.476374966558069, 0.49853021930903196, 0.5113919940777123, 0.5263318051584065, 0.5447494597174227, 0.5634118500165641, 0.5767484193202108, 0.5967710223048925, 0.6114623427856714, 0.6286839658860117, 0.6448392644524574, 0.6622445248067379, 0.6766248906496912, 0.6955862890463322, 0.7112995609641075, 0.7288416959345341, 0.7446863811928779, 0.7620220098178834, 0.7766129781957716, 0.7948289047926664, 0.8113221230451018, 0.8269783924333751, 0.8446181486360729, 0.8612461935263127, 0.876419817795977, 0.8944480111822486, 0.9110934641212225, 0.9291097107343376, 0.9445959962904453, 0.9628638054709882, 0.976446817163378, 0.9945275760255754, 1.011092474218458, 1.0289554623886943, 1.0445810116361827, 1.061848373617977, 1.0764430966228247, 1.094962468603626, 1.1112300655804574, 1.126675732433796, 1.144610741874203, 1.1614149145316333, 1.1763352695852518, 1.1946068336255848, 1.21117958240211, 1.2265436705201864, 1.24439880810678, 1.2613115247804672, 1.2764776395633817, 1.2945795611012727, 1.3109580914024264, 1.3266317686066031, 1.3490143490489572, 1.3612238361965865, 1.3762148472014815, 1.3946509337984025, 1.4184684788342565, 1.4262484856881201, 1.4517023819498718, 1.46119519835338, 1.4761216973420233, 1.494572120020166, 1.5108659996185452, 1.5265024716500193, 1.5516515574418008, 1.5612310725264251, 1.5761548408772796, 1.5946438340470195, 1.6177309262566268, 1.6262509431689978]
17	家庭	True	animate	inanimate	left	1.301	[0.0, 0.0, 0.0, 0.0, 0.0, 0.0, 0.0, 0.0, 0.0, 0.0, 1.0, 1.0, 1.0, 1.0, 1.0, 1.0, 1.0, 1.0, 1.0, 1.0, 1.0, 1.0, 1.0, 1.0, 1.0, -2.0, -7.0, -12.0, -21.0, -22.0, -22.0, -22.0, -22.0, -22.0, -22.0, -22.0, -22.0, -23.0, -25.0, -27.0, -31.0, -32.0, -32.0, -40.0, -55.0, -63.0, -98.0, -113.0, -150.0, -187.0, -238.0, -245.0, -273.0, -283.0, -289.0, -300.0, -315.0, -338.0, -369.0, -409.0, -467.0, -522.0, -579.0, -589.0, -620.0, -631.0, -641.0, -655.0, -666.0, -683.0, -704.0, -729.0, -757.0, -777.0, -782.0, -782.0, -782.0, -782.0, -782.0]	[-490.0, -490.0, -490.0, -490.0, -490.0, -490.0, -490.0, -490.0, -490.0, -490.0, -491.0, -491.0, -491.0, -491.0, -491.0, -491.0, -491.0, -491.0, -491.0, -491.0, -491.0, -491.0, -491.0, -491.0, -488.0, -479.0, -469.0, -455.0, -435.0, -431.0, -431.0, -431.0, -431.0, -431.0, -431.0, -431.0, -431.0, -430.0, -423.0, -421.0, -413.0, -412.0, -410.0, -401.0, -383.0, -374.0, -339.0, -325.0, -268.0, -192.0, -120.0, -105.0, -51.0, -17.0, 13.0, 61.0, 108.0, 150.0, 192.0, 236.0, 278.0, 317.0, 353.0, 359.0, 375.0, 378.0, 382.0, 386.0, 387.0, 392.0, 398.0, 404.0, 410.0, 418.0, 419.0, 419.0, 419.0, 419.0, 419.0]	[0.013447502627968788, 0.017935692332684994, 0.024086174555122852, 0.04236831981688738, 0.05951894586905837, 0.07444407953880727, 0.09272178751416504, 0.10922763496637344, 0.124637461733073, 0.1425349246710539, 0.15946163586340845, 0.17443865234963596, 0.1927187496330589, 0.2092259624041617, 0.22451461595483124, 0.242527449503541, 0.2594739580526948, 0.2742024839390069, 0.2927310715895146, 0.3092505724634975, 0.32436207425780594, 0.3425667367409915, 0.35946341091766953, 0.37433256581425667, 0.3926502098329365, 0.40925436140969396, 0.42455052421428263, 0.4425107922870666, 0.45952625037170947, 0.4743964292574674, 0.492724996060133, 0.5092827260959893, 0.5245778649114072, 0.5425797756761312, 0.5593464018311352, 0.5744282074738294, 0.5927359526976943, 0.6136047206819057, 0.6241399687714875, 0.6492204465903342, 0.6593423399608582, 0.6741657564416528, 0.6927086801733822, 0.7154035805724561, 0.7241557040251791, 0.7484466782771051, 0.7593188220635056, 0.7741978757549077, 0.792683114297688, 0.8129159787204117, 0.8243281114846468, 0.8482378167100251, 0.8593246589880437, 0.8741931312251836, 0.8926299004815519, 0.9117138374131173, 0.9244708227925003, 0.9444224287290126, 0.9593168424908072, 0.9770139427855611, 0.9925261694006622, 1.0105605067219585, 1.0245172784198076, 1.0439097804483026, 1.0593520337715745, 1.0767832356505096, 1.0925995900761336, 1.1103591544087976, 1.1245736323762685, 1.1436879478860646, 1.159355822717771, 1.1771150454878807, 1.1925624189898372, 1.2105848097708076, 1.2245733253657818, 1.2438566007185727, 1.2593459580093622, 1.275688307126984, 1.292611263692379]
18	燕子	True	animate	inanimate	left	2.517	[0.0, 0.0, 0.0, 0.0, 0.0, 0.0, 0.0, 0.0, 0.0, -1.0, -1.0, -1.0, -1.0, -1.0, -1.0, -1.0, -1.0, -1.0, -1.0, -1.0, -1.0, -1.0, -1.0, -1.0, -1.0, -1.0, -1.0, -1.0, -1.0, -1.0, -1.0, -1.0, -1.0, -1.0, -1.0, -1.0, -1.0, -2.0, -3.0, -4.0, -5.0, -7.0, -9.0, -10.0, -10.0, -11.0, -12.0, -12.0, -12.0, -12.0, -12.0, -12.0, -12.0, -12.0, -12.0, -12.0, -9.0, -3.0, 1.0, 4.0, 5.0, 7.0, 10.0, 20.0, 38.0, 69.0, 117.0, 212.0, 425.0, 496.0, 695.0, 786.0, 863.0, 906.0, 915.0, 915.0, 915.0, 915.0, 915.0, 915.0, 915.0, 915.0, 915.0, 915.0, 915.0, 906.0, 875.0, 864.0, 832.0, 823.0, 810.0, 803.0, 799.0, 798.0, 798.0, 798.0, 798.0, 798.0, 798.0, 798.0, 798.0, 798.0, 798.0, 798.0, 798.0, 798.0, 798.0, 798.0, 798.0, 798.0, 798.0, 798.0, 798.0, 798.0, 798.0, 798.0, 798.0, 798.0, 798.0, 788.0, 755.0, 660.0, 517.0, 311.0, 79.0, -149.0, -335.0, -491.0, -645.0, -665.0, -675.0, -674.0, -664.0, -652.0, -645.0, -643.0, -641.0, -641.0, -641.0, -641.0, -641.0, -641.0, -651.0, -678.0, -705.0, -731.0, -756.0, -776.0, -782.0, -782.0, -782.0, -782.0]	[-490.0, -490.0, -490.0, -490.0, -490.0, -490.0, -490.0, -490.0, -490.0, -490.0, -490.0, -490.0, -490.0, -490.0, -490.0, -490.0, -490.0, -490.0, -490.0, -490.0, -490.0, -490.0, -490.0, -490.0, -490.0, -490.0, -490.0, -490.0, -490.0, -490.0, -490.0, -490.0, -490.0, -490.0, -490.0, -490.0, -487.0, -485.0, -484.0, -482.0, -480.0, -478.0, -476.0, -474.0, -474.0, -473.0, -471.0, -471.0, -471.0, -471.0, -471.0, -471.0, -471.0, -471.0, -471.0, -469.0, -462.0, -454.0, -446.0, -439.0, -430.0, -420.0, -410.0, -393.0, -364.0, -318.0, -257.0, -132.0, 101.0, 157.0, 280.0, 352.0, 416.0, 453.0, 463.0, 463.0, 463.0, 463.0, 463.0, 463.0, 463.0, 463.0, 463.0, 463.0, 463.0, 460.0, 443.0, 436.0, 422.0, 418.0, 413.0, 413.0, 413.0, 413.0, 413.0, 413.0, 413.0, 413.0, 413.0, 413.0, 413.0, 413.0, 413.0, 413.0, 413.0, 413.0, 413.0, 413.0, 413.0, 413.0, 413.0, 413.0, 413.0, 413.0, 413.0, 413.0, 413.0, 413.0, 413.0, 412.0, 412.0, 412.0, 412.0, 423.0, 455.0, 475.0, 497.0, 512.0, 512.0, 511.0, 509.0, 506.0, 501.0, 500.0, 500.0, 500.0, 500.0, 500.0, 500.0, 500.0, 500.0, 500.0, 479.0, 447.0, 417.0, 399.0, 387.0, 378.0, 376.0, 376.0, 376.0, 376.0]	[0.013291513314470649, 0.018017270835116506, 0.02518799784593284, 0.04345068731345236, 0.05999510549008846, 0.07526874030008912, 0.09340240573510528, 0.11018097843043506, 0.12503340817056596, 0.14364050258882344, 0.15980672370642424, 0.1753995050676167, 0.1934126797132194, 0.21012844727374613, 0.22502286080271006, 0.24350639269687235, 0.2597975416574627, 0.2752664191648364, 0.29760906379669905, 0.3100277881603688, 0.32497442583553493, 0.34338047495111823, 0.3642093068920076, 0.3750387839972973, 0.40062818955630064, 0.4100564941763878, 0.42491131322458386, 0.4435515170916915, 0.46676114783622324, 0.47499922360293567, 0.4991103152278811, 0.5101507361978292, 0.5249465047381818, 0.5436222071293741, 0.5655532039236277, 0.5751282817218453, 0.593328506918624, 0.6101944609545171, 0.6252441813703626, 0.6435676279943436, 0.6614562161266804, 0.6752819158136845, 0.6948747802525759, 0.7101787938736379, 0.7263200974557549, 0.7433956302702427, 0.7603650081437081, 0.7753280298784375, 0.7937200844753534, 0.8100501452572644, 0.8254285694565624, 0.843143419129774, 0.8627707583364099, 0.8750160853378475, 0.8948161392472684, 0.9099883981980383, 0.9278066717088223, 0.9433765837457031, 0.9613556251861155, 0.9751301249489188, 0.9945540295448154, 1.0100450937170535, 1.0255481044296175, 1.0432629538699985, 1.0601039906032383, 1.0752038869541138, 1.0934723790269345, 1.1099273678846657, 1.1252634667325765, 1.1433022413402796, 1.1601514702197164, 1.1751540864352137, 1.193482311675325, 1.2145524662919343, 1.2249716608785093, 1.2480433930177242, 1.2601047416683286, 1.2748871981166303, 1.2934867832809687, 1.3160673370584846, 1.3250249431002885, 1.3431695310864598, 1.360152221051976, 1.3749230720568448, 1.3935212919022888, 1.4157045339234173, 1.4251720916945487, 1.4478253494016826, 1.4599703245330602, 1.4751606741920114, 1.4934632994700223, 1.512399439001456, 1.5251642751973122, 1.5446008092258126, 1.5600686627440155, 1.5752644736785442, 1.5935169227886945, 1.6112925298511982, 1.6253056211862713, 1.644454411463812, 1.6600932728033513, 1.6765042296610773, 1.6933981731999665, 1.7107300469651818, 1.7253363754134625, 1.7442151710856706, 1.759961552452296, 1.776030152104795, 1.7933722659945488, 1.8100781347602606, 1.8254022868350148, 1.8430693498812616, 1.8596922745928168, 1.8752765227109194, 1.8930009296163917, 1.9096450170036405, 1.9249688277486712, 1.9443995591718704, 1.9600131618790329, 1.9763797456398606, 1.9933757474645972, 2.0100468003656715, 2.0251770752947778, 2.044114238815382, 2.0598824655171484, 2.0758981585968286, 2.0932372002862394, 2.110128754284233, 2.1250153174623847, 2.1433984972536564, 2.159909123554826, 2.1752609238028526, 2.1932348450645804, 2.210079295327887, 2.2250020396895707, 2.2433783928863704, 2.2597241550683975, 2.2753213737159967, 2.2933932580053806, 2.310144524089992, 2.3251304149162024, 2.3434241656214, 2.3599170425441116, 2.3753627091646194, 2.3933219534810632, 2.410128856776282, 2.424988113110885, 2.4436242210213095, 2.4597703034523875, 2.4752815060783178, 2.4932325582485646, 2.5100251256953925]
19	婴儿	True	animate	inanimate	left	1.111	[0.0, 0.0, 0.0, 0.0, 0.0, 0.0, 0.0, 1.0, 1.0, 1.0, 1.0, 1.0, 1.0, 1.0, 1.0, 1.0, 2.0, 3.0, 3.0, 3.0, 3.0, 5.0, 5.0, 5.0, 6.0, 8.0, 11.0, 25.0, 45.0, 80.0, 132.0, 192.0, 259.0, 330.0, 403.0, 440.0, 445.0, 445.0, 430.0, 405.0, 341.0, 235.0, 76.0, -139.0, -367.0, -602.0, -799.0, -945.0, -960.0, -960.0, -960.0, -959.0, -937.0, -913.0, -894.0, -886.0, -886.0, -885.0, -883.0, -879.0, -866.0, -851.0, -845.0, -844.0, -843.0, -843.0, -843.0, -843.0]	[-490.0, -490.0, -490.0, -490.0, -490.0, -490.0, -490.0, -489.0, -489.0, -489.0, -489.0, -489.0, -489.0, -489.0, -489.0, -489.0, -489.0, -489.0, -489.0, -489.0, -489.0, -488.0, -487.0, -486.0, -485.0, -483.0, -481.0, -468.0, -447.0, -409.0, -360.0, -302.0, -244.0, -181.0, -116.0, -64.0, -26.0, 13.0, 46.0, 75.0, 112.0, 146.0, 190.0, 240.0, 298.0, 335.0, 366.0, 385.0, 411.0, 422.0, 424.0, 427.0, 433.0, 436.0, 439.0, 441.0, 441.0, 441.0, 441.0, 441.0, 441.0, 441.0, 441.0, 441.0, 440.0, 440.0, 440.0, 440.0]	[0.014304590178653598, 0.01904809707775712, 0.03121798951178789, 0.03930280660279095, 0.06167105119675398, 0.07089455588720739, 0.09465919435024261, 0.10602558846585453, 0.1207834689412266, 0.13952538999728858, 0.16165913874283433, 0.17087649926543236, 0.19474763376638293, 0.20599285466596484, 0.22078964696265757, 0.2393902561161667, 0.2595237926580012, 0.27100658137351274, 0.29180810670368373, 0.3059522700496018, 0.3209763905033469, 0.3393360183108598, 0.35755604109726846, 0.3711516819894314, 0.3901830536779016, 0.40618304535746574, 0.4225120823830366, 0.4392937272787094, 0.45675018755719066, 0.4710943722166121, 0.4902731997426599, 0.5059851063415408, 0.5218639248050749, 0.5392009187489748, 0.5563966005574912, 0.5711896382272243, 0.5899022046942264, 0.6058124259579927, 0.6217444923240691, 0.6392630755435675, 0.6556398989632726, 0.6710435817949474, 0.6890246712137014, 0.7055858147796243, 0.7210837055463344, 0.7387797818519175, 0.7556744078174233, 0.7711180266924202, 0.7888840762898326, 0.8057401315309107, 0.8207833664491773, 0.8388610533438623, 0.8568810545839369, 0.8710139540489763, 0.8900712670292705, 0.9056742882821709, 0.9210663659032434, 0.9389105807058513, 0.9560704226605594, 0.9710115988273174, 0.9892442508134991, 1.0054944399744272, 1.0211756266653538, 1.0391079054679722, 1.0560711394064128, 1.0710519102867693, 1.0893258636351675, 1.1057992845308036]
20	抽屉	False	inanimate	animate	left	1.583	[0.0, 0.0, 0.0, 0.0, 0.0, 0.0, 0.0, 0.0, 0.0, 0.0, 0.0, 0.0, 0.0, 0.0, 0.0, 0.0, 0.0, 0.0, 0.0, 0.0, 1.0, 1.0, 1.0, 1.0, 2.0, 2.0, 2.0, 2.0, 2.0, 2.0, 2.0, 2.0, 2.0, 2.0, 2.0, 2.0, 2.0, 2.0, 2.0, 2.0, 2.0, 1.0, 1.0, -3.0, -4.0, -4.0, -5.0, -7.0, -8.0, -9.0, -10.0, -11.0, -12.0, -12.0, -12.0, -12.0, -12.0, -12.0, -12.0, -12.0, -12.0, -12.0, -10.0, -7.0, -6.0, -26.0, -45.0, -153.0, -262.0, -386.0, -513.0, -611.0, -664.0, -690.0, -699.0, -699.0, -699.0, -692.0, -692.0, -691.0, -691.0, -691.0, -691.0, -691.0, -691.0, -691.0, -692.0, -697.0, -710.0, -733.0, -738.0, -739.0, -739.0, -739.0, -739.0]	[-490.0, -490.0, -490.0, -490.0, -490.0, -490.0, -490.0, -490.0, -490.0, -490.0, -490.0, -490.0, -490.0, -490.0, -490.0, -490.0, -490.0, -490.0, -490.0, -490.0, -490.0, -490.0, -490.0, -490.0, -490.0, -490.0, -489.0, -488.0, -488.0, -487.0, -486.0, -486.0, -486.0, -486.0, -485.0, -485.0, -484.0, -483.0, -483.0, -483.0, -482.0, -480.0, -478.0, -475.0, -473.0, -473.0, -471.0, -463.0, -456.0, -444.0, -441.0, -438.0, -435.0, -435.0, -434.0, -434.0, -434.0, -434.0, -434.0, -433.0, -432.0, -430.0, -425.0, -415.0, -401.0, -341.0, -309.0, -199.0, -117.0, -29.0, 57.0, 131.0, 186.0, 226.0, 271.0, 308.0, 321.0, 336.0, 340.0, 349.0, 353.0, 354.0, 354.0, 354.0, 354.0, 355.0, 358.0, 366.0, 377.0, 394.0, 397.0, 398.0, 398.0, 398.0, 398.0]	[0.01465701637789607, 0.019955872325226665, 0.02573839738033712, 0.04566406179219484, 0.06104214442893863, 0.07897169259376824, 0.09437230345793068, 0.11236977693624794, 0.126271593850106, 0.1452551786787808, 0.16087151202373207, 0.1766793334390968, 0.19428461487405002, 0.21137653151527047, 0.2261385079473257, 0.24472819454967976, 0.26096404739655554, 0.27667936752550304, 0.2943088838364929, 0.311166645726189, 0.3262184141203761, 0.34456985001452267, 0.36097056698054075, 0.37667974294163287, 0.3943280326202512, 0.4113103812560439, 0.4260788429528475, 0.4445674947928637, 0.46083816373720765, 0.47633059322834015, 0.49436015193350613, 0.5112049432937056, 0.5261485090013593, 0.5444197317119688, 0.5651345583610237, 0.5760951074771583, 0.5984722266439348, 0.6158747563604265, 0.6260242979042232, 0.644523189868778, 0.6686219933908433, 0.6760756855364889, 0.7008496462367475, 0.7110391238238662, 0.7258973561692983, 0.744546775938943, 0.7668470952194184, 0.7761631009634584, 0.7990170626435429, 0.8110848965588957, 0.8264186060987413, 0.8452782870735973, 0.8656749911606312, 0.8761013539042324, 0.904900997877121, 0.913258881540969, 0.9261459149420261, 0.9443922203499824, 0.9609803291969001, 0.976272054715082, 0.9958045033272356, 1.0111197808291763, 1.0286076439078897, 1.0444635930471122, 1.0619548694230616, 1.0762652619741857, 1.0950447297655046, 1.1110146841965616, 1.1269849801901728, 1.144473867258057, 1.1610664133913815, 1.1764417653903365, 1.1939774150960147, 1.2106720199808478, 1.2259572600014508, 1.2439769201446325, 1.2622935401741415, 1.276146546471864, 1.2952168299816549, 1.3109215686563402, 1.3262965793255717, 1.3440131356474012, 1.3625410408712924, 1.376207679277286, 1.3956541118677706, 1.4108669895213097, 1.42745066084899, 1.4445360922254622, 1.4614819181151688, 1.4761333027854562, 1.494622295955196, 1.5108298182021827, 1.5262570530176163, 1.5441845532041043, 1.5611645125318319]
21	河流	False	animate	inanimate	right	1.306	[0.0, 0.0, 0.0, 0.0, 1.0, 1.0, 1.0, 1.0, 1.0, 1.0, 1.0, 1.0, 1.0, 1.0, 1.0, 1.0, 1.0, 1.0, 1.0, 1.0, 1.0, 1.0, 2.0, 2.0, 2.0, 3.0, 3.0, 3.0, 3.0, 3.0, 3.0, 3.0, 3.0, 3.0, 3.0, 3.0, 3.0, 3.0, 3.0, 3.0, 3.0, 3.0, 3.0, 0.0, -3.0, -4.0, -6.0, -7.0, -7.0, -8.0, -8.0, -8.0, -4.0, 7.0, 23.0, 43.0, 60.0, 77.0, 183.0, 290.0, 400.0, 511.0, 623.0, 723.0, 792.0, 823.0, 832.0, 835.0, 835.0, 835.0, 835.0, 835.0, 835.0, 835.0, 835.0, 835.0, 835.0, 835.0, 835.0]	[-490.0, -490.0, -490.0, -490.0, -490.0, -490.0, -490.0, -490.0, -490.0, -490.0, -490.0, -490.0, -490.0, -490.0, -490.0, -490.0, -489.0, -488.0, -488.0, -488.0, -488.0, -488.0, -487.0, -487.0, -486.0, -485.0, -484.0, -484.0, -484.0, -483.0, -482.0, -482.0, -481.0, -480.0, -478.0, -477.0, -476.0, -474.0, -472.0, -467.0, -459.0, -445.0, -420.0, -384.0, -368.0, -355.0, -345.0, -335.0, -332.0, -330.0, -330.0, -328.0, -319.0, -304.0, -287.0, -255.0, -233.0, -210.0, -109.0, -16.0, 77.0, 201.0, 308.0, 376.0, 416.0, 433.0, 439.0, 443.0, 443.0, 443.0, 443.0, 443.0, 443.0, 445.0, 445.0, 445.0, 445.0, 445.0, 445.0]	[0.010125647997483611, 0.021154805086553097, 0.029351920820772648, 0.053269476629793644, 0.06452698563225567, 0.07967637502588332, 0.09791448852047324, 0.1149674931075424, 0.12981753353960812, 0.14964045654051006, 0.16463727038353682, 0.1819872346241027, 0.1979131572879851, 0.21551331877708435, 0.22970731696113944, 0.24806353147141635, 0.26448575244285166, 0.2803867575712502, 0.2978053300175816, 0.31460028677247465, 0.3297906364314258, 0.3478928990662098, 0.3644670133944601, 0.37941842968575656, 0.3976131936069578, 0.4163257600739598, 0.4295746067073196, 0.44869813811965287, 0.46447114343754947, 0.4797734501771629, 0.4977501023095101, 0.5154256985988468, 0.5295691795181483, 0.5479161781258881, 0.5645691400859505, 0.5796598205342889, 0.5977600351907313, 0.6146812851075083, 0.6295480509288609, 0.6479605855420232, 0.664438443724066, 0.6796001212205738, 0.6976873653475195, 0.71482945792377, 0.7295979196205735, 0.7478633397258818, 0.7643128673080355, 0.7801380965393037, 0.7977239221800119, 0.8145536947995424, 0.8296010259073228, 0.847839139169082, 0.864398576086387, 0.879661288112402, 0.8976884575095028, 0.9144506463780999, 0.9296085692476481, 0.9477640800178051, 0.9643259062431753, 0.9795886182691902, 0.9976946357637644, 1.0145800458267331, 1.0295580860693008, 1.047780156834051, 1.064459060318768, 1.0796948070637882, 1.1018992117606103, 1.1142592267133296, 1.129362536361441, 1.1478252469096333, 1.1685018443968147, 1.1854787315241992, 1.1973898934666067, 1.2145196981728077, 1.229289183858782, 1.2478061662986875, 1.2709946343675256, 1.2793849448207766, 1.2974271329585463]
22	病人	True	animate	inanimate	left	1.499	[0.0, 2.0, 2.0, 2.0, 2.0, 2.0, 2.0, 2.0, 2.0, 2.0, 2.0, 2.0, 2.0, 1.0, 1.0, 1.0, 1.0, 1.0, 1.0, 1.0, 1.0, 1.0, 1.0, 1.0, 1.0, 1.0, 0.0, 0.0, -1.0, -2.0, -2.0, -2.0, -2.0, -2.0, -4.0, -5.0, -5.0, -6.0, -7.0, -7.0, -7.0, -7.0, -7.0, -7.0, -7.0, -8.0, -8.0, -8.0, -9.0, -9.0, -9.0, -9.0, -10.0, -12.0, -15.0, -21.0, -42.0, -55.0, -122.0, -181.0, -260.0, -354.0, -450.0, -535.0, -595.0, -632.0, -643.0, -648.0, -651.0, -654.0, -654.0, -655.0, -655.0, -656.0, -658.0, -663.0, -668.0, -674.0, -681.0, -691.0, -702.0, -711.0, -727.0, -739.0, -750.0, -754.0, -755.0, -755.0, -755.0, -755.0, -755.0]	[-490.0, -489.0, -489.0, -489.0, -489.0, -489.0, -489.0, -489.0, -489.0, -489.0, -488.0, -488.0, -486.0, -484.0, -482.0, -482.0, -481.0, -481.0, -480.0, -479.0, -478.0, -478.0, -477.0, -477.0, -477.0, -477.0, -476.0, -476.0, -473.0, -472.0, -472.0, -471.0, -470.0, -470.0, -467.0, -465.0, -465.0, -464.0, -463.0, -463.0, -463.0, -463.0, -463.0, -463.0, -462.0, -462.0, -461.0, -461.0, -460.0, -460.0, -459.0, -459.0, -458.0, -457.0, -451.0, -444.0, -421.0, -405.0, -326.0, -249.0, -163.0, -81.0, -3.0, 60.0, 103.0, 139.0, 166.0, 202.0, 234.0, 248.0, 256.0, 261.0, 262.0, 269.0, 276.0, 286.0, 297.0, 310.0, 322.0, 334.0, 343.0, 349.0, 360.0, 369.0, 378.0, 382.0, 383.0, 383.0, 383.0, 383.0, 383.0]	[0.012552868342027068, 0.021665439708158374, 0.027131548849865794, 0.04136480041779578, 0.058313015615567565, 0.07322313077747822, 0.09152678004465997, 0.10819578473456204, 0.12333254492841661, 0.14137780503369868, 0.15826116711832583, 0.17295043962076306, 0.19159166747704148, 0.21270141657441854, 0.22306292597204447, 0.2455656558740884, 0.25816392130218446, 0.2729573003016412, 0.2915227522607893, 0.30783506389707327, 0.3231960800476372, 0.3411614680662751, 0.3581410860642791, 0.3729532384313643, 0.39152039703913033, 0.41437879600562155, 0.4230179381556809, 0.44747616560198367, 0.45824795751832426, 0.4729754594154656, 0.49154534842818975, 0.5123731563799083, 0.5231531402096152, 0.5413229870609939, 0.5582288769073784, 0.5730034827720374, 0.5915853185579181, 0.6114512498024851, 0.6231903797015548, 0.6468693437054753, 0.6582425644155592, 0.6730663222260773, 0.6915672621689737, 0.7082512855995446, 0.7233276297338307, 0.7467949672136456, 0.7581859373021871, 0.7756697044242173, 0.7916516053956002, 0.8092456231825054, 0.8233679411932826, 0.8424030675087124, 0.8582815446425229, 0.8759226663969457, 0.891559821087867, 0.9089811241719872, 0.923366951290518, 0.9421191124711186, 0.958109546918422, 0.9738067763391882, 0.9913038553204387, 1.0079110788647085, 1.0233748361933976, 1.0412818563636392, 1.0579037570860237, 1.0731668106745929, 1.0910738308448344, 1.1079466114751995, 1.1234110516961664, 1.1412221572827548, 1.157993903150782, 1.1731641141232103, 1.1910274436231703, 1.2078893017023802, 1.2231782965827733, 1.2413232258986682, 1.2578662787564099, 1.27293067635037, 1.2909940271638334, 1.3082818689290434, 1.3232459146529436, 1.3414000601042062, 1.3580079663079232, 1.3734440756961703, 1.3912920451257378, 1.4080682285130024, 1.4232101088855416, 1.4414543660823256, 1.4625989312771708, 1.4730259766802192, 1.495495597133413]
23	酒精	False	animate	inanimate	right	1.727	[0.0, 0.0, 0.0, 0.0, 0.0, 0.0, 0.0, 0.0, 0.0, 0.0, 0.0, 0.0, 0.0, 1.0, 1.0, 1.0, 2.0, 2.0, 2.0, 2.0, 2.0, 2.0, 2.0, 2.0, 2.0, 2.0, 2.0, 3.0, 3.0, 3.0, 3.0, 3.0, 3.0, 3.0, 3.0, 3.0, 3.0, 3.0, 3.0, 4.0, 4.0, 4.0, 4.0, 6.0, 8.0, 8.0, 12.0, 14.0, 14.0, 14.0, 14.0, 15.0, 19.0, 24.0, 24.0, 28.0, 32.0, 43.0, 63.0, 98.0, 162.0, 257.0, 359.0, 458.0, 536.0, 614.0, 631.0, 662.0, 671.0, 674.0, 676.0, 678.0, 679.0, 681.0, 684.0, 694.0, 704.0, 711.0, 712.0, 712.0, 715.0, 718.0, 718.0, 718.0, 718.0, 718.0, 718.0, 718.0, 718.0, 718.0, 718.0, 718.0, 718.0, 718.0, 718.0, 718.0, 718.0, 718.0, 718.0, 718.0, 718.0, 718.0, 718.0, 718.0, 718.0]	[-490.0, -490.0, -490.0, -490.0, -490.0, -490.0, -490.0, -489.0, -489.0, -488.0, -488.0, -487.0, -486.0, -485.0, -485.0, -483.0, -482.0, -481.0, -481.0, -481.0, -481.0, -481.0, -481.0, -481.0, -479.0, -478.0, -478.0, -477.0, -477.0, -476.0, -475.0, -473.0, -473.0, -473.0, -472.0, -472.0, -471.0, -471.0, -470.0, -469.0, -469.0, -469.0, -469.0, -466.0, -463.0, -461.0, -442.0, -430.0, -425.0, -420.0, -415.0, -409.0, -399.0, -384.0, -381.0, -369.0, -363.0, -350.0, -329.0, -299.0, -250.0, -183.0, -122.0, -57.0, -9.0, 50.0, 64.0, 96.0, 111.0, 118.0, 123.0, 127.0, 130.0, 133.0, 138.0, 151.0, 168.0, 195.0, 204.0, 229.0, 262.0, 289.0, 308.0, 325.0, 346.0, 365.0, 372.0, 372.0, 372.0, 372.0, 372.0, 372.0, 372.0, 372.0, 372.0, 372.0, 372.0, 372.0, 372.0, 372.0, 372.0, 372.0, 372.0, 372.0, 372.0]	[0.012102991342544556, 0.016487074317410588, 0.027386524714529514, 0.036820290610194206, 0.06029069982469082, 0.07429286860860884, 0.0926241660490632, 0.10329936048947275, 0.11811253684572875, 0.13674557278864086, 0.15982515551149845, 0.16827827133238316, 0.19313449319452047, 0.2032727706246078, 0.21808970184065402, 0.23666983097791672, 0.25920840073376894, 0.2681892174296081, 0.28642971999943256, 0.3033291248138994, 0.31810543732717633, 0.3366637211292982, 0.3531139313708991, 0.36838688352145255, 0.39090087730437517, 0.40332676959224045, 0.4181341433431953, 0.4368136003613472, 0.45748541923239827, 0.4682626724243164, 0.48883755248971283, 0.5034012142568827, 0.5183574093971401, 0.5367948613129556, 0.5545615935698152, 0.5686770849861205, 0.588280530879274, 0.6033879364840686, 0.6209461141843349, 0.6367034181021154, 0.6542970943264663, 0.668543316423893, 0.6874146028421819, 0.7032384667545557, 0.7196262129582465, 0.7368031213991344, 0.7536526916082948, 0.7686539425048977, 0.7873607063665986, 0.8032668314408511, 0.8194586525205523, 0.8365519344806671, 0.8537179203704, 0.8684594167862087, 0.8903501362074167, 0.9032166895922273, 0.9180861860513687, 0.9363533125724643, 0.9545316926669329, 0.9685092854779214, 0.9873293719720095, 1.003164499765262, 1.0185244919266552, 1.0364700828213245, 1.0536575727164745, 1.0683847330510616, 1.0869235608261079, 1.1031498566735536, 1.118557294132188, 1.1362803357187659, 1.1533951214514673, 1.1681608527433127, 1.1866194671019912, 1.203022914705798, 1.2184518561698496, 1.236380721675232, 1.2532890010625124, 1.2683189241215587, 1.2865116400644183, 1.302919524954632, 1.31841912236996, 1.3362169158644974, 1.353329653851688, 1.3683862008620054, 1.386603151448071, 1.4029755378142, 1.4184939085971564, 1.4362746353726834, 1.4533016986679286, 1.4683538083918393, 1.4864338843617588, 1.5074702468700707, 1.5180665934458375, 1.544065940193832, 1.5531481329817325, 1.5681002319324762, 1.5866766064427793, 1.610124487662688, 1.6181976995430887, 1.6433403000701219, 1.6532317935489118, 1.6681241593323648, 1.6867220378480852, 1.7029507227707654, 1.7185100535862148]
24	螃蟹	True	inanimate	animate	right	1.283	[0.0, 0.0, 0.0, 0.0, 0.0, 0.0, 0.0, 0.0, 0.0, 0.0, 0.0, 0.0, 0.0, 0.0, 0.0, 0.0, 0.0, 0.0, 0.0, 0.0, 0.0, 0.0, 0.0, 0.0, 0.0, 0.0, 0.0, 0.0, 0.0, -1.0, -4.0, -11.0, -12.0, -15.0, -18.0, -20.0, -22.0, -24.0, -26.0, -29.0, -30.0, -33.0, -34.0, -35.0, -35.0, -35.0, -35.0, -35.0, -35.0, -35.0, -26.0, -16.0, 23.0, 46.0, 66.0, 92.0, 119.0, 172.0, 262.0, 355.0, 438.0, 568.0, 650.0, 697.0, 811.0, 871.0, 904.0, 915.0, 917.0, 917.0, 917.0, 917.0, 917.0, 917.0, 917.0, 917.0, 917.0]	[-490.0, -490.0, -490.0, -490.0, -490.0, -490.0, -490.0, -490.0, -490.0, -490.0, -490.0, -490.0, -490.0, -490.0, -490.0, -490.0, -490.0, -489.0, -488.0, -486.0, -486.0, -486.0, -486.0, -486.0, -485.0, -485.0, -484.0, -484.0, -483.0, -481.0, -475.0, -468.0, -466.0, -463.0, -458.0, -454.0, -452.0, -448.0, -443.0, -437.0, -434.0, -428.0, -423.0, -421.0, -420.0, -417.0, -413.0, -403.0, -387.0, -353.0, -321.0, -295.0, -208.0, -154.0, -115.0, -76.0, -38.0, 26.0, 110.0, 174.0, 227.0, 294.0, 327.0, 344.0, 375.0, 395.0, 411.0, 420.0, 422.0, 422.0, 422.0, 422.0, 422.0, 422.0, 422.0, 422.0, 422.0]	[0.013445625081658363, 0.018840736942365766, 0.024770035408437252, 0.043489769799634814, 0.0601184971164912, 0.07543377461843193, 0.09337390423752367, 0.1103088075760752, 0.12502231472171843, 0.14337818790227175, 0.16385100944899023, 0.17495764908380806, 0.19334663171321154, 0.21020302828401327, 0.22497285553254187, 0.2434778914321214, 0.26458695787005126, 0.2749314005486667, 0.3007768059615046, 0.3100815478246659, 0.32495172694325447, 0.3434574455022812, 0.36657696426846087, 0.37955615762621164, 0.4001047550700605, 0.4101160566788167, 0.42654305626638234, 0.44359810883179307, 0.4637371066492051, 0.47513353801332414, 0.499486293643713, 0.5101034615654498, 0.5249285846948624, 0.5434465911239386, 0.5655772676691413, 0.5750205910298973, 0.5932576803024858, 0.6101659596897662, 0.6250173654407263, 0.6434694945346564, 0.6617164826020598, 0.6754257874563336, 0.6943946951068938, 0.7102472309488803, 0.7274043422657996, 0.7433217314537615, 0.7603139786515385, 0.7753288829699159, 0.7933028044644743, 0.809896033257246, 0.8249720362946391, 0.843059963081032, 0.8598556024953723, 0.8751152425538749, 0.8932809932157397, 0.9098636407870799, 0.9252509395591915, 0.9431978957727551, 0.9598389111924917, 0.9752896979916841, 0.9931410809513181, 1.0097162190359086, 1.0251758804079145, 1.0430385272484273, 1.059923937311396, 1.0752689107321203, 1.0932032375130802, 1.1098708771169186, 1.1251919572241604, 1.143133110832423, 1.16001271805726, 1.1749989504460245, 1.1935753249563277, 1.209982527187094, 1.2253275006078184, 1.2433256567455828, 1.2603305333759636]
25	孔雀	True	inanimate	animate	right	1.146	[0.0, 0.0, 0.0, 0.0, 0.0, 0.0, 0.0, 0.0, 0.0, 0.0, 0.0, -1.0, -2.0, -6.0, -6.0, -7.0, -8.0, -8.0, -9.0, -9.0, -9.0, -9.0, -10.0, -10.0, -11.0, -11.0, -11.0, -11.0, -12.0, -13.0, -13.0, -15.0, -16.0, -17.0, -20.0, -28.0, -39.0, -45.0, -56.0, -58.0, -61.0, -59.0, -52.0, 5.0, 79.0, 173.0, 266.0, 365.0, 459.0, 552.0, 688.0, 727.0, 849.0, 886.0, 892.0, 898.0, 900.0, 900.0, 900.0, 890.0, 871.0, 842.0, 789.0, 773.0, 741.0, 733.0, 722.0, 719.0, 719.0, 718.0]	[-490.0, -490.0, -490.0, -490.0, -490.0, -490.0, -490.0, -490.0, -490.0, -490.0, -490.0, -490.0, -489.0, -488.0, -487.0, -487.0, -486.0, -486.0, -485.0, -485.0, -484.0, -484.0, -484.0, -482.0, -481.0, -480.0, -479.0, -477.0, -470.0, -465.0, -464.0, -457.0, -453.0, -449.0, -431.0, -395.0, -359.0, -337.0, -312.0, -305.0, -291.0, -275.0, -266.0, -208.0, -155.0, -92.0, -26.0, 37.0, 91.0, 144.0, 203.0, 217.0, 282.0, 305.0, 312.0, 325.0, 332.0, 339.0, 347.0, 366.0, 388.0, 412.0, 444.0, 453.0, 467.0, 470.0, 471.0, 471.0, 471.0, 471.0]	[0.013643086422234774, 0.019538933876901865, 0.025712626753374934, 0.04463613708503544, 0.060556939570233226, 0.0759892943315208, 0.09392259712330997, 0.11071926052682102, 0.1257331408560276, 0.14390537701547146, 0.16046481393277645, 0.17599240061827004, 0.19383422611281276, 0.21067799348384142, 0.22563179908320308, 0.24395592836663127, 0.26053891726769507, 0.2759920933749527, 0.29386156680993736, 0.3107077234890312, 0.32549291057512164, 0.3438020213507116, 0.36054407129995525, 0.3759931514505297, 0.3939247475937009, 0.41067021107301116, 0.42559773405082524, 0.44398262072354555, 0.46056287875398993, 0.4759952335152775, 0.49397086165845394, 0.5106886771973222, 0.5257080188021064, 0.5439140468370169, 0.5603878090623766, 0.5760833316016942, 0.5938278771936893, 0.6106317087542266, 0.6256978129968047, 0.6439488970208913, 0.6604513311758637, 0.6759359098505229, 0.6936449569184333, 0.7106686066836119, 0.7258446202613413, 0.7441885469015688, 0.7605199732352048, 0.7760775974020362, 0.793764116242528, 0.8106051529757679, 0.825690371915698, 0.8439465758856386, 0.8604684660676867, 0.8760093648452312, 0.8938679157290608, 0.9106727710459381, 0.925732390023768, 0.9439370527397841, 0.9605558814946562, 0.9760145188774914, 0.9937447286210954, 1.0106492531485856, 1.0255091921426356, 1.0438875935506076, 1.0604152863379568, 1.0760220624506474, 1.0935375734698027, 1.1104608713649213, 1.125471338396892, 1.1436739531345665]
26	夫妻	True	animate	inanimate	left	1.839	[0.0, 0.0, 0.0, 0.0, 0.0, 0.0, 0.0, 0.0, 0.0, 0.0, 0.0, 0.0, 0.0, 0.0, 0.0, 0.0, 0.0, 0.0, 1.0, 1.0, 1.0, 1.0, 1.0, 1.0, 1.0, 1.0, 1.0, 1.0, 1.0, 1.0, 1.0, 1.0, 1.0, 0.0, 0.0, -1.0, -1.0, -1.0, -1.0, -2.0, -4.0, -6.0, -7.0, -7.0, -7.0, -7.0, -7.0, -7.0, -7.0, -5.0, 2.0, 16.0, 35.0, 67.0, 116.0, 193.0, 291.0, 397.0, 552.0, 637.0, 673.0, 756.0, 815.0, 889.0, 936.0, 957.0, 959.0, 959.0, 958.0, 956.0, 955.0, 955.0, 955.0, 954.0, 942.0, 920.0, 897.0, 867.0, 827.0, 770.0, 702.0, 636.0, 566.0, 471.0, 441.0, 334.0, 231.0, 98.0, -61.0, -232.0, -400.0, -556.0, -680.0, -774.0, -824.0, -841.0, -841.0, -841.0, -842.0, -842.0, -842.0, -842.0, -842.0, -842.0, -842.0, -842.0, -842.0, -842.0, -842.0, -842.0]	[-490.0, -490.0, -490.0, -490.0, -490.0, -490.0, -490.0, -490.0, -490.0, -490.0, -490.0, -490.0, -490.0, -490.0, -490.0, -490.0, -490.0, -490.0, -490.0, -490.0, -490.0, -490.0, -490.0, -490.0, -489.0, -489.0, -488.0, -488.0, -488.0, -487.0, -487.0, -485.0, -485.0, -484.0, -484.0, -481.0, -478.0, -470.0, -460.0, -452.0, -438.0, -422.0, -416.0, -415.0, -413.0, -412.0, -412.0, -407.0, -405.0, -392.0, -375.0, -351.0, -317.0, -275.0, -231.0, -174.0, -104.0, -27.0, 86.0, 154.0, 184.0, 262.0, 325.0, 406.0, 463.0, 493.0, 505.0, 506.0, 510.0, 513.0, 514.0, 514.0, 514.0, 514.0, 514.0, 514.0, 509.0, 499.0, 482.0, 465.0, 444.0, 426.0, 406.0, 379.0, 371.0, 345.0, 331.0, 331.0, 331.0, 343.0, 367.0, 389.0, 401.0, 410.0, 418.0, 421.0, 421.0, 421.0, 422.0, 422.0, 422.0, 423.0, 423.0, 423.0, 423.0, 423.0, 423.0, 423.0, 423.0, 423.0]	[0.015975245041772723, 0.02067779190838337, 0.030286661814898252, 0.048669158946722746, 0.06492924666963518, 0.08037047600373626, 0.09831606689840555, 0.1150779144372791, 0.1301348025444895, 0.14839680935256183, 0.16496580350212753, 0.1803845048416406, 0.19830893306061625, 0.2151202738750726, 0.23018842609599233, 0.24834700883366168, 0.26492829085327685, 0.28044529631733894, 0.2982727859634906, 0.31514283595606685, 0.33016354287974536, 0.34836513362824917, 0.3649310558103025, 0.38038730388507247, 0.39806255884468555, 0.41515345126390457, 0.43019224889576435, 0.4483894023578614, 0.4648460978642106, 0.4803869966417551, 0.49826363823376596, 0.5150852189399302, 0.5301509818527848, 0.54829215654172, 0.5649543346371502, 0.5803484602365643, 0.5982824456878006, 0.6150787677615881, 0.6301970959175378, 0.6483099400065839, 0.6649861128535122, 0.6803925263229758, 0.6982527838554233, 0.7150501299183816, 0.7301066766958684, 0.7483294301200658, 0.764913784340024, 0.7803744697012007, 0.7983422472607344, 0.8150771292857826, 0.8302275429014117, 0.8483765681739897, 0.8649592157453299, 0.8804642744362354, 0.8982139399740845, 0.9150054834317416, 0.9299435878638178, 0.9482588423416018, 0.9648315913509578, 0.9803451832849532, 0.99813341954723, 1.0149983495939523, 1.0300948324147612, 1.048357180552557, 1.0650179933290929, 1.0802731961011887, 1.0982457522768527, 1.1150318344589323, 1.1301235386636108, 1.1483408305794, 1.1650251953396946, 1.1803503716364503, 1.1982707036659122, 1.2150936496909708, 1.2300996794365346, 1.2483278941363096, 1.264943992253393, 1.2804640696849674, 1.2981604873202741, 1.3149813853669912, 1.3301403322257102, 1.3482862855307758, 1.364849818404764, 1.3803664825391024, 1.3979424096178263, 1.4150513927452266, 1.4301396836526692, 1.4482016691472381, 1.4647416500374675, 1.48047642596066, 1.4981042356230319, 1.5149814535398036, 1.530086469836533, 1.5482638259418309, 1.5645532682538033, 1.5803744015283883, 1.5981609309092164, 1.6149876317940652, 1.6301445306744426, 1.648235529428348, 1.664669014280662, 1.6804427022580057, 1.6981558450497687, 1.7151839323341846, 1.7299988155718893, 1.7483427422121167, 1.764806946972385, 1.7802898189984262, 1.7981790900230408, 1.8150303666479886]
27	桥梁	False	inanimate	animate	left	1.624	[0.0, 0.0, 0.0, 0.0, 0.0, 0.0, 0.0, 0.0, 0.0, 0.0, 0.0, 0.0, 0.0, 0.0, 0.0, 0.0, 0.0, 0.0, 0.0, 0.0, 0.0, 0.0, 0.0, 0.0, 0.0, 0.0, 0.0, 0.0, 0.0, 0.0, 0.0, 0.0, -1.0, -1.0, -1.0, -1.0, -1.0, -2.0, -2.0, -2.0, -2.0, -2.0, -2.0, -3.0, -3.0, -3.0, -5.0, -6.0, -6.0, -6.0, -6.0, -6.0, -5.0, 1.0, 15.0, 32.0, 38.0, 38.0, 11.0, -19.0, -81.0, -178.0, -293.0, -417.0, -524.0, -600.0, -648.0, -659.0, -659.0, -659.0, -658.0, -657.0, -657.0, -657.0, -657.0, -657.0, -660.0, -665.0, -670.0, -683.0, -690.0, -705.0, -745.0, -771.0, -791.0, -798.0, -801.0, -803.0, -804.0, -804.0, -805.0, -807.0, -807.0, -807.0, -807.0, -807.0, -807.0]	[-490.0, -490.0, -490.0, -490.0, -490.0, -490.0, -490.0, -490.0, -490.0, -490.0, -490.0, -490.0, -490.0, -490.0, -490.0, -488.0, -488.0, -486.0, -486.0, -486.0, -485.0, -485.0, -484.0, -482.0, -482.0, -480.0, -479.0, -477.0, -476.0, -475.0, -474.0, -474.0, -472.0, -471.0, -469.0, -468.0, -468.0, -467.0, -466.0, -465.0, -464.0, -464.0, -463.0, -462.0, -462.0, -462.0, -460.0, -454.0, -450.0, -443.0, -439.0, -436.0, -432.0, -422.0, -402.0, -375.0, -344.0, -319.0, -272.0, -245.0, -208.0, -165.0, -117.0, -65.0, 1.0, 64.0, 106.0, 121.0, 128.0, 136.0, 144.0, 150.0, 157.0, 164.0, 174.0, 184.0, 201.0, 219.0, 234.0, 257.0, 266.0, 284.0, 311.0, 327.0, 338.0, 342.0, 344.0, 347.0, 351.0, 352.0, 353.0, 357.0, 357.0, 357.0, 357.0, 357.0, 357.0]	[0.005242194514721632, 0.009986042743548751, 0.0260017360560596, 0.043904318707063794, 0.0607822195161134, 0.07569404109381139, 0.09392396244220436, 0.11061788466759026, 0.12589868740178645, 0.14394770236685872, 0.16069316561333835, 0.17567223007790744, 0.19384822063148022, 0.21054760413244367, 0.2259744976181537, 0.24386376840993762, 0.26065053325146437, 0.2756964988075197, 0.29382163076661527, 0.3105715315323323, 0.32598169962875545, 0.3438907677773386, 0.36065534595400095, 0.3757211088668555, 0.39392850222066045, 0.4105766857974231, 0.4260097232181579, 0.4438539380207658, 0.4606775667052716, 0.47580681764520705, 0.4939479923341423, 0.5103947892785072, 0.5259353467263281, 0.5438932254910469, 0.5606479048728943, 0.5755655292887241, 0.5937903306912631, 0.6103320182301104, 0.6259350394830108, 0.643814753042534, 0.6606824137270451, 0.6757000486832112, 0.6939572766423225, 0.7106761161703616, 0.7259971962776035, 0.7437960137613118, 0.7607012211810797, 0.775677896104753, 0.7940392307937145, 0.8105327903758734, 0.8259531983640045, 0.8438742132857442, 0.8606988659594208, 0.8757195728830993, 0.8940119582694024, 0.9103976564947516, 0.9260303738992661, 0.9438042740803212, 0.9606115187052637, 0.9755540604237467, 0.9938918431289494, 1.0104997493326664, 1.0259594107046723, 1.0438852042425424, 1.0605818568728864, 1.0756913104560226, 1.0938417012803257, 1.1102345674298704, 1.125893908785656, 1.1437630411237478, 1.1606013469863683, 1.1756872485857457, 1.193920241901651, 1.210255081532523, 1.2260332067962736, 1.243804035242647, 1.2606532638892531, 1.2757016187533736, 1.2938847774639726, 1.3102841291110963, 1.3259588303044438, 1.3437542347237468, 1.3606218954082578, 1.3756774181965739, 1.3939168970100582, 1.4102230644784868, 1.426020645769313, 1.4438143433071673, 1.4606413855217397, 1.4756989562883973, 1.4938534430693835, 1.5104005918838084, 1.5259240826126188, 1.5435563295613974, 1.5606885235756636, 1.5757020625751466, 1.5940896798856556]
28	老师	True	animate	inanimate	left	1.2	[0.0, 0.0, 0.0, 0.0, 0.0, 0.0, 0.0, 0.0, 0.0, 0.0, 0.0, 0.0, 0.0, 0.0, 0.0, 0.0, 0.0, 0.0, 0.0, 0.0, 0.0, 0.0, 0.0, 0.0, 0.0, 0.0, 0.0, 0.0, -1.0, -1.0, -1.0, -1.0, -1.0, -1.0, -1.0, -1.0, -1.0, -1.0, -1.0, 0.0, -17.0, -77.0, -181.0, -321.0, -498.0, -681.0, -865.0, -960.0, -960.0, -960.0, -960.0, -960.0, -960.0, -960.0, -958.0, -958.0, -958.0, -957.0, -947.0, -932.0, -908.0, -884.0, -862.0, -849.0, -848.0, -848.0, -847.0, -845.0, -845.0, -845.0, -845.0, -845.0, -845.0]	[-490.0, -490.0, -490.0, -490.0, -490.0, -490.0, -490.0, -490.0, -490.0, -490.0, -490.0, -490.0, -490.0, -490.0, -490.0, -490.0, -490.0, -490.0, -490.0, -490.0, -490.0, -490.0, -490.0, -490.0, -490.0, -490.0, -490.0, -490.0, -490.0, -474.0, -458.0, -451.0, -449.0, -449.0, -449.0, -449.0, -445.0, -435.0, -414.0, -386.0, -318.0, -241.0, -155.0, -72.0, 6.0, 78.0, 148.0, 213.0, 274.0, 320.0, 340.0, 341.0, 342.0, 346.0, 347.0, 347.0, 347.0, 348.0, 350.0, 353.0, 354.0, 358.0, 361.0, 363.0, 364.0, 364.0, 366.0, 369.0, 374.0, 381.0, 382.0, 382.0, 382.0]	[0.00750147900544107, 0.011687930207699537, 0.01586584816686809, 0.03204367449507117, 0.048285330180078745, 0.06369822891429067, 0.08165098773315549, 0.09843945922330022, 0.11332260887138546, 0.13173377816565335, 0.1482833162881434, 0.1636873404495418, 0.18168617924675345, 0.19840058125555515, 0.21321273362264037, 0.2315098976250738, 0.2482772064395249, 0.2636928358115256, 0.28165003191679716, 0.2985081353690475, 0.3134506770875305, 0.33156898245215416, 0.34826188045553863, 0.36366556328721344, 0.3816725939977914, 0.39844570541754365, 0.41347153251990676, 0.4316482057329267, 0.44835646403953433, 0.46373318135738373, 0.4815063988789916, 0.49842935567721725, 0.513447331963107, 0.5317093385383487, 0.5483346527907997, 0.5637458448763937, 0.5816255584359169, 0.5984570377040654, 0.6135323580820113, 0.6316820660140365, 0.6482077110558748, 0.6637486096005887, 0.6816081844735891, 0.6984116747044027, 0.7135245415847749, 0.7316732255276293, 0.7481162678450346, 0.7636493158061057, 0.7815652107819915, 0.7983837195206434, 0.8134307090658695, 0.831635030452162, 0.8481320033315569, 0.8636660752817988, 0.8814447543118149, 0.898330164141953, 0.9134071911685169, 0.9317886645440012, 0.9481395466718823, 0.9636381200980395, 0.9815625483170152, 0.9983482889365405, 1.0134246333036572, 1.031637146603316, 1.0481484555639327, 1.0636671676766127, 1.081526059890166, 1.0983688030391932, 1.113504198146984, 1.1316682421602309, 1.1481979829259217, 1.1637009936384857, 1.1816336137708277]
29	火焰	False	animate	inanimate	right	1.195	[0.0, 0.0, 0.0, 0.0, 0.0, 0.0, 0.0, 0.0, 0.0, 0.0, 0.0, 0.0, 0.0, 0.0, 0.0, 0.0, 0.0, 0.0, 0.0, 0.0, 0.0, 0.0, 0.0, 0.0, 1.0, 1.0, 1.0, 1.0, 2.0, 2.0, 2.0, 2.0, 2.0, 1.0, -1.0, -3.0, -5.0, -7.0, -7.0, -9.0, -9.0, -10.0, -10.0, -10.0, 12.0, 92.0, 210.0, 333.0, 459.0, 589.0, 799.0, 852.0, 941.0, 959.0, 959.0, 959.0, 955.0, 948.0, 947.0, 944.0, 942.0, 933.0, 921.0, 906.0, 887.0, 856.0, 845.0, 821.0, 818.0, 818.0, 818.0, 818.0, 818.0]	[-490.0, -490.0, -490.0, -490.0, -490.0, -490.0, -490.0, -490.0, -490.0, -490.0, -490.0, -490.0, -490.0, -490.0, -490.0, -490.0, -489.0, -489.0, -489.0, -488.0, -488.0, -488.0, -488.0, -488.0, -488.0, -487.0, -485.0, -484.0, -482.0, -469.0, -462.0, -450.0, -443.0, -439.0, -432.0, -423.0, -416.0, -410.0, -407.0, -405.0, -401.0, -401.0, -400.0, -397.0, -379.0, -335.0, -281.0, -211.0, -141.0, -47.0, 130.0, 172.0, 235.0, 269.0, 288.0, 312.0, 329.0, 340.0, 345.0, 350.0, 359.0, 373.0, 389.0, 403.0, 415.0, 433.0, 438.0, 448.0, 449.0, 449.0, 449.0, 449.0, 449.0]	[0.008557222317904234, 0.01344886771403253, 0.01766467373818159, 0.03406197717413306, 0.050427195616066456, 0.0659452248364687, 0.08376486389897764, 0.10059907380491495, 0.11559964227490127, 0.13401900348253548, 0.15041903755627573, 0.16586129111237824, 0.18377650319598615, 0.20060764136724174, 0.21540511632338166, 0.23382447753101587, 0.2502845865674317, 0.26592651987448335, 0.28379462799057364, 0.30060904077254236, 0.31562223844230175, 0.33385830372571945, 0.35044060996733606, 0.3660931244958192, 0.383590545039624, 0.4005694801453501, 0.41562602715566754, 0.4339122686069459, 0.45051641995087266, 0.4658067801501602, 0.4838155177421868, 0.5006254930049181, 0.5157714693341404, 0.5338962599635124, 0.5504795901942998, 0.5661003608256578, 0.5838148691691458, 0.600549751194194, 0.6154875142965466, 0.6338642088230699, 0.6504287656862289, 0.6658792111556977, 0.683773260563612, 0.7005118974484503, 0.7156851801555604, 0.7338024615310133, 0.7505055996589363, 0.7660369412042201, 0.7834875988774002, 0.8004849662538618, 0.8156364038586617, 0.8338741757906973, 0.8503165352158248, 0.8658577753230929, 0.8838125821202993, 0.9005962749943137, 0.9156514564529061, 0.9339267751201987, 0.9504472999833524, 0.9659608921501786, 0.9838542588986456, 1.0005840209778398, 1.0155938053503633, 1.0338220200501382, 1.0501493504270911, 1.065802888944745, 1.0836617811582983, 1.1005400232970715, 1.115594180766493, 1.1338435581419617, 1.1501074004918337, 1.1657083737663925, 1.1836263167206198]
30	新娘	True	inanimate	animate	right	1.195	[0.0, 0.0, 0.0, 0.0, 0.0, 0.0, 0.0, 0.0, 0.0, 0.0, 0.0, 0.0, 0.0, 0.0, 0.0, 0.0, 0.0, 0.0, 0.0, 0.0, 0.0, 0.0, 0.0, 0.0, 0.0, 0.0, 0.0, 0.0, 0.0, 0.0, 0.0, 0.0, 0.0, 0.0, 0.0, 0.0, 0.0, 2.0, 7.0, 10.0, 23.0, 37.0, 77.0, 146.0, 277.0, 415.0, 542.0, 647.0, 727.0, 792.0, 816.0, 829.0, 840.0, 849.0, 857.0, 864.0, 867.0, 868.0, 868.0, 868.0, 868.0, 868.0, 867.0, 864.0, 859.0, 853.0, 851.0, 851.0, 851.0]	[-490.0, -490.0, -490.0, -490.0, -490.0, -490.0, -490.0, -490.0, -490.0, -490.0, -490.0, -490.0, -490.0, -490.0, -490.0, -490.0, -490.0, -490.0, -490.0, -490.0, -490.0, -490.0, -490.0, -490.0, -490.0, -490.0, -489.0, -486.0, -484.0, -482.0, -480.0, -479.0, -479.0, -477.0, -469.0, -454.0, -447.0, -413.0, -391.0, -381.0, -345.0, -311.0, -269.0, -215.0, -115.0, -12.0, 77.0, 143.0, 188.0, 237.0, 257.0, 274.0, 290.0, 300.0, 314.0, 326.0, 335.0, 343.0, 350.0, 362.0, 367.0, 382.0, 388.0, 394.0, 402.0, 406.0, 406.0, 406.0, 406.0]	[0.01648349012248218, 0.021039605140686035, 0.030899013625457883, 0.049684625351801515, 0.06591774756088853, 0.08142041694372892, 0.09932504780590534, 0.11630261782556772, 0.13116392213851213, 0.1493057794868946, 0.1659536217339337, 0.18140440853312612, 0.19934044196270406, 0.2161712385714054, 0.23115849494934082, 0.24929523235186934, 0.266017826506868, 0.28139010653831065, 0.29934593732468784, 0.31614396604709327, 0.33118071570061147, 0.3494304344058037, 0.3660110339988023, 0.3814095966517925, 0.39920295285992324, 0.41613990417681634, 0.4311609526630491, 0.4494116953574121, 0.4659984386526048, 0.4814526387490332, 0.4993719470221549, 0.5161238957662135, 0.5311859040521085, 0.5493506307248026, 0.5660230489447713, 0.5813700703438371, 0.5993108823895454, 0.6161355352960527, 0.6311603381764144, 0.649353054119274, 0.6659715417772532, 0.6814557791221887, 0.6993098927196115, 0.7160457987338305, 0.7311767563223839, 0.749384832335636, 0.7657353733666241, 0.7813776480033994, 0.7992228867951781, 0.8161424300633371, 0.831162454560399, 0.8494558637030423, 0.8659176793880761, 0.8814421941060573, 0.8993277102708817, 0.9160663469228894, 0.9311918432358652, 0.9493664687033743, 0.9659368281718343, 0.9813691829331219, 0.9991318192332983, 1.0160977838095278, 1.0311857333872467, 1.0492760494817048, 1.0660119554959238, 1.0814210996031761, 1.099219917319715, 1.1160916739609092, 1.1311687007546425]
31	葫芦	False	inanimate	animate	left	1.25	[0.0, 0.0, 0.0, 0.0, 0.0, 0.0, 0.0, 0.0, 0.0, 0.0, 0.0, 0.0, 0.0, 0.0, 0.0, 0.0, 0.0, 0.0, 0.0, 0.0, 0.0, 0.0, 0.0, 0.0, 0.0, 0.0, 1.0, 2.0, 2.0, 2.0, 2.0, 2.0, 2.0, 2.0, 2.0, 2.0, 4.0, 10.0, 10.0, 10.0, 10.0, 10.0, 11.0, 11.0, 11.0, -4.0, -59.0, -118.0, -216.0, -330.0, -453.0, -577.0, -697.0, -804.0, -901.0, -960.0, -960.0, -960.0, -960.0, -960.0, -960.0, -960.0, -960.0, -959.0, -951.0, -939.0, -921.0, -901.0, -881.0, -858.0, -838.0, -838.0, -838.0, -838.0, -838.0, -838.0]	[-490.0, -490.0, -490.0, -490.0, -490.0, -490.0, -490.0, -490.0, -490.0, -490.0, -490.0, -490.0, -490.0, -490.0, -490.0, -490.0, -490.0, -490.0, -490.0, -490.0, -490.0, -490.0, -490.0, -490.0, -490.0, -490.0, -489.0, -488.0, -487.0, -485.0, -485.0, -485.0, -485.0, -485.0, -485.0, -484.0, -479.0, -439.0, -430.0, -428.0, -426.0, -421.0, -416.0, -391.0, -372.0, -320.0, -237.0, -187.0, -134.0, -81.0, -31.0, 28.0, 114.0, 202.0, 265.0, 328.0, 350.0, 375.0, 394.0, 397.0, 398.0, 399.0, 400.0, 404.0, 412.0, 421.0, 432.0, 440.0, 446.0, 453.0, 456.0, 456.0, 456.0, 456.0, 456.0, 456.0]	[0.01229038299061358, 0.016383991576731205, 0.0226279990747571, 0.04105418687686324, 0.05747094633989036, 0.07327330647967756, 0.0911717931739986, 0.10766603541560471, 0.123057771474123, 0.1407852505799383, 0.15769762569107115, 0.17255142098292708, 0.1910178861580789, 0.20747355767525733, 0.22294892044737935, 0.24096141243353486, 0.2578191745560616, 0.27282418007962406, 0.29109062417410314, 0.30765722901560366, 0.3230435037985444, 0.34105736133642495, 0.3578471979126334, 0.37282114243134856, 0.3911032876931131, 0.40771563118323684, 0.4230640179011971, 0.4409546540118754, 0.4577588269021362, 0.4727989898528904, 0.49101389246061444, 0.5076815318316221, 0.523080094717443, 0.5409656108822674, 0.5578254209831357, 0.5726133387070149, 0.5909907158929855, 0.6076170541346073, 0.6230736435391009, 0.6410028503742069, 0.6577431936748326, 0.6727959860581905, 0.6909979181364179, 0.7075880749616772, 0.723015992436558, 0.7409301805309951, 0.7577374251559377, 0.7727891935501248, 0.79095972282812, 0.8074652291834354, 0.8230603998526931, 0.840759206796065, 0.8576896728482097, 0.8727912756148726, 0.8909546369686723, 0.9073645700700581, 0.9230160606093705, 0.9408909955527633, 0.9577207681722939, 0.9728124723769724, 0.9910021165851504, 1.0073140868917108, 1.023098356090486, 1.0406377604231238, 1.0576637997291982, 1.072794415988028, 1.091016145190224, 1.1072649690322578, 1.1230219316203147, 1.140852493001148, 1.1580143829341978, 1.1727719220798463, 1.1908342489041388, 1.207555818837136, 1.2230175284203142, 1.2409552684985101]
