trialIndex	stimulus	left_option	right_option	response	response_time	xTrajectory	yTrajectory	tTrajectory
0	inanimate/n72.jpg	animate	inanimate	right	2.272	[0.0, 0.0, 0.0, 0.0, 0.0, 0.0, 0.0, 0.0, 0.0, 0.0, 0.0, 0.0, 0.0, 0.0, -8.0, -19.0, -32.0, -44.0, -59.0, -77.0, -82.0, -92.0, -99.0, -104.0, -105.0, -106.0, -106.0, -106.0, -106.0, -106.0, -106.0, -106.0, -106.0, -106.0, -106.0, -106.0, -106.0, -106.0, -106.0, -106.0, -106.0, -106.0, -106.0, -106.0, -106.0, -106.0, -106.0, -106.0, -106.0, -106.0, -106.0, -106.0, -106.0, -106.0, -106.0, -106.0, -106.0, -106.0, -106.0, -109.0, -110.0, -110.0, -110.0, -110.0, -110.0, -110.0, -111.0, -111.0, -111.0, -111.0, -111.0, -114.0, -116.0, -116.0, -116.0, -117.0, -118.0, -118.0, -118.0, -118.0, -118.0, -118.0, -118.0, -118.0, -118.0, -118.0, -118.0, -118.0, -118.0, -118.0, -118.0, -118.0, -118.0, -118.0, -118.0, -118.0, -118.0, -118.0, -118.0, -118.0, -118.0, -119.0, -110.0, -95.0, -55.0, -33.0, 39.0, 94.0, 147.0, 207.0, 262.0, 309.0, 357.0, 405.0, 457.0, 508.0, 575.0, 594.0, 636.0, 655.0, 669.0, 680.0, 693.0, 704.0, 720.0, 732.0, 743.0, 752.0, 757.0, 762.0, 763.0, 764.0, 764.0, 764.0, 764.0, 764.0, 764.0]	[-490.0, -490.0, -490.0, -490.0, -490.0, -490.0, -490.0, -490.0, -490.0, -490.0, -490.0, -490.0, -490.0, -485.0, -465.0, -444.0, -422.0, -401.0, -375.0, -342.0, -333.0, -317.0, -305.0, -296.0, -295.0, -294.0, -294.0, -294.0, -294.0, -294.0, -294.0, -294.0, -294.0, -294.0, -294.0, -294.0, -294.0, -294.0, -294.0, -294.0, -294.0, -294.0, -294.0, -294.0, -294.0, -294.0, -294.0, -294.0, -294.0, -294.0, -294.0, -294.0, -294.0, -294.0, -294.0, -294.0, -294.0, -294.0, -293.0, -279.0, -275.0, -272.0, -271.0, -271.0, -271.0, -271.0, -270.0, -270.0, -269.0, -269.0, -268.0, -265.0, -263.0, -263.0, -262.0, -262.0, -260.0, -260.0, -260.0, -260.0, -260.0, -260.0, -260.0, -260.0, -260.0, -260.0, -260.0, -260.0, -260.0, -260.0, -260.0, -260.0, -260.0, -260.0, -260.0, -260.0, -260.0, -260.0, -260.0, -260.0, -260.0, -260.0, -252.0, -240.0, -214.0, -200.0, -158.0, -128.0, -98.0, -59.0, -20.0, 14.0, 54.0, 95.0, 142.0, 186.0, 237.0, 252.0, 287.0, 304.0, 316.0, 325.0, 337.0, 347.0, 360.0, 371.0, 378.0, 385.0, 390.0, 393.0, 394.0, 395.0, 395.0, 395.0, 395.0, 395.0, 395.0]	[0.0089928688666987, 0.014016953342434135, 0.02505874345661141, 0.032849675460965955, 0.049509469950862695, 0.0665617977083457, 0.08308847221996984, 0.10004010666125396, 0.11638041320475168, 0.13332044231356122, 0.14950919688453723, 0.16630654868458805, 0.18362067906309676, 0.1996025856678898, 0.2167327374118031, 0.23296176930853107, 0.2502045610326604, 0.26626292629225645, 0.28345247002471297, 0.2997333845796675, 0.3167884430022241, 0.3329946055691835, 0.3501172479809611, 0.3664452665270801, 0.3835245596128516, 0.39980445016772137, 0.42005165737828065, 0.43310970314996666, 0.4534200570178655, 0.4662924174863292, 0.48636759272812924, 0.49976936110761017, 0.5194823817419092, 0.5330742727564939, 0.5532146426521649, 0.5664030777352309, 0.5859273410696915, 0.5995079680851632, 0.619696807305445, 0.6330924316862365, 0.6525695910295326, 0.6664253326634935, 0.6859086360054789, 0.6995834710050985, 0.7176246412600449, 0.7328423026629025, 0.7503148116811644, 0.7664520249254565, 0.7834866033517756, 0.7997815125709167, 0.8168894776517845, 0.8331116828831, 0.8500233813301747, 0.866451751859131, 0.8833211249802844, 0.8997873835032806, 0.9165506019762688, 0.9330728391560115, 0.9499923882685835, 0.9663975481362286, 0.9833693212385697, 0.9998045184347575, 1.016695395552233, 1.033074955423217, 1.050003379199552, 1.0664051257335814, 1.0832652828576101, 1.0998844586865744, 1.1166821518199868, 1.1329197170489351, 1.149848140827089, 1.1664174819979962, 1.1833909617689642, 1.1997500416437106, 1.2166231694300222, 1.232882921322016, 1.250089873052275, 1.266443491595055, 1.2831517554095626, 1.2995415552795748, 1.3166659043563413, 1.3328819655889674, 1.3499230293473374, 1.36616776257506, 1.3833525276422733, 1.399499639552232, 1.4166700686218974, 1.4328134258666978, 1.4499882922700635, 1.466145302845689, 1.4833607879063493, 1.4994952704873867, 1.516627128896289, 1.5328107634668413, 1.5499706112059357, 1.566346757743304, 1.5833946481689054, 1.599775232039974, 1.6165872611691157, 1.6329896903698682, 1.6500147114657011, 1.6689331082361605, 1.6832561351257027, 1.7025629691634094, 1.7165456867769535, 1.7359153261386382, 1.7498895104199619, 1.7673654327700206, 1.7832968220518524, 1.8004286804607545, 1.81681916299749, 1.8334792988207482, 1.8498946986856026, 1.8663227278811974, 1.8829869597047946, 1.9028682576445135, 1.9162328206966777, 1.935902150673428, 1.9495735723394318, 1.969300246306375, 1.9829412893122935, 2.0018415954200464, 2.0163134436170367, 2.035794357625491, 2.049746696577131, 2.06736154157079, 2.083002114901319, 2.1001790293030353, 2.1163783652045822, 2.133595898267231, 2.149792844835247, 2.16659292730219, 2.1830929778188874, 2.199958937608244, 2.21631358014929, 2.233394921235231, 2.2497843797700625]
1	inanimate/n62.jpg	animate	inanimate	right	1.33	[0.0, 0.0, 0.0, 0.0, 0.0, 0.0, 0.0, 0.0, 0.0, 0.0, 0.0, 0.0, 0.0, 0.0, 0.0, 0.0, 0.0, 0.0, 0.0, 0.0, 0.0, 0.0, 0.0, 0.0, 0.0, 0.0, 0.0, 0.0, 0.0, 0.0, 0.0, 0.0, 0.0, 0.0, 0.0, 0.0, 0.0, 0.0, 2.0, 4.0, 7.0, 9.0, 11.0, 13.0, 16.0, 20.0, 23.0, 33.0, 41.0, 51.0, 74.0, 101.0, 143.0, 189.0, 239.0, 331.0, 359.0, 415.0, 464.0, 529.0, 556.0, 573.0, 586.0, 597.0, 604.0, 613.0, 624.0, 637.0, 651.0, 665.0, 684.0, 693.0, 699.0, 702.0, 707.0, 710.0, 710.0, 710.0, 710.0]	[-490.0, -490.0, -490.0, -490.0, -490.0, -490.0, -490.0, -490.0, -490.0, -490.0, -490.0, -490.0, -490.0, -490.0, -490.0, -490.0, -490.0, -490.0, -490.0, -490.0, -490.0, -490.0, -490.0, -490.0, -490.0, -490.0, -490.0, -490.0, -490.0, -490.0, -490.0, -490.0, -490.0, -490.0, -490.0, -491.0, -491.0, -490.0, -487.0, -483.0, -476.0, -472.0, -467.0, -463.0, -457.0, -446.0, -440.0, -414.0, -391.0, -359.0, -315.0, -264.0, -207.0, -148.0, -89.0, 8.0, 35.0, 80.0, 122.0, 174.0, 199.0, 212.0, 223.0, 232.0, 239.0, 250.0, 262.0, 277.0, 293.0, 310.0, 328.0, 339.0, 348.0, 350.0, 355.0, 359.0, 359.0, 359.0, 359.0]	[0.0132984467982169, 0.01824265928735258, 0.02468020485684974, 0.041689865953230765, 0.05817523913901823, 0.07502583893074188, 0.09148663612177188, 0.10839389723514614, 0.12457992113922955, 0.14174284087675915, 0.15806744609108137, 0.17509895251714624, 0.19148192572174594, 0.2083676828406169, 0.22483803736213304, 0.24165006649309362, 0.25796716237528017, 0.27504816212604055, 0.2915383139788901, 0.3083820871052012, 0.324893742952554, 0.3417129400822887, 0.35824097992917814, 0.3751294677131227, 0.39148069692237186, 0.4083855687040341, 0.4247303125812323, 0.44175601634196937, 0.457992557570833, 0.4749728640053945, 0.4913162425509654, 0.5084194289647712, 0.5245726848752383, 0.5417949966013111, 0.5579113885178231, 0.5751022975837259, 0.5912524814939388, 0.6085280412135035, 0.624752635776531, 0.6417861902027653, 0.6579213554505259, 0.6750812031878013, 0.6912624484266416, 0.7084294641626911, 0.7246001280691416, 0.7416411918275116, 0.7580357703627669, 0.7749727274731413, 0.791391882003154, 0.8084141724320943, 0.8248247936317057, 0.8416654947577626, 0.8581297052805894, 0.8750977237177722, 0.8939034805080155, 0.9083227633818751, 0.924699933919328, 0.9414723683894408, 0.9594828186491213, 0.9749663786733436, 0.9922979170496546, 1.0085576689416484, 1.0246170581995102, 1.0417038606174174, 1.0582383857963578, 1.0748503936265479, 1.0914306574632064, 1.1084300785623782, 1.1249311530791601, 1.1417496675421717, 1.158157899410071, 1.1749006378850027, 1.1913017017523089, 1.2080635548918508, 1.2251715199727187, 1.2417231118142809, 1.2583484316437534, 1.2746580181938043, 1.2922680845204013]
2	animate/a49.jpg	animate	inanimate	left	1.259	[0.0, 0.0, 0.0, 0.0, 0.0, 0.0, 0.0, 0.0, 0.0, 0.0, 1.0, 4.0, 7.0, 9.0, 9.0, 9.0, 9.0, 9.0, 9.0, 9.0, 10.0, 10.0, 10.0, 11.0, 12.0, 12.0, 10.0, 6.0, -4.0, -9.0, -9.0, -9.0, -9.0, -10.0, -11.0, -25.0, -25.0, -20.0, -17.0, -13.0, -6.0, 7.0, 16.0, 27.0, 31.0, 35.0, 35.0, 37.0, 38.0, 38.0, 38.0, 38.0, 35.0, 33.0, 29.0, 21.0, 15.0, -16.0, -47.0, -80.0, -111.0, -155.0, -218.0, -312.0, -423.0, -517.0, -611.0, -721.0, -747.0, -791.0, -796.0, -798.0, -798.0, -798.0, -798.0, -798.0]	[-490.0, -490.0, -490.0, -490.0, -490.0, -490.0, -490.0, -490.0, -491.0, -490.0, -485.0, -470.0, -451.0, -429.0, -405.0, -385.0, -368.0, -348.0, -330.0, -311.0, -296.0, -284.0, -273.0, -268.0, -266.0, -266.0, -264.0, -268.0, -280.0, -289.0, -289.0, -289.0, -289.0, -291.0, -294.0, -318.0, -326.0, -335.0, -338.0, -338.0, -338.0, -335.0, -334.0, -332.0, -330.0, -327.0, -326.0, -318.0, -312.0, -304.0, -294.0, -287.0, -277.0, -267.0, -257.0, -233.0, -220.0, -164.0, -115.0, -73.0, -31.0, 13.0, 72.0, 147.0, 225.0, 285.0, 341.0, 408.0, 423.0, 455.0, 460.0, 462.0, 462.0, 462.0, 462.0, 462.0]	[0.0004318548599258065, 0.00537128868381842, 0.015602070936438395, 0.03290220665076049, 0.04895408657830558, 0.06605693165874982, 0.08223920089767489, 0.09934204597811913, 0.11556152054436097, 0.13268245628933073, 0.1489056855207309, 0.1656228240008204, 0.18278471973826527, 0.19921582093411416, 0.21620466070089606, 0.23224391129770083, 0.24943447903024207, 0.26583622556427144, 0.2827745480062731, 0.29916844387480523, 0.3160668303244165, 0.3322337395657087, 0.3493802753055206, 0.36564651252956537, 0.3827237576151674, 0.3992057174691581, 0.41621674389898544, 0.43227681582538935, 0.4494929835527728, 0.46580700743470516, 0.48282827386356075, 0.49918598840486084, 0.5161567375089362, 0.532371433408116, 0.549475302488645, 0.5656749797253724, 0.5831273500789393, 0.5989775020407251, 0.6163424910773756, 0.6323517043456377, 0.649564800074586, 0.6656375013317302, 0.6828942877200461, 0.6988809729900822, 0.7161845220380201, 0.7323517726126738, 0.7495454123436502, 0.7659317988800467, 0.7835384518766659, 0.7991865345393308, 0.8165327502447326, 0.8322596808939124, 0.8496127232665458, 0.865779632506019, 0.8857865410918748, 0.8991466668121575, 0.9192372020497714, 0.9324635251268774, 0.9494936662194959, 0.965925450082068, 0.9832935111171537, 0.9990235137665877, 1.018848150382837, 1.03241648940093, 1.0519707900639332, 1.065543225080546, 1.0850210670905653, 1.0991229100163764, 1.1169121763141447, 1.1322008350380202, 1.1500255999962974, 1.1657279546489008, 1.1826591090921283, 1.1991711062746617, 1.2160182927327696, 1.2323947806053184]
3	animate/a33.jpg	animate	inanimate	left	1.816	[0.0, 0.0, 0.0, 0.0, 0.0, 0.0, 0.0, 0.0, 0.0, 0.0, 0.0, 2.0, 7.0, 12.0, 15.0, 16.0, 16.0, 16.0, 16.0, 16.0, 13.0, 9.0, 4.0, 1.0, -2.0, -7.0, -9.0, -13.0, -18.0, -19.0, -19.0, -19.0, -15.0, 0.0, 24.0, 65.0, 113.0, 165.0, 219.0, 271.0, 363.0, 429.0, 478.0, 516.0, 539.0, 556.0, 564.0, 570.0, 573.0, 578.0, 584.0, 592.0, 612.0, 628.0, 643.0, 659.0, 674.0, 683.0, 690.0, 694.0, 697.0, 701.0, 703.0, 712.0, 713.0, 714.0, 714.0, 714.0, 714.0, 714.0, 714.0, 714.0, 714.0, 714.0, 714.0, 648.0, 531.0, 383.0, 213.0, 40.0, -127.0, -292.0, -429.0, -535.0, -583.0, -603.0, -605.0, -605.0, -605.0, -605.0, -605.0, -605.0, -605.0, -605.0, -605.0, -605.0, -605.0, -605.0, -605.0, -605.0, -605.0, -626.0, -649.0, -673.0, -696.0, -704.0, -705.0, -705.0, -705.0]	[-490.0, -490.0, -490.0, -490.0, -490.0, -490.0, -490.0, -490.0, -490.0, -490.0, -485.0, -470.0, -456.0, -442.0, -424.0, -394.0, -374.0, -352.0, -328.0, -303.0, -271.0, -243.0, -216.0, -189.0, -164.0, -140.0, -116.0, -93.0, -59.0, -36.0, -11.0, 16.0, 45.0, 76.0, 105.0, 141.0, 169.0, 197.0, 220.0, 236.0, 259.0, 273.0, 285.0, 296.0, 302.0, 308.0, 310.0, 312.0, 315.0, 318.0, 322.0, 326.0, 337.0, 344.0, 350.0, 355.0, 359.0, 362.0, 364.0, 364.0, 366.0, 367.0, 368.0, 373.0, 374.0, 374.0, 374.0, 374.0, 374.0, 374.0, 374.0, 374.0, 374.0, 374.0, 374.0, 378.0, 378.0, 378.0, 378.0, 378.0, 378.0, 378.0, 392.0, 408.0, 418.0, 424.0, 424.0, 424.0, 424.0, 424.0, 424.0, 424.0, 424.0, 424.0, 424.0, 424.0, 424.0, 424.0, 424.0, 424.0, 424.0, 422.0, 416.0, 413.0, 410.0, 410.0, 410.0, 410.0, 410.0]	[0.013567758751378278, 0.03232743555054185, 0.042196063199298806, 0.06220911578384403, 0.07558426016657904, 0.09487402754166396, 0.10887347048628726, 0.1265098194762686, 0.14219203546599601, 0.16155348282882187, 0.17542629112722352, 0.1927335948403197, 0.20890903741383227, 0.22576817053595732, 0.24219449306656315, 0.2590194928616256, 0.27549121271658805, 0.2923844791675947, 0.30884049769156263, 0.3257050921474729, 0.3422693133197754, 0.358964606470181, 0.375324027678289, 0.3924395020912925, 0.4088439792903955, 0.4257491924054193, 0.44223046959268686, 0.4590698053852975, 0.4755135359137057, 0.49238290903304005, 0.5088641862203076, 0.525837324657914, 0.5419400632436009, 0.5590531483212544, 0.575516676179177, 0.5923829773000762, 0.6088458224912756, 0.6257554729381809, 0.6421701901363122, 0.6590593605869799, 0.6755338111088349, 0.6924052322301577, 0.7086745414526376, 0.7257524692049628, 0.7419381517756847, 0.7591239408429828, 0.7752918740843597, 0.7924602551538555, 0.8086244337282551, 0.825802372130056, 0.8420126306973543, 0.8591048944472277, 0.8752875050176954, 0.892342563440252, 0.9086306459939806, 0.9258986963795905, 0.9419652536380454, 0.9591152027114731, 0.9753111252812232, 0.9924699490184139, 1.0088215195610246, 1.0256379860256857, 1.0420882018843258, 1.0590231109945307, 1.0760150227597478, 1.0925212172769534, 1.111634174014398, 1.1256691156195302, 1.144854435011439, 1.159008501928838, 1.178151837330006, 1.1923854349006433, 1.2103637998316117, 1.2257746558680083, 1.244807057953949, 1.2589785328673315, 1.2758403966563492, 1.292401887163578, 1.3091494043055718, 1.3258737107844354, 1.3424962999470154, 1.3589956677988084, 1.37552200097889, 1.3921776994684478, 1.408680139318676, 1.4254587177892972, 1.4430541067868035, 1.458687170785197, 1.4757237972098665, 1.4919743331029167, 1.5091137008457736, 1.52550008738217, 1.5424032524970244, 1.5588654150215007, 1.575707481479185, 1.592222891995334, 1.6092339184251614, 1.6256179156280268, 1.6423002381143306, 1.6586094833310199, 1.675763869736329, 1.6919266829791013, 1.7092534426883503, 1.725440149259157, 1.742419090360272, 1.7587628102373856, 1.7757871486664953, 1.7922319031931693, 1.8090360816586326]
4	inanimate/n10.jpg	inanimate	animate	left	1.454	[0.0, 0.0, 0.0, 0.0, 0.0, 0.0, 0.0, 0.0, 0.0, 0.0, 0.0, 2.0, 2.0, 2.0, 2.0, -1.0, -9.0, -24.0, -44.0, -68.0, -72.0, -75.0, -75.0, -75.0, -75.0, -75.0, -77.0, -90.0, -95.0, -96.0, -102.0, -109.0, -117.0, -123.0, -125.0, -121.0, -116.0, -112.0, -107.0, -101.0, -88.0, -62.0, -20.0, 27.0, 76.0, 136.0, 227.0, 289.0, 356.0, 420.0, 472.0, 512.0, 537.0, 556.0, 567.0, 576.0, 580.0, 583.0, 585.0, 591.0, 595.0, 597.0, 597.0, 597.0, 597.0, 597.0, 597.0, 597.0, 597.0, 592.0, 553.0, 426.0, 299.0, 156.0, 10.0, -163.0, -325.0, -457.0, -568.0, -644.0, -685.0, -706.0, -711.0, -711.0, -711.0, -711.0, -711.0, -711.0]	[-490.0, -490.0, -490.0, -490.0, -490.0, -490.0, -490.0, -490.0, -490.0, -490.0, -490.0, -483.0, -464.0, -443.0, -423.0, -405.0, -387.0, -367.0, -348.0, -331.0, -330.0, -330.0, -330.0, -330.0, -330.0, -330.0, -330.0, -346.0, -358.0, -361.0, -364.0, -365.0, -365.0, -363.0, -360.0, -348.0, -343.0, -339.0, -324.0, -303.0, -275.0, -230.0, -172.0, -109.0, -55.0, 10.0, 96.0, 153.0, 208.0, 264.0, 308.0, 342.0, 365.0, 380.0, 394.0, 403.0, 408.0, 413.0, 416.0, 420.0, 423.0, 424.0, 424.0, 424.0, 424.0, 424.0, 424.0, 424.0, 424.0, 424.0, 424.0, 424.0, 424.0, 424.0, 424.0, 424.0, 424.0, 424.0, 424.0, 424.0, 424.0, 426.0, 427.0, 428.0, 428.0, 428.0, 428.0, 428.0]	[0.009843095918768086, 0.015723926915597985, 0.022465600432042265, 0.035175827595594455, 0.05284084858067217, 0.06854764056697604, 0.08483811245423567, 0.10162488292189664, 0.11811844810654293, 0.13486664791525982, 0.1549667404851789, 0.1681876022284996, 0.18751491626426287, 0.20152186853920284, 0.22232613165579096, 0.2347482735349331, 0.2551265527254145, 0.26834434246848105, 0.2881880937493406, 0.3015584594668326, 0.32157663204998244, 0.3350797764123854, 0.3546979063976323, 0.3683959520603821, 0.3877079060966935, 0.40168516237827134, 0.42128963903269323, 0.4347675247317966, 0.4530285136152088, 0.4683635936653445, 0.4862852972728433, 0.5018282492874278, 0.5185443637674325, 0.5348259609891102, 0.5518782887447742, 0.5683165579393972, 0.5851924163926014, 0.6013978962946567, 0.6185154187060107, 0.635146541200811, 0.6517797116957809, 0.6681561995683296, 0.6851819033290667, 0.7016853671793797, 0.7184175243237405, 0.7350124654913088, 0.7517879719616758, 0.7684347957874706, 0.7852048409240524, 0.8015417341357534, 0.8184769845793198, 0.8347251311388391, 0.8518535762159445, 0.8680880694464577, 0.8851810158612352, 0.9016390823871916, 0.918493095510712, 0.9349299993718887, 0.9517990311596805, 0.9683984096591303, 0.9851585561318643, 1.0016568999835727, 1.0183562891324982, 1.034991848960999, 1.0517956860931008, 1.068367416597539, 1.08518797906072, 1.1014511442845105, 1.1185178080395417, 1.1348171545905643, 1.151840810351132, 1.1681292342382221, 1.1850672153486812, 1.2014723752145073, 1.218601502958336, 1.2347151642079552, 1.2518391719513602, 1.2681207691730378, 1.285230099587352, 1.301446160819978, 1.3184674272470147, 1.3347811097974045, 1.3519310588690132, 1.3680771467807062, 1.3852451865168405, 1.4014298450892966, 1.4185480501673737, 1.435250852649915]
5	inanimate/n2.jpg	animate	inanimate	right	1.1	[0.0, 0.0, 0.0, 0.0, 0.0, 0.0, 0.0, 0.0, 0.0, 0.0, 2.0, 2.0, 2.0, 2.0, 2.0, 2.0, 1.0, -1.0, -6.0, -6.0, -6.0, -6.0, -6.0, -5.0, -3.0, 2.0, 9.0, 21.0, 35.0, 53.0, 75.0, 124.0, 167.0, 207.0, 244.0, 294.0, 333.0, 370.0, 396.0, 417.0, 438.0, 455.0, 469.0, 475.0, 484.0, 493.0, 501.0, 510.0, 516.0, 520.0, 527.0, 533.0, 550.0, 572.0, 626.0, 669.0, 698.0, 730.0, 755.0, 768.0, 771.0, 771.0, 771.0, 771.0, 771.0]	[-490.0, -490.0, -490.0, -490.0, -490.0, -490.0, -490.0, -490.0, -483.0, -468.0, -447.0, -424.0, -399.0, -374.0, -349.0, -323.0, -298.0, -272.0, -243.0, -201.0, -168.0, -135.0, -104.0, -78.0, -54.0, -29.0, -8.0, 12.0, 30.0, 45.0, 58.0, 83.0, 110.0, 133.0, 155.0, 180.0, 202.0, 222.0, 234.0, 245.0, 256.0, 267.0, 277.0, 284.0, 295.0, 309.0, 322.0, 335.0, 346.0, 351.0, 357.0, 361.0, 367.0, 372.0, 382.0, 392.0, 399.0, 408.0, 413.0, 417.0, 418.0, 418.0, 418.0, 418.0, 418.0]	[0.015971427676049643, 0.02206149596895557, 0.033785611301937024, 0.0472136623429833, 0.06548420855870063, 0.08061619530963071, 0.09822762696967402, 0.1138791229659546, 0.13080037874533446, 0.14723557593970327, 0.1641643410512188, 0.1805698422504065, 0.1974057647112204, 0.21385563923649897, 0.23064343370424467, 0.24721652954394813, 0.26415416931922664, 0.28041528654466674, 0.29733005699017667, 0.3139007634963491, 0.330716547292468, 0.3472442458041769, 0.3641876882466022, 0.3802917921657354, 0.3974079492436431, 0.41378853311471175, 0.43082550087456184, 0.44725353007015656, 0.46395769788614416, 0.4805406923896953, 0.49740733484395605, 0.513872228033506, 0.5307016651622689, 0.54702797704158, 0.5642919314286701, 0.5803042166953674, 0.5973476697872684, 0.6138753683007963, 0.6307290400909551, 0.6471584346199961, 0.6641315730557835, 0.6806951115631819, 0.6974095193763787, 0.7137064765956893, 0.730734911023319, 0.7469823749161151, 0.7641811346475151, 0.7803002572309197, 0.7973689689843013, 0.8136389608735044, 0.8307571659515816, 0.8469879045151174, 0.8641276135895168, 0.8804232054753811, 0.8972471812703589, 0.9138981010964926, 0.9307531382200978, 0.9472224687415292, 0.9640703378663602, 0.980451604404152, 0.9974974468277651, 1.0137558333863126, 1.0305542091864481, 1.0474839982980484, 1.0641461821196572]
6	animate/a29.jpg	animate	inanimate	left	1.846	[0.0, 0.0, 0.0, 0.0, 0.0, 0.0, 0.0, 0.0, 0.0, 0.0, 0.0, 0.0, -3.0, -10.0, -16.0, -28.0, -44.0, -61.0, -79.0, -93.0, -115.0, -151.0, -172.0, -187.0, -192.0, -195.0, -195.0, -195.0, -195.0, -195.0, -195.0, -195.0, -191.0, -191.0, -191.0, -192.0, -192.0, -194.0, -200.0, -207.0, -213.0, -225.0, -239.0, -261.0, -273.0, -278.0, -282.0, -286.0, -292.0, -302.0, -318.0, -356.0, -381.0, -409.0, -437.0, -476.0, -513.0, -551.0, -597.0, -640.0, -672.0, -702.0, -708.0, -721.0, -722.0, -722.0, -722.0, -722.0, -722.0, -722.0, -722.0, -722.0, -722.0, -722.0, -714.0, -706.0, -699.0, -689.0, -682.0, -673.0, -657.0, -636.0, -606.0, -559.0, -489.0, -340.0, -272.0, -67.0, 55.0, 171.0, 269.0, 342.0, 372.0, 379.0, 379.0, 379.0, 376.0, 285.0, 167.0, 19.0, -151.0, -319.0, -480.0, -613.0, -716.0, -781.0, -808.0, -811.0, -811.0, -811.0, -811.0]	[-490.0, -490.0, -490.0, -490.0, -490.0, -490.0, -490.0, -490.0, -490.0, -490.0, -490.0, -487.0, -479.0, -458.0, -441.0, -419.0, -394.0, -371.0, -349.0, -331.0, -309.0, -287.0, -276.0, -267.0, -264.0, -264.0, -264.0, -264.0, -264.0, -264.0, -264.0, -267.0, -271.0, -276.0, -279.0, -281.0, -281.0, -280.0, -275.0, -265.0, -249.0, -226.0, -193.0, -149.0, -129.0, -117.0, -108.0, -98.0, -81.0, -62.0, -34.0, 28.0, 62.0, 101.0, 133.0, 176.0, 213.0, 248.0, 287.0, 324.0, 352.0, 373.0, 378.0, 386.0, 387.0, 387.0, 387.0, 387.0, 387.0, 387.0, 387.0, 387.0, 387.0, 387.0, 387.0, 387.0, 387.0, 387.0, 387.0, 387.0, 385.0, 383.0, 379.0, 379.0, 379.0, 379.0, 379.0, 379.0, 379.0, 379.0, 379.0, 379.0, 379.0, 379.0, 379.0, 379.0, 379.0, 379.0, 384.0, 384.0, 384.0, 384.0, 384.0, 384.0, 384.0, 393.0, 399.0, 401.0, 401.0, 401.0, 401.0]	[0.0027672571268340107, 0.009557058634527493, 0.02073401672714681, 0.03719822724997357, 0.05401878971315455, 0.0709161521626811, 0.08722198404575465, 0.10429171979922103, 0.12068288500267954, 0.1375928767829464, 0.15399394065025263, 0.17089710576510697, 0.1899516945140931, 0.20416959075373597, 0.22336071281279146, 0.2374799637364049, 0.2567844084405806, 0.2709903580162063, 0.2881843390823633, 0.30424680034047924, 0.32135135208773136, 0.33755034665773564, 0.35485321303713135, 0.37090782362975006, 0.38756830078636995, 0.4042434552738996, 0.4205018418324471, 0.437382820286075, 0.457354230209603, 0.4704627933060692, 0.489994907306027, 0.5040755875706964, 0.5220129925091896, 0.537386984551631, 0.554412005645645, 0.570526690895349, 0.5881674772190308, 0.6040817998364219, 0.6210324102758022, 0.6373853461518593, 0.6543055779311544, 0.6707687644538964, 0.6876500842408859, 0.7041020067663339, 0.720839625242661, 0.7371004011329205, 0.7541342968925164, 0.7706780380704004, 0.7875282965269434, 0.8040164003796235, 0.8209018161651329, 0.837381045352231, 0.8542695331361756, 0.8705494236910454, 0.8875457727917819, 0.9038324900120642, 0.9209186097614293, 0.9372408256440394, 0.9541224867625715, 0.9707044572660379, 0.9875260437274846, 1.0039585102567798, 1.020873963369013, 1.0373535338912916, 1.0542403150084283, 1.0707072561981477, 1.0875947199820075, 1.1040705358373089, 1.120919087628863, 1.137417772812114, 1.1542154659455264, 1.170510033831306, 1.187724836227062, 1.2038842361362185, 1.2208898012340796, 1.237162865123537, 1.2542261155449523, 1.270836075376792, 1.2874603712061798, 1.3040781817035167, 1.3208239921787026, 1.3371482560596633, 1.3542545144737232, 1.3704268850451626, 1.3876167701127997, 1.4037601273576001, 1.4209158790963556, 1.4371715349880105, 1.454264481404607, 1.4705839666185057, 1.4875762197189033, 1.5037953529517836, 1.520977728685466, 1.5371152832649386, 1.5543102883293614, 1.5705198642299365, 1.5876254399772733, 1.6040432291756588, 1.6208569649734272, 1.6373706688209495, 1.6541936206158425, 1.6707824177847215, 1.6876610069048184, 1.7039979001165193, 1.7209703558874025, 1.739581211377299, 1.7541537528904882, 1.7706957873997453, 1.7872135872476065, 1.8045290829595615, 1.8206826802015712]
7	inanimate/n50.jpg	inanimate	animate	left	1.314	[0.0, 0.0, 0.0, 0.0, 0.0, 0.0, 0.0, 1.0, 2.0, 2.0, 2.0, 2.0, -3.0, -13.0, -19.0, -27.0, -34.0, -42.0, -51.0, -54.0, -58.0, -59.0, -60.0, -60.0, -60.0, -60.0, -60.0, -62.0, -68.0, -74.0, -80.0, -82.0, -82.0, -82.0, -84.0, -87.0, -90.0, -85.0, -71.0, -54.0, -31.0, -1.0, 31.0, 62.0, 88.0, 108.0, 128.0, 145.0, 164.0, 172.0, 176.0, 176.0, 176.0, 173.0, 159.0, 141.0, 100.0, 35.0, -49.0, -138.0, -289.0, -395.0, -492.0, -568.0, -626.0, -672.0, -709.0, -732.0, -751.0, -765.0, -774.0, -779.0, -780.0, -780.0, -780.0, -781.0, -781.0, -781.0, -781.0]	[-490.0, -490.0, -490.0, -490.0, -490.0, -490.0, -490.0, -488.0, -482.0, -471.0, -454.0, -414.0, -384.0, -353.0, -329.0, -307.0, -291.0, -278.0, -260.0, -257.0, -247.0, -246.0, -246.0, -246.0, -246.0, -246.0, -246.0, -256.0, -277.0, -290.0, -296.0, -298.0, -299.0, -299.0, -296.0, -287.0, -268.0, -248.0, -223.0, -192.0, -153.0, -115.0, -82.0, -45.0, -15.0, 7.0, 29.0, 45.0, 70.0, 81.0, 88.0, 93.0, 99.0, 108.0, 123.0, 137.0, 157.0, 185.0, 209.0, 231.0, 277.0, 307.0, 336.0, 358.0, 377.0, 397.0, 419.0, 436.0, 453.0, 465.0, 474.0, 479.0, 480.0, 480.0, 480.0, 481.0, 481.0, 481.0, 481.0]	[0.014063715998418047, 0.02021351761504775, 0.025483362049271818, 0.03766998397077259, 0.054730162391933845, 0.07394415377893893, 0.08793506339134183, 0.10456482055269589, 0.1212065243798861, 0.13811651616015297, 0.15468653999960225, 0.1710954545324057, 0.18758663038352097, 0.20787889358689426, 0.22129158463212661, 0.24070252531964798, 0.2541793870186666, 0.2746573355234432, 0.28771606396185234, 0.30776632187371433, 0.3208479196400731, 0.34123234282924386, 0.3544569592377229, 0.37485605975598446, 0.38787894820052315, 0.40779574480256997, 0.42113607319151924, 0.440829979164846, 0.45452188082708744, 0.47257943507793243, 0.4877994858143211, 0.5052347895052662, 0.5210880134673062, 0.5385226344915282, 0.554431495775134, 0.5713039408965415, 0.5876677994365309, 0.6045467298899894, 0.620976465752392, 0.637891918864625, 0.6545513720229792, 0.6712964998314419, 0.6877641236878844, 0.7047075661284907, 0.7211198939949099, 0.7380223764430411, 0.7544302669757599, 0.771381901417044, 0.7876979732991458, 0.8046601890710008, 0.8209728476194869, 0.8381436180225137, 0.854198569948494, 0.8712778630342655, 0.8876222655781021, 0.9046588920045906, 0.9210217265444953, 0.937957659654785, 0.9544222115109733, 0.9712854406334372, 0.9876694378363027, 1.0046586189364461, 1.0209081308312307, 1.0381502398886369, 1.0541809571514023, 1.0713141808955697, 1.087517271462275, 1.1046665378689795, 1.1208744071027468, 1.138027086843067, 1.1542018467480375, 1.171267486502984, 1.1875361130587407, 1.204731459458344, 1.2208956380327436, 1.2380896190989006, 1.2542148856791755, 1.2713989680796658, 1.2875453973247204]
8	inanimate/n54.jpg	animate	inanimate	right	1.446	[0.0, 0.0, 0.0, 0.0, 0.0, 0.0, 0.0, 0.0, 0.0, -2.0, -4.0, -4.0, -5.0, -7.0, -7.0, -7.0, -7.0, -7.0, -7.0, -7.0, -8.0, -8.0, -17.0, -21.0, -22.0, -22.0, -24.0, -27.0, -36.0, -44.0, -49.0, -52.0, -50.0, -37.0, -23.0, -8.0, -5.0, -3.0, -3.0, -3.0, -3.0, -3.0, -3.0, -6.0, -21.0, -30.0, -33.0, -42.0, -72.0, -120.0, -178.0, -255.0, -297.0, -346.0, -393.0, -440.0, -480.0, -512.0, -533.0, -553.0, -585.0, -595.0, -615.0, -618.0, -618.0, -611.0, -578.0, -499.0, -388.0, -240.0, -45.0, 173.0, 478.0, 554.0, 719.0, 769.0, 791.0, 800.0, 807.0, 812.0, 814.0, 816.0, 816.0, 816.0, 816.0, 816.0, 816.0]	[-490.0, -490.0, -490.0, -490.0, -490.0, -490.0, -490.0, -487.0, -480.0, -474.0, -468.0, -462.0, -455.0, -450.0, -450.0, -450.0, -450.0, -450.0, -450.0, -450.0, -454.0, -468.0, -469.0, -469.0, -469.0, -466.0, -457.0, -425.0, -390.0, -330.0, -274.0, -226.0, -184.0, -156.0, -140.0, -134.0, -134.0, -149.0, -149.0, -149.0, -149.0, -149.0, -152.0, -158.0, -158.0, -153.0, -140.0, -126.0, -101.0, -57.0, -13.0, 42.0, 71.0, 108.0, 142.0, 174.0, 197.0, 216.0, 229.0, 246.0, 276.0, 285.0, 305.0, 309.0, 313.0, 321.0, 327.0, 338.0, 354.0, 370.0, 375.0, 375.0, 375.0, 375.0, 375.0, 376.0, 381.0, 383.0, 387.0, 391.0, 397.0, 402.0, 406.0, 407.0, 407.0, 407.0, 407.0]	[0.016472163588332478, 0.021189730783589766, 0.031094539759578765, 0.04790656889053935, 0.06743868289049715, 0.08114150721849, 0.09892770151600416, 0.11440784820842964, 0.1339054875461443, 0.14793087181897135, 0.16596589807522832, 0.18130302612371452, 0.19844410053156025, 0.2146352444360673, 0.2315472842165036, 0.24798657741121133, 0.2648088465393812, 0.2813024117240275, 0.2981181955219654, 0.3143782887455018, 0.33145382716611493, 0.3478221230379859, 0.36476727214721905, 0.3813209119871317, 0.39821110643788415, 0.41464937563250714, 0.4314590154317557, 0.4480297219361091, 0.4649055803893134, 0.4813636469134508, 0.49823267870124255, 0.5146630972303683, 0.5315464650157082, 0.5478331822359905, 0.5647704806797265, 0.5810616352318902, 0.5982132909721258, 0.6147420134839194, 0.631495333291241, 0.6479759278117854, 0.6647398289514967, 0.6811651274820179, 0.6981720579115063, 0.7143587644823128, 0.7314353269011917, 0.7477049774588522, 0.76484844119841, 0.7810423157679907, 0.7982349315007014, 0.814431195403813, 0.8315606644810032, 0.8477432750514708, 0.8649143867878593, 0.881194277342729, 0.8982046211058332, 0.9146596156315354, 0.9314436554341228, 0.9478242393051914, 0.9649240123872005, 0.9812151669393643, 0.9981251587196311, 1.0144012946093426, 1.0311583690818225, 1.0508713897179405, 1.0648356753354165, 1.0812152352064004, 1.0981057709905144, 1.1147249468194786, 1.131481679960416, 1.1478294958378683, 1.164569844979269, 1.182935623179219, 1.1978542766337341, 1.215850732227409, 1.231155774949002, 1.2494478251610417, 1.264481507929304, 1.2830633500907425, 1.2978140675731993, 1.3150213606368197, 1.3311940725434397, 1.3483696216117096, 1.3644819175278826, 1.3816332319347566, 1.3978158425070433, 1.414895818257719, 1.4311559114830743]
9	inanimate/n14.jpg	animate	inanimate	right	1.232	[0.0, 0.0, 0.0, 0.0, 0.0, 0.0, 0.0, 0.0, 0.0, 0.0, 0.0, 0.0, 0.0, 0.0, 0.0, 0.0, 0.0, 0.0, 0.0, 3.0, 7.0, 9.0, 9.0, 11.0, 11.0, 9.0, 3.0, -8.0, -28.0, -52.0, -80.0, -91.0, -93.0, -93.0, -90.0, -88.0, -77.0, -55.0, -41.0, -41.0, -40.0, -42.0, -49.0, -52.0, -52.0, -54.0, -57.0, -65.0, -76.0, -91.0, -110.0, -125.0, -131.0, -131.0, -117.0, -81.0, -17.0, 76.0, 186.0, 303.0, 419.0, 523.0, 607.0, 683.0, 697.0, 719.0, 723.0, 723.0, 724.0, 724.0, 724.0, 724.0, 724.0, 724.0]	[-490.0, -490.0, -490.0, -490.0, -490.0, -490.0, -490.0, -486.0, -474.0, -466.0, -459.0, -453.0, -449.0, -446.0, -446.0, -446.0, -446.0, -446.0, -446.0, -447.0, -456.0, -464.0, -466.0, -466.0, -462.0, -448.0, -424.0, -387.0, -321.0, -242.0, -111.0, -30.0, 10.0, 23.0, 29.0, 30.0, 23.0, -7.0, -31.0, -31.0, -33.0, -43.0, -67.0, -70.0, -70.0, -69.0, -63.0, -50.0, -28.0, 1.0, 35.0, 62.0, 82.0, 101.0, 132.0, 158.0, 191.0, 224.0, 254.0, 272.0, 286.0, 310.0, 332.0, 370.0, 379.0, 395.0, 399.0, 401.0, 403.0, 404.0, 404.0, 404.0, 404.0, 404.0]	[0.012137230994994752, 0.017537806073960382, 0.02238542124723608, 0.03949270365956181, 0.05580979954174836, 0.07288090062866104, 0.08909115919595934, 0.10618137494566326, 0.12261930280692468, 0.13964432390093862, 0.15573409182070463, 0.1728393262364989, 0.18928203276300337, 0.2061797365458915, 0.22265555240119284, 0.2395133201898716, 0.2559727520474553, 0.2727953625089867, 0.2890373650716356, 0.3061801461462892, 0.3226849753282295, 0.3394864231286192, 0.35576016968298063, 0.37274730278477364, 0.3891476839853567, 0.40617099841438176, 0.4226905049272318, 0.43953257138673507, 0.4558271392725146, 0.4728726403627661, 0.48914570425222337, 0.5062267040048027, 0.5226714585314767, 0.5396944316253212, 0.5557121782258037, 0.5726713219974044, 0.589291863161634, 0.6061649909479456, 0.6226780121305637, 0.6394985745919257, 0.6557846091454849, 0.672866632898149, 0.6890448061367351, 0.7062056778740953, 0.7223872644462972, 0.7396757948281447, 0.7557478134185658, 0.7728271065043373, 0.789048287735568, 0.8061886794766906, 0.8224340953711362, 0.8395249937875633, 0.8557362763549463, 0.8728831534281198, 0.8890783933311468, 0.9062809077277052, 0.9225553369506088, 0.9395755793793796, 0.9558926752615662, 0.9727808217121492, 0.9893730322146439, 1.0061690186812484, 1.0226311812039057, 1.0394155623398547, 1.0559033248591732, 1.0727716739802418, 1.0892553405010403, 1.1061404149513692, 1.122528166821212, 1.139641593234046, 1.1582032967344276, 1.1730314968699531, 1.1918604643233266, 1.2061500405507104]
10	inanimate/n76.jpg	inanimate	animate	left	1.303	[0.0, 0.0, 0.0, 0.0, 0.0, 0.0, 0.0, 0.0, -3.0, -9.0, -18.0, -35.0, -61.0, -85.0, -100.0, -107.0, -109.0, -109.0, -109.0, -96.0, -76.0, -68.0, -39.0, -25.0, -18.0, -14.0, -14.0, -14.0, -14.0, -17.0, -18.0, -15.0, 12.0, 57.0, 105.0, 161.0, 217.0, 266.0, 307.0, 357.0, 383.0, 413.0, 439.0, 464.0, 492.0, 512.0, 532.0, 548.0, 561.0, 572.0, 580.0, 587.0, 592.0, 600.0, 601.0, 601.0, 601.0, 601.0, 579.0, 524.0, 434.0, 307.0, 75.0, -11.0, -259.0, -397.0, -530.0, -636.0, -720.0, -764.0, -788.0, -797.0, -802.0, -802.0, -802.0, -802.0, -802.0, -802.0]	[-490.0, -490.0, -490.0, -490.0, -490.0, -490.0, -490.0, -482.0, -469.0, -454.0, -433.0, -397.0, -359.0, -331.0, -313.0, -301.0, -299.0, -298.0, -298.0, -314.0, -338.0, -351.0, -390.0, -413.0, -432.0, -440.0, -442.0, -442.0, -438.0, -424.0, -407.0, -385.0, -353.0, -320.0, -268.0, -201.0, -134.0, -68.0, -15.0, 51.0, 90.0, 133.0, 172.0, 203.0, 236.0, 258.0, 280.0, 299.0, 315.0, 326.0, 333.0, 343.0, 349.0, 355.0, 357.0, 357.0, 357.0, 357.0, 357.0, 357.0, 357.0, 357.0, 357.0, 357.0, 357.0, 357.0, 377.0, 393.0, 404.0, 411.0, 414.0, 416.0, 416.0, 416.0, 416.0, 416.0, 416.0, 416.0]	[0.013063268172118114, 0.018683661879549618, 0.024410892901869374, 0.04137822867232899, 0.060001372161423205, 0.074497796353171, 0.09178598540347593, 0.10788872398734384, 0.12583807559167326, 0.1413359716134437, 0.15821797406533733, 0.17457978460515733, 0.19167614435536962, 0.20803624823020073, 0.22494726401055232, 0.2413602745418757, 0.25830439965102414, 0.274665527524121, 0.2914461539949116, 0.30803358583034424, 0.32487462828976277, 0.3413873081372003, 0.35828637725353474, 0.37467924912198214, 0.39154896357649704, 0.40793159544773516, 0.42498699520365335, 0.44153551504496136, 0.4582021362002706, 0.47467112539015943, 0.4914425358620065, 0.5080787783554115, 0.5248641834914451, 0.5412246286978188, 0.5582032284673915, 0.5745022336850525, 0.5915808441041008, 0.6080058013012604, 0.6249349077461375, 0.6414134542665124, 0.6581565340748057, 0.6747067605847406, 0.691657371024121, 0.7080669682236476, 0.7248124373654719, 0.7413500345446664, 0.7579657970418339, 0.774548791545385, 0.7915482126427378, 0.8077792925396352, 0.8246336469965172, 0.8414897081202071, 0.8580498332939896, 0.874930470412437, 0.8913612302749243, 0.9083142300478357, 0.9245364352809702, 0.9416351843610755, 0.9579922162374714, 0.9750206506632821, 0.9913384292121918, 1.0083931463013869, 1.0244829142229719, 1.0417141006146267, 1.0580093511671294, 1.075003993601058, 1.0910992228527903, 1.1084474865601806, 1.124478886489669, 1.141936035510298, 1.1580329714306572, 1.1754198057951726, 1.191264496424992, 1.208581698803755, 1.2245670187421638, 1.2419224504465092, 1.2578869490553188, 1.275187084769641]
11	animate/a64.jpg	animate	inanimate	left	1.253	[0.0, 0.0, 0.0, 0.0, 0.0, 0.0, 0.0, 0.0, 0.0, 0.0, 0.0, -9.0, -24.0, -34.0, -55.0, -78.0, -115.0, -142.0, -153.0, -158.0, -158.0, -158.0, -158.0, -158.0, -158.0, -158.0, -158.0, -171.0, -188.0, -199.0, -203.0, -203.0, -203.0, -202.0, -194.0, -174.0, -166.0, -140.0, -126.0, -79.0, -40.0, 6.0, 58.0, 109.0, 161.0, 214.0, 264.0, 334.0, 352.0, 391.0, 400.0, 412.0, 415.0, 415.0, 415.0, 415.0, 415.0, 415.0, 396.0, 327.0, 286.0, 121.0, 51.0, -184.0, -349.0, -497.0, -616.0, -696.0, -746.0, -771.0, -782.0, -785.0, -785.0, -785.0, -785.0]	[-490.0, -490.0, -490.0, -490.0, -490.0, -490.0, -490.0, -487.0, -472.0, -451.0, -422.0, -387.0, -354.0, -328.0, -293.0, -256.0, -199.0, -165.0, -149.0, -147.0, -147.0, -147.0, -147.0, -147.0, -147.0, -147.0, -147.0, -155.0, -165.0, -169.0, -168.0, -165.0, -157.0, -146.0, -131.0, -103.0, -90.0, -58.0, -40.0, 23.0, 69.0, 108.0, 145.0, 175.0, 203.0, 232.0, 258.0, 294.0, 301.0, 318.0, 321.0, 327.0, 329.0, 329.0, 329.0, 329.0, 329.0, 329.0, 330.0, 332.0, 332.0, 332.0, 332.0, 332.0, 334.0, 349.0, 367.0, 381.0, 392.0, 401.0, 406.0, 407.0, 407.0, 407.0, 407.0]	[0.01428046263026772, 0.019543139065717696, 0.02688590047910111, 0.043670281615050044, 0.06017954813069082, 0.077070766581528, 0.09362133442300546, 0.11041015289083589, 0.12658969146286836, 0.14365089388411434, 0.1599266884404642, 0.17685989088386123, 0.19378490132839943, 0.21004567722047796, 0.22689627701038262, 0.2433062155432708, 0.2604735726126819, 0.27670840717655665, 0.29380067092643003, 0.310063494816859, 0.32701342259133526, 0.3433718197993585, 0.36045759821718093, 0.3768583207511256, 0.3938666165140603, 0.4101816643960774, 0.4272271654881479, 0.4432995254119305, 0.46050306380857364, 0.47683620235511626, 0.49390150077488215, 0.5099629380347324, 0.527186956427613, 0.5435931402953429, 0.560551260066859, 0.5768192039577116, 0.5940896436768526, 0.6101729262645676, 0.6274822779778333, 0.6435488352362881, 0.6606322243205796, 0.6768824188802682, 0.6940849332768266, 0.7099654639005166, 0.7273167996063421, 0.7435120395075501, 0.7605940632602142, 0.7766391165205278, 0.7938788362462219, 0.8100993348107295, 0.8272404092185752, 0.8435469237683719, 0.8607576301656081, 0.8768596860845719, 0.8939737951623101, 0.9099580911006342, 0.9273916881265905, 0.9435077387097408, 0.963626263275728, 0.9768440530187945, 0.9940807007442345, 1.0101854873300908, 1.030088289266132, 1.0434252043232846, 1.064006235477791, 1.077007278592646, 1.0947095049032214, 1.1099565209678985, 1.1298146082463063, 1.1435266485732427, 1.1634321811761765, 1.1767093629096053, 1.196794436815253, 1.2102112238590053, 1.2298812365006597]
12	inanimate/n3.jpg	animate	inanimate	right	1.077	[0.0, 0.0, 0.0, 0.0, 0.0, 0.0, 0.0, 0.0, 0.0, 1.0, 3.0, 7.0, 9.0, 13.0, 14.0, 15.0, 15.0, 15.0, 15.0, 16.0, 17.0, 17.0, 17.0, 17.0, 17.0, 19.0, 19.0, 11.0, 9.0, 9.0, 9.0, 9.0, 11.0, 15.0, 16.0, 29.0, 46.0, 67.0, 96.0, 128.0, 165.0, 206.0, 264.0, 279.0, 317.0, 326.0, 344.0, 349.0, 366.0, 380.0, 396.0, 417.0, 448.0, 489.0, 541.0, 604.0, 655.0, 695.0, 728.0, 768.0, 785.0, 789.0, 790.0, 790.0, 790.0, 790.0]	[-490.0, -490.0, -490.0, -490.0, -490.0, -490.0, -490.0, -484.0, -468.0, -463.0, -438.0, -414.0, -392.0, -373.0, -357.0, -341.0, -325.0, -311.0, -301.0, -299.0, -299.0, -299.0, -299.0, -299.0, -299.0, -316.0, -332.0, -337.0, -339.0, -339.0, -337.0, -326.0, -305.0, -278.0, -241.0, -153.0, -90.0, -20.0, 53.0, 121.0, 180.0, 235.0, 299.0, 314.0, 351.0, 359.0, 378.0, 383.0, 397.0, 404.0, 414.0, 423.0, 426.0, 426.0, 426.0, 426.0, 426.0, 426.0, 421.0, 415.0, 412.0, 411.0, 411.0, 411.0, 411.0, 411.0]	[0.00995573590262211, 0.015304769656722783, 0.02181536054558819, 0.034557331704490934, 0.05163457679009298, 0.06811994997588044, 0.08508830974642478, 0.10133474964095512, 0.11837786139949458, 0.13465194928721758, 0.15175103970250348, 0.1679653942683217, 0.1850289860230987, 0.20132321257551666, 0.2182321803575178, 0.23448442291737592, 0.2513292200419528, 0.26861160642511095, 0.28443376905852347, 0.30167178211740975, 0.3177240033764974, 0.33537298169903806, 0.3510988883481332, 0.36867960001472966, 0.3850919278793299, 0.4018090663594194, 0.4183418848715519, 0.4371619776593434, 0.45164065252174623, 0.4685308469724987, 0.48498515883147775, 0.5018692092835408, 0.5180849291828054, 0.534620819693373, 0.5513550248379033, 0.5713131227639678, 0.5846391151571879, 0.604314247799266, 0.6178860001491557, 0.6375809301207482, 0.6514646610849013, 0.6707052764686523, 0.6848006340624124, 0.7029807269591402, 0.7182775776818744, 0.7359412333353248, 0.7512408147231326, 0.7689174410406849, 0.784861459651438, 0.8016926034470089, 0.8178977420138835, 0.8349917124305648, 0.851529650941302, 0.8684686560500268, 0.8848192025925528, 0.9016643410504912, 0.9181708769010584, 0.9349566233686346, 0.9514891005474055, 0.9683751989996381, 0.9847192602101131, 1.0017166333091154, 1.0180149558600533, 1.0351683182670968, 1.051519547476346, 1.0682421472884016]
13	animate/a79.jpg	animate	inanimate	left	1.485	[0.0, 0.0, 0.0, 0.0, 0.0, 0.0, 0.0, 0.0, 0.0, -1.0, -5.0, -11.0, -16.0, -22.0, -31.0, -42.0, -58.0, -75.0, -100.0, -134.0, -195.0, -248.0, -299.0, -331.0, -345.0, -350.0, -350.0, -349.0, -349.0, -349.0, -349.0, -349.0, -344.0, -343.0, -344.0, -344.0, -344.0, -344.0, -344.0, -344.0, -341.0, -329.0, -325.0, -310.0, -306.0, -297.0, -289.0, -278.0, -265.0, -251.0, -235.0, -219.0, -202.0, -183.0, -163.0, -121.0, -85.0, -39.0, 5.0, 54.0, 105.0, 156.0, 190.0, 214.0, 215.0, 216.0, 216.0, 216.0, 216.0, 208.0, 163.0, 84.0, -12.0, -128.0, -247.0, -366.0, -479.0, -621.0, -661.0, -725.0, -745.0, -755.0, -770.0, -791.0, -819.0, -840.0, -847.0, -847.0, -847.0]	[-490.0, -490.0, -490.0, -490.0, -490.0, -490.0, -490.0, -490.0, -490.0, -487.0, -479.0, -465.0, -451.0, -436.0, -414.0, -391.0, -363.0, -336.0, -302.0, -255.0, -195.0, -152.0, -121.0, -104.0, -96.0, -94.0, -94.0, -95.0, -95.0, -95.0, -95.0, -95.0, -120.0, -141.0, -145.0, -148.0, -148.0, -148.0, -148.0, -145.0, -134.0, -111.0, -103.0, -77.0, -71.0, -53.0, -37.0, -16.0, 5.0, 28.0, 48.0, 68.0, 85.0, 99.0, 114.0, 138.0, 157.0, 175.0, 190.0, 204.0, 218.0, 229.0, 240.0, 248.0, 249.0, 250.0, 250.0, 250.0, 250.0, 258.0, 279.0, 301.0, 320.0, 338.0, 352.0, 367.0, 380.0, 400.0, 407.0, 415.0, 420.0, 421.0, 421.0, 421.0, 421.0, 421.0, 421.0, 421.0, 421.0]	[0.013524068092010566, 0.01847237658148515, 0.025033826128492365, 0.042123359211473144, 0.058494727083598264, 0.07553306017507566, 0.09181568139683804, 0.10885333182341128, 0.1253366570090293, 0.14226815278561844, 0.15869310998277797, 0.17573349107442482, 0.1918321336615918, 0.20885374142198998, 0.22530259194900282, 0.2421091597461782, 0.25870205291539605, 0.27548984738314175, 0.2920421218914271, 0.3088637083546928, 0.3251459882412746, 0.3420692920208239, 0.3584102812310448, 0.37560904096244485, 0.39170904888123914, 0.40889722728206834, 0.4250402431935072, 0.4422212535937433, 0.45838440816987713, 0.47549749324934965, 0.4917285731444281, 0.5088665755538386, 0.5250672767888318, 0.5421868472003553, 0.5584687857553945, 0.5755893801670027, 0.591858348056121, 0.6088236358282302, 0.627638608617417, 0.642282147451624, 0.6613933975222608, 0.6753747498023586, 0.6943890612237738, 0.7087629467714578, 0.7261480744709843, 0.7422426210578124, 0.7584085062990198, 0.7758113833278912, 0.7921124365457217, 0.8086015643984865, 0.8251750015697326, 0.842031404026784, 0.8583734172370896, 0.8751557503728691, 0.8955227655642375, 0.9088699206204183, 0.9253614378048951, 0.9418532963245525, 0.9608839917418663, 0.9756104745629273, 0.9920425997588609, 1.00888159421811, 1.025537975374391, 1.0421434978743491, 1.0617534358607372, 1.075424174861837, 1.0924167692937772, 1.1088058864970662, 1.1257274836098077, 1.1420691554867517, 1.1621026880675345, 1.1754150271299295, 1.1946539358450536, 1.20876124010465, 1.2279339301658183, 1.2421156450800481, 1.261514980435095, 1.27546219938813, 1.2946615134442254, 1.30877257236898, 1.3280350330824149, 1.341730348078272, 1.3588444571578293, 1.3754011689979961, 1.3929808566645079, 1.4085978780003643, 1.4253399338085728, 1.4423577869038127, 1.46043274915246]
14	animate/a9.jpg	animate	inanimate	left	2.711	[0.0, 0.0, 0.0, 0.0, 0.0, 0.0, 0.0, 0.0, 2.0, 4.0, 4.0, 4.0, 4.0, 4.0, 4.0, 4.0, 4.0, 4.0, 4.0, 5.0, 10.0, 11.0, 19.0, 24.0, 34.0, 38.0, 49.0, 57.0, 69.0, 84.0, 105.0, 132.0, 183.0, 197.0, 246.0, 257.0, 276.0, 282.0, 285.0, 285.0, 285.0, 285.0, 285.0, 285.0, 258.0, 249.0, 235.0, 216.0, 161.0, 109.0, 44.0, -24.0, -86.0, -149.0, -207.0, -266.0, -328.0, -380.0, -424.0, -467.0, -518.0, -540.0, -560.0, -577.0, -589.0, -602.0, -613.0, -620.0, -628.0, -633.0, -638.0, -643.0, -651.0, -662.0, -675.0, -687.0, -699.0, -706.0, -711.0, -712.0, -712.0, -712.0, -702.0, -678.0, -575.0, -463.0, -330.0, -184.0, -23.0, 144.0, 302.0, 440.0, 561.0, 652.0, 698.0, 721.0, 729.0, 729.0, 729.0, 729.0, 729.0, 729.0, 729.0, 729.0, 729.0, 729.0, 729.0, 729.0, 727.0, 721.0, 715.0, 712.0, 710.0, 709.0, 709.0, 707.0, 706.0, 702.0, 695.0, 683.0, 655.0, 614.0, 549.0, 449.0, 338.0, 203.0, 62.0, -76.0, -216.0, -338.0, -454.0, -576.0, -616.0, -634.0, -640.0, -640.0, -642.0, -642.0, -645.0, -645.0, -645.0, -645.0, -645.0, -645.0, -645.0, -645.0, -645.0, -645.0, -645.0, -645.0, -645.0, -649.0, -657.0, -673.0, -691.0, -713.0, -731.0, -738.0, -739.0, -739.0, -739.0, -739.0, -739.0]	[-490.0, -490.0, -490.0, -490.0, -490.0, -490.0, -490.0, -490.0, -490.0, -476.0, -459.0, -435.0, -396.0, -368.0, -337.0, -309.0, -279.0, -255.0, -230.0, -207.0, -172.0, -159.0, -127.0, -118.0, -99.0, -93.0, -83.0, -80.0, -78.0, -73.0, -65.0, -56.0, -34.0, -28.0, -7.0, -2.0, 7.0, 9.0, 9.0, 9.0, 9.0, 9.0, 9.0, 15.0, 51.0, 61.0, 74.0, 84.0, 105.0, 119.0, 136.0, 146.0, 154.0, 162.0, 172.0, 180.0, 187.0, 193.0, 200.0, 210.0, 228.0, 238.0, 249.0, 259.0, 266.0, 275.0, 282.0, 288.0, 293.0, 296.0, 300.0, 303.0, 307.0, 311.0, 316.0, 320.0, 324.0, 326.0, 327.0, 328.0, 328.0, 328.0, 333.0, 337.0, 347.0, 353.0, 355.0, 359.0, 367.0, 370.0, 378.0, 395.0, 409.0, 416.0, 416.0, 416.0, 416.0, 416.0, 416.0, 416.0, 416.0, 416.0, 416.0, 416.0, 416.0, 416.0, 416.0, 416.0, 416.0, 416.0, 412.0, 410.0, 408.0, 408.0, 406.0, 405.0, 403.0, 401.0, 397.0, 393.0, 389.0, 388.0, 388.0, 388.0, 388.0, 388.0, 386.0, 386.0, 386.0, 386.0, 386.0, 386.0, 387.0, 393.0, 395.0, 396.0, 399.0, 403.0, 407.0, 411.0, 415.0, 415.0, 415.0, 415.0, 415.0, 415.0, 415.0, 415.0, 415.0, 415.0, 415.0, 415.0, 409.0, 404.0, 402.0, 398.0, 397.0, 397.0, 397.0, 397.0, 397.0, 397.0, 397.0]	[0.01490134785490227, 0.02248065322783077, 0.028555020191561198, 0.041103455383563414, 0.05816260980645893, 0.07436843104005675, 0.0915235001120891, 0.10770645201591833, 0.12485844908951549, 0.1410444729935989, 0.15818827806833724, 0.17438966197005357, 0.19147475772115286, 0.20778536826946947, 0.22496569600480143, 0.24122135189645633, 0.2581286130116496, 0.2746191061978607, 0.2912126820319827, 0.3083868657668063, 0.32458517767008743, 0.34184571872356173, 0.35782352932983486, 0.3748260224292608, 0.39102399299736135, 0.4084620273551991, 0.42441082463301427, 0.44177922700146155, 0.45773314427970035, 0.475062634654023, 0.49114011457822926, 0.5113245164666296, 0.5244822315544297, 0.5448137480834703, 0.5579540551752871, 0.5776896038059931, 0.5911050255162991, 0.611654312675455, 0.624604497132168, 0.6445803443893965, 0.6579295474457467, 0.6778954960373085, 0.6912894137512922, 0.7105894211254054, 0.724615146731594, 0.742043282423765, 0.7578582770584035, 0.7750157354621479, 0.7910662500562466, 0.8081943537999905, 0.8246066816664097, 0.8415661667713721, 0.8579167133138981, 0.874788817101944, 0.8911905636359734, 0.9080807580867258, 0.924598557934587, 0.9414723683876218, 0.957949890907912, 0.9747445120428893, 0.9912848398853384, 1.008119397012706, 1.0245859968690638, 1.041627743294157, 1.057677233888171, 1.0747944149679824, 1.091291734817787, 1.108089086617838, 1.1246188331297162, 1.141506296915395, 1.1579804061038885, 1.174841587226183, 1.1913020430838515, 1.2082038428652595, 1.2246107093978935, 1.2414892985179904, 1.257827215729776, 1.2748413141598576, 1.2912471566924069, 1.3081421298084024, 1.324630574994444, 1.3415480761086656, 1.357992489301978, 1.3747894997686672, 1.3911065956490347, 1.4080681287541665, 1.4243743019724207, 1.4416447416915616, 1.4577727389387292, 1.4748650026886025, 1.4910339599282452, 1.5082078023315262, 1.5243784662379767, 1.5415492366410035, 1.5577929458686413, 1.5749060309481138, 1.5911456441772316, 1.608060755956103, 1.6244235904978268, 1.6415796835699439, 1.657987232769301, 1.6747958485666459, 1.6912853177527722, 1.7082403655258531, 1.7246861440526118, 1.7415514211734262, 1.75774188241121, 1.7749751168030343, 1.7911389540440723, 1.8083619484386873, 1.82455821233998, 1.84156787343818, 1.8603640728961182, 1.8747755051044805, 1.8911943183011317, 1.9079998621000414, 1.9253047764796065, 1.9416184590299963, 1.9577997042670177, 1.9745516587427119, 1.9944752820083522, 2.008211898330046, 2.024965900804091, 2.041557769973224, 2.057705564549906, 2.07488418561843, 2.0910050148668233, 2.107851518658208, 2.1255882196310267, 2.1411147876478935, 2.158965152602832, 2.17444973662532, 2.1914631523886783, 2.2078990322497702, 2.2248141440304607, 2.241425127862385, 2.2582340849930915, 2.2746184235311375, 2.2914625379889912, 2.307771441872319, 2.3247749589700106, 2.341286273485821, 2.358226643927992, 2.3746539904568635, 2.3915004942500673, 2.4079524167755153, 2.424872989886353, 2.441205787099534, 2.458186434867457, 2.474657813390877, 2.4914763278538885, 2.5077889864023746, 2.524839266159688, 2.541295967350379, 2.5581523698074307, 2.57448892168577, 2.591505068116021, 2.607811241332456, 2.6248656170882896, 2.641272824954285, 2.658170870070535, 2.6744217472969467, 2.6915327843762498]
15	animate/a9.jpg	inanimate	animate	right	1.348	[0.0, 0.0, 0.0, 0.0, 0.0, 0.0, 0.0, 0.0, 0.0, 0.0, 1.0, 4.0, 7.0, 13.0, 19.0, 21.0, 24.0, 27.0, 31.0, 36.0, 41.0, 46.0, 48.0, 54.0, 56.0, 56.0, 56.0, 50.0, 42.0, 33.0, 26.0, 13.0, -4.0, -22.0, -28.0, -28.0, -28.0, -28.0, -30.0, -38.0, -47.0, -52.0, -53.0, -60.0, -72.0, -91.0, -149.0, -199.0, -247.0, -303.0, -359.0, -411.0, -454.0, -475.0, -482.0, -477.0, -436.0, -360.0, -258.0, -56.0, 113.0, 283.0, 450.0, 580.0, 683.0, 735.0, 763.0, 779.0, 789.0, 793.0, 795.0, 801.0, 820.0, 836.0, 846.0, 852.0, 853.0, 856.0, 862.0, 870.0, 873.0, 873.0]	[-490.0, -490.0, -490.0, -490.0, -490.0, -490.0, -490.0, -490.0, -490.0, -490.0, -490.0, -490.0, -489.0, -486.0, -482.0, -480.0, -477.0, -474.0, -468.0, -456.0, -442.0, -420.0, -400.0, -378.0, -346.0, -324.0, -296.0, -267.0, -238.0, -217.0, -202.0, -185.0, -165.0, -157.0, -156.0, -156.0, -156.0, -156.0, -158.0, -172.0, -188.0, -195.0, -196.0, -198.0, -198.0, -194.0, -167.0, -139.0, -110.0, -67.0, -21.0, 27.0, 67.0, 95.0, 124.0, 142.0, 163.0, 185.0, 208.0, 239.0, 256.0, 278.0, 296.0, 314.0, 330.0, 337.0, 341.0, 344.0, 345.0, 347.0, 348.0, 349.0, 355.0, 358.0, 362.0, 363.0, 363.0, 365.0, 366.0, 371.0, 372.0, 372.0]	[0.01041653582433355, 0.01642161213203508, 0.022372757783159614, 0.035668712847837014, 0.05241964332162752, 0.07057925622211769, 0.085521120339763, 0.10590349552694533, 0.11883831998602545, 0.13754304212670831, 0.15277503952711413, 0.16950002867270086, 0.18606049517984502, 0.202750668331646, 0.21920566285734822, 0.23561252938998223, 0.252603075823572, 0.26903929701802554, 0.28585235014907084, 0.30253364863528986, 0.31916989112869487, 0.3358365122858231, 0.352517128105319, 0.3691885279258713, 0.38582306375428743, 0.40249139157640457, 0.41923003405281634, 0.4355935512594442, 0.4523598417326866, 0.46927734284508915, 0.4860132546546083, 0.502722201135839, 0.5189563530329906, 0.5361738860938203, 0.5523247526707564, 0.5693740084279852, 0.5855982616594702, 0.602834226718187, 0.6189635892988008, 0.6360879383755673, 0.652250410283159, 0.6694536073482595, 0.6855915032610937, 0.7026499750154471, 0.7189718495628767, 0.7361340866336832, 0.7523030438751448, 0.7693997449568997, 0.7856110275242827, 0.8028900005738251, 0.8190623711470835, 0.8361331309006346, 0.8524171174558433, 0.8693301812363643, 0.8856824344438792, 0.9024654502463818, 0.9193921673577279, 0.9360680045119807, 0.9549891319493327, 0.9692821215103322, 0.9885964648801746, 1.0027140091387992, 1.0203817607889505, 1.036001171456519, 1.0535381924637477, 1.0693972190911154, 1.0864061975207733, 1.1028018000561133, 1.1192253919198265, 1.1358824557446496, 1.1523248209377925, 1.1691365087353915, 1.187214542982474, 1.2025240230377676, 1.2200767453741719, 1.2359661506634438, 1.252694894474189, 1.2691819743267843, 1.2860544194481918, 1.3022773073462304, 1.3194296457513701, 1.335845386949586]
16	animate/a25.jpg	animate	inanimate	left	1.231	[0.0, 0.0, 0.0, 0.0, 0.0, 0.0, 0.0, 0.0, 1.0, 3.0, 7.0, 11.0, 15.0, 28.0, 33.0, 47.0, 50.0, 50.0, 50.0, 50.0, 50.0, 53.0, 53.0, 53.0, 55.0, 55.0, 54.0, 60.0, 73.0, 88.0, 95.0, 108.0, 127.0, 157.0, 195.0, 249.0, 300.0, 345.0, 396.0, 468.0, 493.0, 559.0, 598.0, 627.0, 646.0, 653.0, 654.0, 654.0, 648.0, 637.0, 619.0, 539.0, 491.0, 332.0, 200.0, 64.0, -80.0, -216.0, -332.0, -417.0, -486.0, -543.0, -587.0, -642.0, -656.0, -690.0, -707.0, -726.0, -745.0, -765.0, -777.0, -782.0, -782.0, -782.0]	[-490.0, -490.0, -490.0, -490.0, -490.0, -490.0, -488.0, -484.0, -480.0, -473.0, -467.0, -460.0, -452.0, -436.0, -433.0, -421.0, -421.0, -421.0, -421.0, -421.0, -421.0, -422.0, -422.0, -422.0, -423.0, -423.0, -422.0, -411.0, -395.0, -371.0, -350.0, -324.0, -293.0, -240.0, -183.0, -111.0, -50.0, 4.0, 52.0, 113.0, 134.0, 190.0, 218.0, 244.0, 262.0, 272.0, 278.0, 283.0, 290.0, 297.0, 303.0, 316.0, 324.0, 333.0, 333.0, 336.0, 348.0, 367.0, 381.0, 398.0, 413.0, 430.0, 443.0, 459.0, 463.0, 471.0, 476.0, 481.0, 484.0, 485.0, 485.0, 485.0, 485.0, 485.0]	[0.004272878204574226, 0.010303895840479527, 0.023353408279945143, 0.04049584802123718, 0.056720442586083664, 0.07384001299760712, 0.09006733822752722, 0.10727736195804027, 0.12344290586588613, 0.14048465229097928, 0.15700552413727564, 0.17375304127926938, 0.19025650512958237, 0.20707945692447538, 0.2236105687698, 0.24056186187772255, 0.2591324400418671, 0.2739367468475393, 0.29177004513803695, 0.30713413851481164, 0.32587367665109923, 0.34055783414441976, 0.3580020125009469, 0.37388288445617945, 0.39082325489835057, 0.40722329476739105, 0.42384997992849094, 0.44027630245909677, 0.45690401162210037, 0.47367815275902103, 0.490082629958124, 0.5070492830636795, 0.5261144531432365, 0.5401548560803349, 0.5597644527333614, 0.5735553410468128, 0.5915313166442502, 0.6068209993682103, 0.6243904470375128, 0.6403518736460683, 0.658365395906003, 0.6737636226098402, 0.6913968996013864, 0.7070722889257013, 0.723950195379075, 0.740309616587183, 0.7571469043796242, 0.7736336428988579, 0.7904760506917228, 0.8066958665895072, 0.8238256770000589, 0.8403397221809428, 0.8571572126456886, 0.8736473644967191, 0.890548481613223, 0.9070601374605758, 0.9238813825904799, 0.9403097531194362, 0.9571545502458321, 0.9736487980972015, 0.990527728548841, 1.006961901744944, 1.0237732482091815, 1.040140178749425, 1.0571419891803089, 1.0736908503567975, 1.0904922981553682, 1.1068291913670691, 1.123824516467721, 1.140283606991943, 1.1572065694363118, 1.1735653079776966, 1.190549027745874, 1.2069862729404122]
17	inanimate/n77.jpg	inanimate	animate	left	1.232	[0.0, 0.0, 0.0, 0.0, 0.0, 0.0, 0.0, 0.0, 0.0, 0.0, 0.0, 4.0, 10.0, 15.0, 21.0, 22.0, 22.0, 14.0, -2.0, -16.0, -30.0, -38.0, -40.0, -41.0, -41.0, -42.0, -45.0, -51.0, -53.0, -55.0, -61.0, -69.0, -73.0, -74.0, -74.0, -73.0, -67.0, -61.0, -56.0, -46.0, -34.0, -23.0, -5.0, 12.0, 29.0, 43.0, 56.0, 67.0, 77.0, 78.0, 81.0, 74.0, 59.0, 44.0, 23.0, -7.0, -54.0, -119.0, -194.0, -273.0, -408.0, -501.0, -591.0, -671.0, -727.0, -765.0, -788.0, -803.0, -810.0, -813.0, -814.0, -814.0, -814.0, -814.0]	[-490.0, -490.0, -490.0, -490.0, -490.0, -490.0, -490.0, -490.0, -490.0, -490.0, -491.0, -488.0, -472.0, -458.0, -441.0, -422.0, -394.0, -365.0, -323.0, -288.0, -265.0, -254.0, -249.0, -246.0, -246.0, -251.0, -270.0, -298.0, -313.0, -317.0, -327.0, -333.0, -333.0, -333.0, -331.0, -324.0, -311.0, -296.0, -273.0, -248.0, -222.0, -195.0, -166.0, -134.0, -105.0, -77.0, -45.0, -18.0, 20.0, 32.0, 67.0, 91.0, 114.0, 136.0, 153.0, 171.0, 194.0, 222.0, 252.0, 275.0, 313.0, 347.0, 377.0, 407.0, 428.0, 445.0, 457.0, 464.0, 469.0, 471.0, 471.0, 471.0, 471.0, 471.0]	[0.0034113530164177064, 0.012260418172445497, 0.021778155214633443, 0.03837446171564807, 0.05518649084660865, 0.07245215190050658, 0.08858185581448197, 0.10888333501497982, 0.12163998350479233, 0.138711084591705, 0.15518485244683689, 0.1744084011661471, 0.1885477907526365, 0.20818230473560106, 0.2216618971015123, 0.24032326991618902, 0.25497227008236223, 0.27295848568064685, 0.2885608296837745, 0.3065405599481892, 0.3219067013269523, 0.33870678379207675, 0.35526349563406256, 0.37212092208937975, 0.38853802862104203, 0.4053937484113703, 0.4218494256019767, 0.43869866006025404, 0.4550621772668819, 0.472011422374635, 0.4883107689256576, 0.5054050806757004, 0.5216692698995757, 0.5387328616543527, 0.555199120177349, 0.572058253299474, 0.5884726291660627, 0.6052996769612946, 0.6217236101565504, 0.6387059645931004, 0.6550336418058578, 0.6719934682441817, 0.6882955454620969, 0.7054151158736204, 0.7219772890475724, 0.7387405075205606, 0.7551128993927705, 0.7721502084841632, 0.7882761577329802, 0.8054240588062385, 0.821617250709096, 0.8388689170988073, 0.8549576610184886, 0.8721001007597806, 0.8883048979932937, 0.9053954550781782, 0.9216200496412057, 0.9388334867035155, 0.9549812812820164, 0.9721626330156141, 0.9884954302287952, 1.0053368140215753, 1.0217740592161135, 1.0387622163161723, 1.0580041970315506, 1.0719572186517325, 1.0896492049650988, 1.105433820937833, 1.1228059779732575, 1.1387889085781353, 1.1552200097739842, 1.171815292274914, 1.188352548118928, 1.2052635638992797]
18	inanimate/n45.jpg	inanimate	animate	left	1.596	[0.0, 0.0, 0.0, 0.0, 0.0, 1.0, 2.0, 3.0, 3.0, 4.0, 4.0, 4.0, 1.0, -4.0, -7.0, -11.0, -18.0, -21.0, -21.0, -21.0, -21.0, -21.0, -19.0, -9.0, 4.0, 21.0, 42.0, 68.0, 134.0, 196.0, 262.0, 328.0, 392.0, 439.0, 483.0, 513.0, 534.0, 548.0, 557.0, 564.0, 564.0, 564.0, 564.0, 564.0, 564.0, 564.0, 564.0, 556.0, 535.0, 507.0, 472.0, 431.0, 338.0, 254.0, 165.0, 67.0, -25.0, -106.0, -182.0, -288.0, -323.0, -399.0, -457.0, -538.0, -580.0, -609.0, -646.0, -680.0, -705.0, -721.0, -730.0, -731.0, -731.0, -731.0, -731.0, -731.0, -731.0, -731.0, -732.0, -732.0, -732.0, -732.0, -731.0, -731.0, -731.0, -731.0, -731.0, -734.0, -740.0, -748.0, -752.0, -755.0, -757.0, -757.0, -757.0, -757.0]	[-490.0, -490.0, -490.0, -490.0, -490.0, -486.0, -478.0, -463.0, -442.0, -420.0, -399.0, -374.0, -346.0, -315.0, -285.0, -255.0, -211.0, -183.0, -154.0, -123.0, -90.0, -63.0, -34.0, -10.0, 16.0, 39.0, 62.0, 84.0, 123.0, 148.0, 171.0, 190.0, 207.0, 220.0, 233.0, 243.0, 249.0, 256.0, 261.0, 267.0, 267.0, 267.0, 267.0, 267.0, 267.0, 267.0, 268.0, 274.0, 279.0, 284.0, 284.0, 284.0, 284.0, 284.0, 284.0, 284.0, 284.0, 284.0, 284.0, 284.0, 284.0, 284.0, 285.0, 290.0, 293.0, 293.0, 293.0, 293.0, 293.0, 293.0, 293.0, 293.0, 293.0, 293.0, 293.0, 293.0, 293.0, 293.0, 293.0, 294.0, 295.0, 298.0, 299.0, 300.0, 301.0, 305.0, 321.0, 336.0, 354.0, 374.0, 389.0, 399.0, 406.0, 406.0, 406.0, 406.0]	[0.01435931061678275, 0.020221026950821397, 0.02579977799723565, 0.04350234564299171, 0.058764380371940206, 0.07637922536559927, 0.09241540396214987, 0.11024631291911646, 0.12566570228773344, 0.14299553399723663, 0.15887879528600024, 0.17709302150979056, 0.1921987255991553, 0.20918346936741727, 0.22568317855075293, 0.24283142095737276, 0.2590792261853494, 0.27584380998996494, 0.29245718315542035, 0.30929890828156203, 0.32575936413741147, 0.34257719593551883, 0.35898679313322646, 0.3758599209213571, 0.392333688776489, 0.40916312590343296, 0.4256655657536612, 0.4425253815443284, 0.4591988293650502, 0.4759272318424337, 0.49247609301892226, 0.5092188314938539, 0.5256454953578213, 0.5425179404774099, 0.5589917083325417, 0.5757900841326773, 0.5924392972920032, 0.6091943237661326, 0.6255121023132233, 0.6424108300961962, 0.6587620593054453, 0.6759297577100369, 0.6921048589483689, 0.7093032773464074, 0.725449706591462, 0.7425747383349517, 0.758767247571086, 0.7759103699791012, 0.7921110712140944, 0.8092398576245614, 0.825460356189069, 0.8425686626032984, 0.8591219611116685, 0.8757878996002546, 0.8921288888104755, 0.9091617605718056, 0.9257317844094359, 0.9426376801911829, 0.9589517040731153, 0.9757422292077536, 0.9924068023628934, 1.0092287301595206, 1.0255352447093173, 1.042628873792637, 1.0589080816807837, 1.0761614547354839, 1.0923252919783408, 1.109275219750998, 1.1269603794007708, 1.1425620407371753, 1.1595464431720757, 1.1759270270431443, 1.1923489122400497, 1.2090080240632233, 1.2258412158571446, 1.2428696502847743, 1.2594260207933985, 1.2758956926481915, 1.2921295032119815, 1.3089872710006603, 1.326723971973479, 1.3426034785970842, 1.3592243610928563, 1.375919654245081, 1.3923493901074835, 1.409383627200441, 1.425767965736668, 1.442231152261229, 1.4596067226284504, 1.4759637545030273, 1.4923986103658535, 1.5088761328861438, 1.5259738579679833, 1.542613513795004, 1.559265116286042, 1.5755675348373188]
19	inanimate/n59.jpg	animate	inanimate	right	2.304	[0.0, 0.0, 0.0, 0.0, 0.0, 2.0, 4.0, 7.0, 10.0, 13.0, 16.0, 17.0, 17.0, 17.0, 17.0, 17.0, 17.0, 17.0, 17.0, 17.0, 17.0, 17.0, 17.0, 17.0, 17.0, 15.0, 12.0, 10.0, 4.0, -1.0, -6.0, -11.0, -17.0, -24.0, -27.0, -33.0, -34.0, -39.0, -41.0, -42.0, -42.0, -42.0, -42.0, -48.0, -58.0, -77.0, -81.0, -84.0, -87.0, -87.0, -87.0, -88.0, -88.0, -88.0, -84.0, -75.0, -59.0, -17.0, 3.0, 53.0, 111.0, 209.0, 265.0, 332.0, 403.0, 480.0, 547.0, 605.0, 658.0, 700.0, 728.0, 757.0, 765.0, 777.0, 781.0, 784.0, 785.0, 785.0, 785.0, 785.0, 785.0, 785.0, 785.0, 785.0, 785.0, 785.0, 785.0, 785.0, 785.0, 785.0, 785.0, 785.0, 785.0, 788.0, 800.0, 814.0, 831.0, 852.0, 865.0, 877.0, 887.0, 897.0, 906.0, 915.0, 921.0, 927.0, 938.0, 941.0, 952.0, 959.0, 959.0, 959.0, 959.0, 959.0, 959.0, 959.0, 959.0, 959.0, 959.0, 959.0, 959.0, 959.0, 959.0, 959.0, 959.0, 959.0, 954.0, 947.0, 939.0, 929.0, 919.0, 906.0, 885.0, 878.0, 872.0, 871.0, 871.0, 871.0]	[-490.0, -490.0, -490.0, -490.0, -490.0, -490.0, -489.0, -484.0, -479.0, -476.0, -473.0, -471.0, -471.0, -471.0, -471.0, -470.0, -470.0, -470.0, -470.0, -467.0, -464.0, -459.0, -448.0, -436.0, -411.0, -389.0, -369.0, -345.0, -324.0, -304.0, -285.0, -272.0, -259.0, -243.0, -229.0, -209.0, -205.0, -195.0, -194.0, -194.0, -194.0, -194.0, -194.0, -195.0, -216.0, -245.0, -246.0, -254.0, -257.0, -257.0, -257.0, -255.0, -245.0, -230.0, -212.0, -192.0, -159.0, -99.0, -76.0, -28.0, 20.0, 87.0, 118.0, 157.0, 196.0, 237.0, 267.0, 298.0, 324.0, 348.0, 367.0, 389.0, 395.0, 408.0, 415.0, 420.0, 421.0, 422.0, 422.0, 422.0, 422.0, 422.0, 422.0, 422.0, 422.0, 422.0, 422.0, 422.0, 422.0, 422.0, 422.0, 422.0, 422.0, 424.0, 433.0, 440.0, 449.0, 462.0, 471.0, 479.0, 487.0, 494.0, 501.0, 508.0, 514.0, 520.0, 531.0, 535.0, 540.0, 540.0, 540.0, 540.0, 540.0, 540.0, 540.0, 540.0, 540.0, 540.0, 540.0, 540.0, 540.0, 540.0, 540.0, 540.0, 540.0, 540.0, 540.0, 540.0, 540.0, 540.0, 540.0, 540.0, 540.0, 540.0, 540.0, 540.0, 540.0, 540.0]	[0.0001802922361093806, 0.006265923197133816, 0.015524246950008092, 0.03212976944996626, 0.048956475911836606, 0.06563640906460932, 0.08207467825923231, 0.09910789135210507, 0.11543044856625784, 0.132483458990464, 0.14877802687442454, 0.16587302129119053, 0.18202627720165765, 0.19918612493893306, 0.21536805284449656, 0.23260572456820228, 0.2487221164847142, 0.2657396282465925, 0.28218062810810807, 0.29895749991192133, 0.31534422778167936, 0.33248598485624825, 0.34885598739492707, 0.36568235252343584, 0.3821021897219907, 0.39928729612256575, 0.41531767205196957, 0.4325802611056133, 0.4487017730225489, 0.4658558180944965, 0.48498686549646663, 0.49905423376185354, 0.5159481828777643, 0.5325025053862191, 0.551241019522422, 0.5658453050291428, 0.5849842030966101, 0.5990426966964151, 0.6182304054218548, 0.6323977843367175, 0.651863338349358, 0.6657388773146522, 0.6847258820744173, 0.6990475436286943, 0.7181608417013194, 0.732411164601217, 0.750001092266757, 0.7657908282380959, 0.7830769692882313, 0.7991824385389918, 0.8163043982840463, 0.8326795208231488, 0.8492498859941406, 0.8658526778272062, 0.8820643017279508, 0.8987841708749329, 0.9188538847829477, 0.93229797848835, 0.9491222956166894, 0.965502879487758, 0.9838474950229283, 0.9990054231038812, 1.0157659109099768, 1.0321437641141529, 1.0494056705010735, 1.0656807823907002, 1.0825375261811132, 1.0987573420788976, 1.1157612005099509, 1.1323445363468636, 1.1493111894506, 1.1654367973660555, 1.1824287091330916, 1.1989912236385862, 1.2159790394071024, 1.2320404766651336, 1.2491098710852384, 1.2659133668839786, 1.2826045640358643, 1.2992575318603485, 1.3158046863700292, 1.3323811955397105, 1.348757000745536, 1.3658939791548619, 1.3820806857256684, 1.3988988588553184, 1.415852541294953, 1.4320621171955281, 1.4490779222905985, 1.4653165115196316, 1.4825384819141618, 1.4986890071577363, 1.515827009565328, 1.5320328307989257, 1.5490814038894314, 1.56536539044464, 1.5824764275239431, 1.5987215020850272, 1.615905243152156, 1.6321021897219907, 1.6492695467914018, 1.6656811919910979, 1.6824488477959676, 1.6988567383286863, 1.7157203087845119, 1.7349090415082173, 1.7491016790863796, 1.7656734095926367, 1.7825328840481234, 1.7990008492379275, 1.8158094650352723, 1.83231804888419, 1.8492048300031456, 1.865377200576404, 1.8825029149866168, 1.8993623894421034, 1.915983613273056, 1.9318829172261758, 1.948799053005132, 1.9690735668773414, 1.9818295327004307, 1.998917017785061, 2.0155856869405397, 2.0353744835629186, 2.0486806786248053, 2.068211427291317, 2.0821115422531875, 2.101591432261557, 2.115453659229388, 2.132508376318583, 2.14897258684141, 2.166242685227189, 2.1821389171818737, 2.200245282090691, 2.2156295141321607, 2.2333815751026123, 2.248787311140404, 2.265840662896153]
20	inanimate/n18.jpg	animate	inanimate	right	1.07	[0.0, 0.0, 0.0, 0.0, 0.0, 0.0, 0.0, 1.0, 3.0, 8.0, 14.0, 21.0, 31.0, 32.0, 32.0, 32.0, 32.0, 32.0, 32.0, 32.0, 32.0, 32.0, 32.0, 32.0, 46.0, 51.0, 51.0, 51.0, 51.0, 50.0, 46.0, 41.0, 36.0, 28.0, 21.0, 14.0, 8.0, 8.0, 8.0, 15.0, 26.0, 38.0, 54.0, 76.0, 114.0, 168.0, 242.0, 325.0, 403.0, 478.0, 562.0, 605.0, 639.0, 673.0, 705.0, 730.0, 751.0, 770.0, 787.0, 806.0, 829.0, 834.0, 836.0, 836.0, 836.0]	[-490.0, -490.0, -490.0, -490.0, -490.0, -490.0, -490.0, -487.0, -482.0, -472.0, -459.0, -440.0, -413.0, -398.0, -385.0, -370.0, -360.0, -360.0, -360.0, -360.0, -360.0, -360.0, -360.0, -365.0, -405.0, -421.0, -423.0, -424.0, -423.0, -416.0, -403.0, -380.0, -345.0, -296.0, -246.0, -199.0, -134.0, -117.0, -67.0, -41.0, -12.0, 12.0, 35.0, 58.0, 83.0, 116.0, 153.0, 187.0, 223.0, 254.0, 296.0, 320.0, 339.0, 360.0, 378.0, 395.0, 410.0, 424.0, 439.0, 452.0, 469.0, 472.0, 473.0, 473.0, 473.0]	[0.008594157468905905, 0.02027151014226547, 0.03212362545309588, 0.04282339962810511, 0.05990883671074698, 0.07614810860650323, 0.09331205234411755, 0.10946291892105364, 0.12660126266200677, 0.14297331320085505, 0.1599116356446757, 0.1763751635007793, 0.1931841206333047, 0.20958347783380304, 0.22658938426502573, 0.2430747574508132, 0.25973284527390206, 0.27889119933752227, 0.293187260898776, 0.31230840963507944, 0.32650855654537736, 0.34596557722397847, 0.35977831086711376, 0.37896977425771183, 0.39313169184060826, 0.41086463814826857, 0.4265478781380807, 0.4444934750754328, 0.4600453017555992, 0.47761236008955166, 0.4932413280894252, 0.509775511935004, 0.5264766077507375, 0.5428175969609583, 0.5595934447646869, 0.5789801507889933, 0.5929911990660912, 0.612503174401354, 0.6261285160762782, 0.6443959902917413, 0.659856680986195, 0.676821286091581, 0.693063971319134, 0.7100367684233788, 0.7263210963101301, 0.7432164107594872, 0.7597994052630384, 0.7766800423833047, 0.7930394635895937, 0.8100907673469919, 0.8263416445734038, 0.8432772363503318, 0.8597820655322721, 0.8767053693118214, 0.89309004918141, 0.9099505476369814, 0.9263499048392987, 0.943228152624215, 0.9594978031818755, 0.9766474109219416, 0.9930737334507285, 1.009868013252344, 1.026340074440668, 1.043257234219709, 1.0596920900825353]
21	animate/a80.jpg	animate	inanimate	left	1.182	[0.0, 0.0, 0.0, 0.0, 0.0, 0.0, 0.0, 0.0, 0.0, 0.0, 1.0, 2.0, 2.0, 2.0, 2.0, 2.0, 2.0, 2.0, 2.0, 2.0, 2.0, 2.0, 2.0, 2.0, 2.0, 3.0, 7.0, 14.0, 23.0, 44.0, 60.0, 79.0, 100.0, 118.0, 124.0, 126.0, 126.0, 127.0, 127.0, 117.0, 115.0, 105.0, 105.0, 107.0, 121.0, 145.0, 184.0, 228.0, 255.0, 266.0, 267.0, 264.0, 252.0, 196.0, 163.0, -1.0, -153.0, -328.0, -490.0, -643.0, -768.0, -863.0, -917.0, -940.0, -951.0, -956.0, -957.0, -957.0, -957.0, -957.0, -957.0]	[-490.0, -490.0, -490.0, -490.0, -490.0, -490.0, -490.0, -490.0, -490.0, -490.0, -487.0, -486.0, -486.0, -486.0, -486.0, -486.0, -486.0, -486.0, -486.0, -486.0, -486.0, -486.0, -486.0, -486.0, -486.0, -481.0, -463.0, -441.0, -417.0, -365.0, -328.0, -282.0, -234.0, -191.0, -154.0, -130.0, -101.0, -56.0, -44.0, 0.0, 12.0, 46.0, 57.0, 91.0, 116.0, 141.0, 167.0, 192.0, 207.0, 214.0, 216.0, 219.0, 223.0, 231.0, 234.0, 260.0, 282.0, 301.0, 306.0, 318.0, 337.0, 352.0, 358.0, 362.0, 366.0, 368.0, 369.0, 369.0, 369.0, 369.0, 369.0]	[0.00029805221493006684, 0.0055986166444199625, 0.015266881660863874, 0.03242399873306567, 0.04894794257961621, 0.06564903839534963, 0.08207433692587074, 0.09901061136952194, 0.11527718992510927, 0.13241314433435036, 0.14861248023589724, 0.16580373063516163, 0.18200682120368583, 0.19918919693736825, 0.2152967141901172, 0.23245587926066946, 0.24876444181063562, 0.26576113224291475, 0.281980265475795, 0.2988557825956377, 0.3158743183576007, 0.33195828361203894, 0.3490696620247036, 0.3655543525455869, 0.38255786964327854, 0.3988602881945553, 0.4157347813143133, 0.4322877384893218, 0.4493472342437599, 0.4655178981520294, 0.482626887231163, 0.4989016577874281, 0.5159447695459676, 0.5319393054815009, 0.5493944065037795, 0.5655572197447327, 0.5826907848204428, 0.5988641793937859, 0.6164551310575916, 0.6321731870430085, 0.6493582934435835, 0.6655548986782378, 0.6854911512764374, 0.6988744876580313, 0.7191425162000087, 0.7321514099785418, 0.752040558585577, 0.7655457509463304, 0.7849058329757099, 0.798829841265615, 0.8164283022633754, 0.832194827571584, 0.8497956779010565, 0.8652584165956796, 0.8823964190050901, 0.8988688215267757, 0.9157863226391783, 0.9321484745123598, 0.9491181996163505, 0.9655394021483517, 0.9822811166231986, 0.9988415831303428, 1.0156689722589363, 1.0322359240981314, 1.049045563895561, 1.0656555237274006, 1.0824409288634342, 1.0986296834344103, 1.1157693925088097, 1.1319455177472264, 1.149113216151818]
22	inanimate/n21.jpg	animate	inanimate	right	0.963	[0.0, 1.0, 1.0, 2.0, 3.0, 3.0, 3.0, 4.0, -15.0, -37.0, -65.0, -65.0, -65.0, -65.0, -65.0, -65.0, -65.0, -65.0, -65.0, -65.0, -65.0, -70.0, -72.0, -72.0, -71.0, -69.0, -62.0, -52.0, -43.0, -28.0, 3.0, 44.0, 98.0, 207.0, 284.0, 354.0, 410.0, 449.0, 479.0, 501.0, 521.0, 534.0, 545.0, 555.0, 560.0, 567.0, 571.0, 582.0, 595.0, 611.0, 625.0, 640.0, 658.0, 676.0, 688.0, 696.0, 697.0, 697.0]	[-490.0, -490.0, -490.0, -490.0, -490.0, -490.0, -490.0, -488.0, -461.0, -433.0, -394.0, -393.0, -393.0, -393.0, -393.0, -393.0, -393.0, -393.0, -393.0, -393.0, -393.0, -394.0, -385.0, -371.0, -351.0, -323.0, -305.0, -283.0, -245.0, -176.0, -96.0, -12.0, 59.0, 153.0, 208.0, 259.0, 300.0, 329.0, 356.0, 374.0, 391.0, 403.0, 414.0, 427.0, 436.0, 444.0, 449.0, 456.0, 462.0, 466.0, 468.0, 468.0, 468.0, 467.0, 466.0, 464.0, 464.0, 464.0]	[0.004080366237758426, 0.008699970781890443, 0.02385824019620486, 0.039933330785061116, 0.056846053232220584, 0.07329763442430703, 0.09014311421560706, 0.10661858873754682, 0.12345655919671117, 0.1399566097152274, 0.15685840949663543, 0.1733209133544733, 0.19023977980032214, 0.20663708900065103, 0.22351192345377058, 0.2396993126913003, 0.2568560884301405, 0.2733554562819336, 0.29027944272638706, 0.30667811726016225, 0.3235017517235974, 0.33993763158468937, 0.3568592286956118, 0.3733722498782299, 0.39028394832530466, 0.4066508788655483, 0.42349294532505155, 0.43991824385375367, 0.45682755296911637, 0.4732740141625982, 0.4901508966140682, 0.506606232473132, 0.523503253589297, 0.5397138534899568, 0.556823183902452, 0.5734901463911228, 0.5902093328713818, 0.6063649781135609, 0.6235104898551072, 0.6399494417164533, 0.6568171081707987, 0.673285756025507, 0.6901281638183718, 0.7066466463329562, 0.7235149954540248, 0.7399744273116085, 0.7568625737621915, 0.7732383789680171, 0.790227218734799, 0.8067395572506939, 0.8234112984046078, 0.839753652950094, 0.8567964233734529, 0.8732514178991551, 0.8902126096709253, 0.9067188041863119, 0.923418534670418, 0.9397107132226665]
23	animate/a14.jpg	animate	inanimate	left	1.051	[0.0, -1.0, -1.0, -1.0, -1.0, -1.0, -1.0, 4.0, 5.0, 5.0, 5.0, 5.0, 5.0, 8.0, 8.0, 13.0, 24.0, 24.0, 26.0, 30.0, 37.0, 38.0, 36.0, 35.0, 35.0, 30.0, 23.0, 18.0, 20.0, 39.0, 43.0, 74.0, 102.0, 144.0, 201.0, 262.0, 326.0, 408.0, 423.0, 461.0, 469.0, 479.0, 480.0, 475.0, 453.0, 384.0, 282.0, 89.0, 6.0, -251.0, -336.0, -527.0, -575.0, -690.0, -712.0, -750.0, -763.0, -770.0, -774.0, -777.0, -777.0, -777.0, -777.0]	[-490.0, -490.0, -490.0, -490.0, -490.0, -485.0, -481.0, -462.0, -444.0, -420.0, -392.0, -367.0, -347.0, -341.0, -340.0, -340.0, -348.0, -348.0, -350.0, -355.0, -367.0, -372.0, -372.0, -372.0, -361.0, -346.0, -326.0, -291.0, -280.0, -239.0, -225.0, -158.0, -113.0, -64.0, -11.0, 34.0, 75.0, 120.0, 132.0, 160.0, 168.0, 183.0, 185.0, 195.0, 206.0, 229.0, 253.0, 279.0, 292.0, 327.0, 338.0, 367.0, 375.0, 401.0, 409.0, 429.0, 441.0, 451.0, 457.0, 460.0, 460.0, 460.0, 460.0]	[0.002908603237301577, 0.009923343373884563, 0.020632333546018344, 0.03717402672373282, 0.05434104245978233, 0.07049190903671843, 0.08787123407091713, 0.10382958868103742, 0.12126284437181312, 0.1371150443337683, 0.1545015373667411, 0.17050836130147218, 0.18783307301055174, 0.20402899558030185, 0.221025686012581, 0.23734824322673376, 0.25442070964709274, 0.2706920668697421, 0.2878116372812656, 0.3038201678828045, 0.32114658625869197, 0.337346604826962, 0.35443647924330435, 0.3705033778351208, 0.3878103402148554, 0.40398271078811376, 0.42112856386120257, 0.43711559046641923, 0.4544498595078039, 0.4704894514379703, 0.4904772453592159, 0.5038288377472782, 0.5219242799921631, 0.5371965547201398, 0.5577806578730815, 0.5705021490357467, 0.5909050042191666, 0.6038295886810374, 0.6241597398784506, 0.6371669269901759, 0.6571441395808506, 0.6704158599823131, 0.6878047423488169, 0.7038402382786444, 0.724017130834909, 0.7374352832121076, 0.7546671522704855, 0.7706545202090638, 0.7905907728072634, 0.8037389305627585, 0.8214469595404807, 0.8372834581714415, 0.8574269000673667, 0.8706658524733939, 0.8905355450824572, 0.9037946361531795, 0.9240776833576092, 0.937330630429642, 0.9575396083146188, 0.9704932061031286, 0.9905202533518604, 1.004052752376083, 1.0235271810524864]
24	inanimate/n79.jpg	animate	inanimate	right	0.854	[0.0, 0.0, 0.0, 0.0, 0.0, 1.0, 1.0, -4.0, -19.0, -36.0, -49.0, -56.0, -57.0, -57.0, -57.0, -53.0, -51.0, -51.0, -51.0, -51.0, -51.0, -52.0, -53.0, -53.0, -54.0, -56.0, -56.0, -43.0, -24.0, -1.0, 33.0, 106.0, 165.0, 229.0, 284.0, 341.0, 401.0, 455.0, 512.0, 570.0, 624.0, 670.0, 707.0, 749.0, 766.0, 782.0, 800.0, 815.0, 832.0, 839.0, 840.0]	[-490.0, -490.0, -490.0, -490.0, -490.0, -482.0, -466.0, -445.0, -409.0, -373.0, -336.0, -309.0, -298.0, -290.0, -289.0, -292.0, -297.0, -297.0, -297.0, -297.0, -299.0, -308.0, -311.0, -311.0, -306.0, -293.0, -276.0, -250.0, -216.0, -179.0, -132.0, -52.0, -4.0, 45.0, 87.0, 129.0, 165.0, 201.0, 241.0, 283.0, 319.0, 349.0, 378.0, 420.0, 439.0, 457.0, 470.0, 479.0, 486.0, 489.0, 490.0]	[0.004136686226047459, 0.009290136013078154, 0.023509397587986314, 0.040060648096186924, 0.056880186559283175, 0.07337853040917253, 0.09024619686351798, 0.1067390793832601, 0.12366374849443673, 0.14007914835929114, 0.157119529450938, 0.17358373997376475, 0.19024592379719252, 0.2068811422923318, 0.22368771008950716, 0.23999285930767655, 0.2569141150852374, 0.2735807362423657, 0.290252136062918, 0.3065088159546576, 0.3236560343630117, 0.3400874768904032, 0.35697801267451723, 0.37320602057297947, 0.390287702990463, 0.4067587401787023, 0.42360353730509814, 0.44017390247609, 0.4569207369513606, 0.47339075014133414, 0.4902795792586403, 0.5067547124472185, 0.5235117869196984, 0.5398186428028566, 0.5571600798448344, 0.5734263170688791, 0.5902298128676193, 0.6065871860755578, 0.6235152685203502, 0.6401006523556134, 0.6569061961545231, 0.6731758467103646, 0.6902664037934301, 0.706801270305732, 0.7236293420992297, 0.7401997072720405, 0.757069763059917, 0.7732622722960514, 0.7902429200639745, 0.8064804852929228, 0.8236570583612774]
25	animate/a12.jpg	animate	inanimate	left	1.047	[0.0, 0.0, 0.0, 0.0, 0.0, 0.0, 0.0, 0.0, 0.0, -2.0, -12.0, -25.0, -46.0, -70.0, -98.0, -123.0, -145.0, -180.0, -194.0, -211.0, -222.0, -229.0, -229.0, -229.0, -229.0, -229.0, -229.0, -229.0, -230.0, -217.0, -217.0, -217.0, -217.0, -212.0, -209.0, -207.0, -201.0, -189.0, -166.0, -128.0, -41.0, 19.0, 73.0, 99.0, 111.0, 116.0, 120.0, 125.0, 128.0, 128.0, 116.0, 75.0, 17.0, -123.0, -253.0, -397.0, -537.0, -661.0, -749.0, -813.0, -842.0, -850.0, -850.0, -850.0]	[-490.0, -490.0, -490.0, -490.0, -490.0, -490.0, -490.0, -490.0, -489.0, -470.0, -438.0, -389.0, -326.0, -257.0, -195.0, -138.0, -89.0, -30.0, -13.0, 9.0, 25.0, 36.0, 36.0, 36.0, 36.0, 36.0, 36.0, 36.0, 26.0, -2.0, -9.0, -9.0, -9.0, -2.0, 5.0, 12.0, 26.0, 45.0, 63.0, 88.0, 123.0, 151.0, 173.0, 187.0, 195.0, 196.0, 197.0, 199.0, 201.0, 206.0, 219.0, 237.0, 246.0, 265.0, 286.0, 316.0, 352.0, 387.0, 415.0, 443.0, 458.0, 462.0, 462.0, 462.0]	[0.010319597173293005, 0.015448129632204655, 0.021328960627215565, 0.03577691549617157, 0.05245718998230586, 0.06933407243559486, 0.08583070962049533, 0.10261679742143315, 0.11892706663820718, 0.13597325039518182, 0.1522589436153794, 0.16929181537489058, 0.185556687267308, 0.20262300968715863, 0.21886569491471164, 0.23605967598086863, 0.252218393223302, 0.26934615563368425, 0.2855659715314687, 0.3028162725877337, 0.3191719391288643, 0.3360648642465094, 0.35231915480653697, 0.3692441652510752, 0.38822434334542777, 0.40271974353709084, 0.4192491487156076, 0.43594273520102433, 0.45519017724836885, 0.4692937268428068, 0.4856627053814009, 0.5025911291595548, 0.5219382405248325, 0.5361674007617694, 0.5531876431905403, 0.569377421761601, 0.5857774616288225, 0.602483336111618, 0.6189045386418002, 0.6369296662323904, 0.6552834977665043, 0.6693402847013203, 0.6858239512202999, 0.7022854310780531, 0.7210795825376408, 0.735629596054423, 0.7538260729488684, 0.7689532810327364, 0.786354451396619, 0.8022810620113887, 0.8195555977308686, 0.8357532269656076, 0.8531390373318573, 0.8689069279753312, 0.886115586370579, 0.9024896849095967, 0.9193525726986991, 0.9357754818956892, 0.9526564603474981, 0.9691824521942181, 0.9858668226806913, 1.0024334331865248, 1.0193485449653963, 1.0357728194958327]
26	inanimate/n77.jpg	animate	inanimate	right	0.871	[0.0, 0.0, 0.0, 0.0, 0.0, 0.0, 0.0, -7.0, -19.0, -34.0, -52.0, -81.0, -103.0, -137.0, -167.0, -171.0, -182.0, -182.0, -182.0, -182.0, -182.0, -182.0, -182.0, -180.0, -179.0, -179.0, -179.0, -173.0, -161.0, -147.0, -120.0, -73.0, -8.0, 78.0, 167.0, 303.0, 350.0, 472.0, 537.0, 588.0, 627.0, 653.0, 677.0, 695.0, 711.0, 725.0, 739.0, 762.0, 767.0, 778.0, 779.0, 779.0]	[-490.0, -490.0, -490.0, -490.0, -490.0, -490.0, -490.0, -486.0, -479.0, -468.0, -453.0, -415.0, -386.0, -350.0, -329.0, -323.0, -319.0, -319.0, -319.0, -319.0, -319.0, -319.0, -319.0, -334.0, -340.0, -342.0, -342.0, -327.0, -310.0, -286.0, -247.0, -193.0, -134.0, -58.0, 17.0, 121.0, 153.0, 237.0, 280.0, 315.0, 342.0, 362.0, 378.0, 392.0, 403.0, 413.0, 424.0, 438.0, 441.0, 446.0, 447.0, 447.0]	[0.0032065530540421605, 0.008242584193794755, 0.02155150992257404, 0.038323261727782665, 0.055347258821711875, 0.0716251013764122, 0.08861598914336355, 0.1049556130219571, 0.12198199944941734, 0.1381786046858906, 0.15525038843770744, 0.17180710027969326, 0.18865974806976737, 0.2051287372596562, 0.22208446769946022, 0.2384551529048622, 0.2553392033569253, 0.2715518512559356, 0.2886499176711368, 0.30501206954613735, 0.32198793864881736, 0.338485258500441, 0.3552884129658196, 0.3715993648474978, 0.38871722859403235, 0.404922367160907, 0.4220794842331088, 0.4383054441295826, 0.45529189456465247, 0.47147689446865115, 0.4886459582048701, 0.5048978594313667, 0.5219949018464831, 0.5381781950854929, 0.5566808479270549, 0.5715278213938291, 0.5886709438018443, 0.6048579917060124, 0.6220441221048532, 0.6383434686576948, 0.65532240975881, 0.6715145776634017, 0.6886454120722192, 0.7048447479737661, 0.7219895770485891, 0.7381803796179156, 0.755346712689061, 0.7715474139240541, 0.7886574270032725, 0.8048966988990287, 0.8220701999671292, 0.8386869864643813]
27	animate/a72.jpg	inanimate	animate	right	1.234	[0.0, 0.0, 0.0, 0.0, 0.0, 0.0, -2.0, -7.0, -12.0, -19.0, -25.0, -35.0, -46.0, -53.0, -62.0, -67.0, -73.0, -81.0, -99.0, -118.0, -135.0, -158.0, -182.0, -205.0, -217.0, -217.0, -217.0, -217.0, -217.0, -217.0, -217.0, -217.0, -217.0, -217.0, -216.0, -212.0, -211.0, -211.0, -233.0, -266.0, -337.0, -373.0, -418.0, -475.0, -532.0, -574.0, -590.0, -599.0, -602.0, -603.0, -603.0, -605.0, -609.0, -613.0, -620.0, -621.0, -620.0, -603.0, -555.0, -457.0, -314.0, -144.0, 61.0, 244.0, 466.0, 523.0, 651.0, 690.0, 708.0, 713.0, 713.0, 713.0, 713.0, 713.0]	[-490.0, -490.0, -490.0, -490.0, -490.0, -471.0, -450.0, -425.0, -394.0, -363.0, -326.0, -288.0, -250.0, -224.0, -198.0, -178.0, -159.0, -138.0, -98.0, -68.0, -46.0, -25.0, -9.0, 4.0, 11.0, 11.0, 11.0, 11.0, 11.0, 11.0, 11.0, 11.0, 11.0, 9.0, 5.0, 1.0, 1.0, 1.0, 10.0, 32.0, 82.0, 108.0, 143.0, 183.0, 220.0, 244.0, 254.0, 261.0, 270.0, 282.0, 292.0, 306.0, 315.0, 324.0, 336.0, 347.0, 358.0, 364.0, 371.0, 371.0, 371.0, 371.0, 371.0, 371.0, 375.0, 377.0, 377.0, 380.0, 383.0, 384.0, 384.0, 384.0, 384.0, 384.0]	[0.0043152035323146265, 0.011851159579236992, 0.023637738901015837, 0.040489362691005226, 0.0573949171393906, 0.07364306369890983, 0.0906943674563081, 0.10715482331397652, 0.12403853243267804, 0.1405085456208326, 0.15730931075449917, 0.17364040130087233, 0.19058964640680642, 0.20695555294696533, 0.2240990166883421, 0.24023179260257166, 0.25740768300420314, 0.2735913175747555, 0.29078768797262455, 0.30691295455471845, 0.32417656760844693, 0.34038375417549105, 0.35743471659952775, 0.3736043565058935, 0.39083451889928256, 0.4069850441428571, 0.4241332865494769, 0.4404015717718721, 0.457334091550365, 0.4736743980938627, 0.4906079418706213, 0.5070011550724303, 0.5239398188496125, 0.5403354213849525, 0.5573802398084808, 0.5738990636564267, 0.5905885541415046, 0.6071828126423497, 0.6239357911163097, 0.6402501563316036, 0.6573731400767429, 0.6760850302161998, 0.6906548410624964, 0.7100920644115831, 0.7239798913760751, 0.7430877281149151, 0.7573220083522756, 0.774724885381147, 0.7907436559817143, 0.8082588316592592, 0.8240256983008294, 0.8409534394122602, 0.8574613405944547, 0.8738982444556314, 0.8906133349373704, 0.9072567454295495, 0.923987537240464, 0.9406647397281631, 0.9572002889053692, 0.973581555443161, 0.9903847099085397, 1.008385602835915, 1.0238483415305382, 1.0409549412779597, 1.0569170505532384, 1.0740079489714844, 1.0902513168657606, 1.1076159645690495, 1.1238497751310206, 1.1407075429196993, 1.1570348788009142, 1.1740861825564934, 1.190477347759952, 1.207350134212902]
28	animate/a62.jpg	animate	inanimate	left	1.104	[0.0, 0.0, 0.0, 0.0, 0.0, 0.0, 0.0, 0.0, 0.0, -1.0, -5.0, -10.0, -22.0, -39.0, -59.0, -79.0, -101.0, -121.0, -139.0, -147.0, -153.0, -154.0, -155.0, -152.0, -151.0, -143.0, -143.0, -143.0, -143.0, -143.0, -143.0, -142.0, -142.0, -138.0, -135.0, -131.0, -129.0, -127.0, -129.0, -139.0, -145.0, -145.0, -143.0, -132.0, -117.0, -88.0, -67.0, -51.0, -44.0, -44.0, -45.0, -76.0, -89.0, -136.0, -209.0, -359.0, -474.0, -580.0, -669.0, -750.0, -816.0, -852.0, -872.0, -876.0, -876.0, -876.0, -876.0]	[-490.0, -490.0, -490.0, -490.0, -490.0, -490.0, -490.0, -490.0, -486.0, -468.0, -457.0, -438.0, -402.0, -357.0, -311.0, -262.0, -216.0, -175.0, -141.0, -124.0, -106.0, -99.0, -97.0, -93.0, -93.0, -106.0, -106.0, -106.0, -106.0, -106.0, -106.0, -106.0, -106.0, -105.0, -101.0, -92.0, -83.0, -73.0, -54.0, -32.0, -10.0, 6.0, 22.0, 41.0, 60.0, 84.0, 99.0, 107.0, 113.0, 117.0, 120.0, 134.0, 138.0, 151.0, 172.0, 206.0, 230.0, 262.0, 286.0, 308.0, 329.0, 343.0, 351.0, 354.0, 354.0, 354.0, 354.0]	[0.009869754048850155, 0.01433405195348314, 0.019228088453019154, 0.03368423531901499, 0.049050035362597555, 0.06616994710748259, 0.08232013101769553, 0.09923080546468555, 0.11573290398155223, 0.13278181840541947, 0.1489634049776214, 0.16615943404212885, 0.18267006589121593, 0.1993790123724466, 0.2158623375598836, 0.23273444134792953, 0.2492522411939717, 0.2661663289745775, 0.2824684061924927, 0.29947055795673805, 0.3160180537997803, 0.33269901095263776, 0.349244117462149, 0.36598583193881495, 0.3823438878134766, 0.39918902627141506, 0.4159590714098158, 0.43276051921020553, 0.44921687906753505, 0.4661255055143556, 0.48257708670826105, 0.4994734251577029, 0.5159103290188796, 0.5327721928078972, 0.5489391020491894, 0.5662361657632573, 0.5822778056917741, 0.5991529814782552, 0.6160875492550986, 0.6323896264730138, 0.6493921195706207, 0.6657337914493837, 0.6828001138692343, 0.6992230230662244, 0.7162026468358818, 0.7325624093773513, 0.7494860544884432, 0.7659676730090723, 0.7828363634635025, 0.7991974913384183, 0.8162027151010989, 0.832378499007973, 0.8495325440799206, 0.8656950159893313, 0.8827630450759898, 0.8993200982495182, 0.9161259833817894, 0.9325482099120563, 0.9494868736874196, 0.9657073722537461, 0.9829064733185078, 0.9992266411991295, 1.0164847929208918, 1.0325755848407425, 1.04964770992774, 1.0656726245251775, 1.0830638962252124]
29	inanimate/n73.jpg	inanimate	animate	left	1.548	[0.0, 0.0, 0.0, 0.0, 0.0, 0.0, 0.0, 0.0, 0.0, 0.0, 0.0, 2.0, 10.0, 20.0, 31.0, 41.0, 60.0, 71.0, 86.0, 103.0, 124.0, 152.0, 181.0, 214.0, 253.0, 298.0, 343.0, 407.0, 442.0, 469.0, 491.0, 511.0, 529.0, 544.0, 555.0, 565.0, 567.0, 577.0, 580.0, 585.0, 585.0, 585.0, 585.0, 585.0, 587.0, 591.0, 595.0, 601.0, 606.0, 608.0, 608.0, 608.0, 608.0, 608.0, 603.0, 571.0, 492.0, 384.0, 254.0, 119.0, 11.0, -123.0, -160.0, -254.0, -297.0, -321.0, -334.0, -334.0, -334.0, -334.0, -305.0, -233.0, -118.0, 14.0, 138.0, 252.0, 261.0, 261.0, 249.0, 199.0, 99.0, -36.0, -196.0, -361.0, -531.0, -680.0, -798.0, -904.0, -929.0, -934.0, -934.0, -934.0, -934.0, -934.0]	[-490.0, -490.0, -490.0, -490.0, -490.0, -490.0, -490.0, -490.0, -490.0, -490.0, -490.0, -485.0, -475.0, -462.0, -446.0, -424.0, -364.0, -316.0, -269.0, -226.0, -187.0, -144.0, -102.0, -58.0, -12.0, 39.0, 88.0, 151.0, 190.0, 218.0, 240.0, 257.0, 271.0, 285.0, 299.0, 312.0, 315.0, 325.0, 328.0, 333.0, 333.0, 333.0, 333.0, 333.0, 334.0, 335.0, 337.0, 338.0, 340.0, 341.0, 341.0, 341.0, 341.0, 341.0, 341.0, 341.0, 341.0, 341.0, 341.0, 341.0, 341.0, 346.0, 353.0, 366.0, 370.0, 373.0, 373.0, 373.0, 373.0, 373.0, 373.0, 367.0, 364.0, 364.0, 364.0, 364.0, 364.0, 364.0, 365.0, 372.0, 388.0, 407.0, 413.0, 413.0, 413.0, 413.0, 413.0, 421.0, 424.0, 426.0, 426.0, 426.0, 426.0, 426.0]	[0.010472855810803594, 0.015119084351681522, 0.021513280593353556, 0.03626058474401361, 0.05282685391648556, 0.06965253637827118, 0.08634441619506106, 0.10300762401857355, 0.11923938658219413, 0.13633096766534436, 0.15254737023133202, 0.16962666331528453, 0.1858475032131537, 0.2030353402806213, 0.21919030285607732, 0.23636687592443195, 0.2525747451600182, 0.26978818222050904, 0.2859943447892874, 0.3030545232104487, 0.319210851119351, 0.3364372588457627, 0.35257617875868164, 0.36968755717134627, 0.38587562907559914, 0.4030050981527893, 0.41946111667675723, 0.4363130818019272, 0.45272643366661214, 0.4698064094191068, 0.48613442796522577, 0.5031082490677363, 0.5193447902966, 0.5363298753982235, 0.5552612428346038, 0.5696149897175928, 0.588494133162385, 0.6028646053764533, 0.6220045274440054, 0.6362698690081743, 0.6553630284161045, 0.6696403166461096, 0.687060943006145, 0.703031585613644, 0.7193220575009036, 0.7365197932322189, 0.7532468303779751, 0.7696175155833771, 0.7860769474409608, 0.8027193339348742, 0.8226859651931591, 0.8359433495970734, 0.855638962235389, 0.869515525200768, 0.8889100818905717, 0.9025316689003375, 0.9194812553396332, 0.9362164844842482, 0.9541712974205439, 0.969469854808267, 0.9872284011107695, 1.0027604304614215, 1.019706944902282, 1.035875560808563, 1.0532937978368864, 1.0695177097350097, 1.0866280641475896, 1.102776200057633, 1.1197367091626802, 1.13607769837472, 1.1531979514529667, 1.169153916729556, 1.1863939777867927, 1.202754764328347, 1.2196200414491614, 1.236101318636429, 1.2529611344270961, 1.2695188702673477, 1.286356840726512, 1.302507024636725, 1.3196013363867678, 1.335863136277112, 1.352969394691172, 1.3694960692046152, 1.3863712449910963, 1.4026135888852878, 1.4197451059626474, 1.4359147458690131, 1.452959905625903, 1.4694565428108035, 1.4863457132614712, 1.5027638437932183, 1.5195144329354662, 1.5358748781418399]
30	animate/a21.jpg	inanimate	animate	right	1.013	[0.0, 0.0, 0.0, 0.0, 0.0, 2.0, 4.0, 6.0, 7.0, 7.0, 7.0, 8.0, 8.0, 8.0, 8.0, 8.0, 8.0, -9.0, -34.0, -57.0, -77.0, -99.0, -117.0, -127.0, -129.0, -132.0, -134.0, -134.0, -134.0, -134.0, -134.0, -134.0, -134.0, -135.0, -136.0, -136.0, -136.0, -111.0, -103.0, -82.0, -31.0, 15.0, 67.0, 120.0, 179.0, 236.0, 291.0, 346.0, 399.0, 453.0, 514.0, 531.0, 568.0, 621.0, 646.0, 667.0, 683.0, 691.0, 693.0, 693.0, 693.0]	[-490.0, -490.0, -490.0, -490.0, -490.0, -488.0, -483.0, -478.0, -475.0, -474.0, -473.0, -472.0, -470.0, -462.0, -452.0, -436.0, -412.0, -353.0, -299.0, -242.0, -196.0, -157.0, -128.0, -110.0, -102.0, -96.0, -96.0, -96.0, -96.0, -96.0, -96.0, -96.0, -96.0, -97.0, -99.0, -99.0, -99.0, -86.0, -80.0, -68.0, -38.0, -8.0, 31.0, 74.0, 124.0, 172.0, 225.0, 280.0, 325.0, 370.0, 414.0, 427.0, 450.0, 479.0, 489.0, 499.0, 505.0, 509.0, 510.0, 510.0, 510.0]	[0.004850755440202192, 0.010427458488265984, 0.02728454361022159, 0.04157070650580863, 0.06066898591416248, 0.07491487148217857, 0.09411759887188964, 0.10822490312966693, 0.12496354560789769, 0.14145506279237452, 0.15780936400187784, 0.1746671317905566, 0.19113134231520235, 0.20797101944117458, 0.22454923527766368, 0.2412390670961031, 0.2593645466695307, 0.274756288043136, 0.2916123491650069, 0.30831412764928245, 0.32520705276510853, 0.34155555130928406, 0.35831501511529495, 0.37488913495326415, 0.39467588357547356, 0.4081636679402436, 0.427882832575051, 0.4415283129128511, 0.4584338673612365, 0.4748939818855433, 0.4942329012519622, 0.5082081095333706, 0.5276941435404296, 0.541518141180859, 0.558592996934749, 0.5751114794493333, 0.591638495294319, 0.6078412445294816, 0.6248942549518688, 0.6414810041205783, 0.6581882439368201, 0.6744961238200631, 0.6916191075652023, 0.708130080745832, 0.7251738751710946, 0.7411639737747464, 0.7582681841904559, 0.7747883733700291, 0.7915311118467798, 0.8078516210607631, 0.8249445674773597, 0.8412957966866088, 0.858252209793136, 0.8758882174497558, 0.8916144654322125, 0.9083561799088784, 0.9250299690629618, 0.9412815289560967, 0.9582444273928559, 0.9744751659563917, 0.9913540964098502]
31	animate/a77.jpg	inanimate	animate	right	0.998	[0.0, 0.0, 0.0, 0.0, 0.0, 0.0, 0.0, 0.0, 0.0, -2.0, -4.0, -14.0, -21.0, -31.0, -40.0, -47.0, -53.0, -58.0, -63.0, -68.0, -68.0, -68.0, -68.0, -67.0, -60.0, -50.0, -38.0, -23.0, 8.0, 54.0, 119.0, 201.0, 225.0, 296.0, 320.0, 398.0, 446.0, 484.0, 513.0, 541.0, 562.0, 579.0, 586.0, 587.0, 587.0, 592.0, 598.0, 618.0, 634.0, 649.0, 660.0, 672.0, 682.0, 692.0, 700.0, 706.0, 710.0, 715.0, 717.0, 718.0]	[-490.0, -490.0, -490.0, -490.0, -490.0, -490.0, -488.0, -480.0, -469.0, -457.0, -440.0, -408.0, -382.0, -349.0, -316.0, -284.0, -248.0, -218.0, -187.0, -142.0, -129.0, -80.0, -63.0, -16.0, 10.0, 31.0, 49.0, 64.0, 79.0, 97.0, 116.0, 140.0, 147.0, 167.0, 171.0, 190.0, 202.0, 213.0, 224.0, 232.0, 241.0, 248.0, 251.0, 252.0, 252.0, 255.0, 259.0, 272.0, 282.0, 291.0, 300.0, 311.0, 321.0, 332.0, 346.0, 355.0, 364.0, 372.0, 375.0, 376.0]	[0.004261272873918642, 0.009803501261558267, 0.023228821635711938, 0.04025930406351108, 0.05660711993914447, 0.07376969834513147, 0.08990793558950827, 0.10666296206363768, 0.12372006848636374, 0.13992145238808007, 0.1572127134368202, 0.17334105201734928, 0.19046198776231904, 0.2067278836530022, 0.22380512873860425, 0.2401577232812997, 0.25734419501350203, 0.27335170161495626, 0.29082284529977187, 0.3065828852777486, 0.32410283962053654, 0.34000316757374094, 0.35748011392388435, 0.3733609858809359, 0.39077956424080185, 0.4067300681854249, 0.42394145724756527, 0.4400377105012012, 0.4573306782167492, 0.4733528621491132, 0.4907181925191253, 0.5066946377919521, 0.5240125228356192, 0.540036413434791, 0.5602187673230219, 0.5733706797454943, 0.5936380256207485, 0.6067018740577623, 0.6270306599217292, 0.6401539003472863, 0.6599133423096646, 0.6735021613239951, 0.6928769206824654, 0.7065869130092324, 0.7253366911427293, 0.7399652113126649, 0.7576978162869636, 0.7735179309202067, 0.7904108560378518, 0.8067344372520893, 0.8236942636904132, 0.8401939728737489, 0.8569957620075002, 0.8732517592325166, 0.8903467536492826, 0.906894932157229, 0.9237257346176193, 0.9401861904752877, 0.9569866142755927, 0.9735098754554201]
32	animate/a35.jpg	animate	inanimate	left	1.116	[0.0, 0.0, -1.0, -2.0, -2.0, -2.0, -2.0, -2.0, -2.0, -2.0, -3.0, -2.0, 1.0, 5.0, 7.0, 10.0, 10.0, 10.0, 9.0, 4.0, -7.0, -9.0, -19.0, -24.0, -32.0, -34.0, -34.0, -34.0, -34.0, -34.0, -34.0, -34.0, -43.0, -51.0, -58.0, -58.0, -54.0, -47.0, -45.0, -40.0, -27.0, -10.0, 18.0, 49.0, 74.0, 80.0, 80.0, 80.0, 73.0, 59.0, 37.0, -8.0, -66.0, -133.0, -212.0, -349.0, -396.0, -529.0, -600.0, -665.0, -721.0, -760.0, -781.0, -790.0, -790.0, -790.0, -790.0]	[-490.0, -490.0, -490.0, -490.0, -490.0, -490.0, -490.0, -490.0, -490.0, -490.0, -488.0, -485.0, -477.0, -464.0, -448.0, -429.0, -405.0, -381.0, -353.0, -327.0, -292.0, -281.0, -259.0, -246.0, -230.0, -225.0, -224.0, -224.0, -224.0, -224.0, -224.0, -224.0, -241.0, -259.0, -277.0, -277.0, -277.0, -272.0, -267.0, -257.0, -240.0, -222.0, -196.0, -165.0, -135.0, -112.0, -88.0, -69.0, -48.0, -25.0, -1.0, 28.0, 56.0, 85.0, 108.0, 155.0, 174.0, 232.0, 267.0, 299.0, 331.0, 359.0, 380.0, 397.0, 401.0, 401.0, 401.0]	[0.0019432786029938143, 0.006480280495452462, 0.015405121639560093, 0.0327079880189558, 0.04889674258993182, 0.06619517163744604, 0.08213543558304082, 0.09953148594831873, 0.11566972319451452, 0.13268791762311594, 0.14897975484200288, 0.166084306589255, 0.1823129971526214, 0.19925575692832354, 0.21554930081401835, 0.23266784722545708, 0.24918530573995668, 0.26599323887239734, 0.28219496410747524, 0.29936061451007845, 0.3157353957158193, 0.3326904434889002, 0.34887715005970676, 0.3660393871305132, 0.3822554483631393, 0.3995569494109077, 0.4156060986715602, 0.4327499037444795, 0.4488782423268276, 0.46602375406655483, 0.48219578330645163, 0.4993546070454613, 0.5156112869372009, 0.5328967453206133, 0.5489008385884517, 0.5660006116704608, 0.5822542195637652, 0.5993819819741475, 0.6155779045420786, 0.6326531016293302, 0.6488872535246628, 0.6660569999276049, 0.6822703304933384, 0.6995052715519705, 0.7155789968091995, 0.7327330418811471, 0.7489525164473889, 0.7660676495252119, 0.7824181960677379, 0.7994005505042878, 0.8157572410455032, 0.8326877128220076, 0.8491450966812408, 0.8660257337996882, 0.8849881625628768, 0.8992391681313165, 0.9182579168846132, 0.932644090429676, 0.9502906794186856, 0.966100895386262, 0.9849151855087257, 0.9992672257267259, 1.0160727695256355, 1.032740756014391, 1.04894248124765, 1.0657046757205535, 1.0854958616764634]
33	animate/a42.jpg	animate	inanimate	left	1.073	[0.0, 0.0, 0.0, 0.0, 0.0, 0.0, 0.0, 0.0, 0.0, 0.0, 1.0, 1.0, 1.0, 1.0, 1.0, 1.0, 1.0, 2.0, 5.0, 12.0, 21.0, 37.0, 62.0, 101.0, 153.0, 228.0, 306.0, 389.0, 519.0, 588.0, 652.0, 699.0, 738.0, 760.0, 776.0, 785.0, 791.0, 791.0, 794.0, 795.0, 796.0, 797.0, 797.0, 796.0, 795.0, 794.0, 791.0, 784.0, 713.0, 661.0, 468.0, 390.0, 144.0, -34.0, -217.0, -393.0, -547.0, -661.0, -734.0, -767.0, -780.0, -780.0, -780.0, -780.0, -780.0]	[-490.0, -490.0, -490.0, -490.0, -490.0, -490.0, -490.0, -485.0, -481.0, -477.0, -474.0, -472.0, -471.0, -471.0, -471.0, -471.0, -471.0, -461.0, -447.0, -427.0, -399.0, -359.0, -314.0, -261.0, -202.0, -136.0, -70.0, -1.0, 105.0, 163.0, 216.0, 259.0, 298.0, 325.0, 345.0, 359.0, 368.0, 375.0, 391.0, 398.0, 411.0, 428.0, 435.0, 441.0, 444.0, 446.0, 449.0, 451.0, 455.0, 455.0, 461.0, 461.0, 461.0, 461.0, 461.0, 461.0, 461.0, 465.0, 476.0, 480.0, 483.0, 483.0, 483.0, 483.0, 483.0]	[0.009152612839898211, 0.01628545428866346, 0.021651213372024358, 0.03267661949212197, 0.049890056552612805, 0.06590336582121381, 0.08320828020077897, 0.099408298769049, 0.11650431718408072, 0.13274358907983697, 0.14989251415317995, 0.16625603135980782, 0.18313496181326627, 0.19944420702995558, 0.21651564945022983, 0.23272863868260174, 0.2498608384248655, 0.26604379033051373, 0.2832125127333711, 0.299391709972042, 0.31673382967892394, 0.33275567227792635, 0.34988309335494705, 0.3661093945847824, 0.38318561567029974, 0.3995679062081763, 0.41643796199605276, 0.4327468658793805, 0.4499155882822379, 0.46609922285460925, 0.48339116657007253, 0.49957548380734806, 0.5165114169176377, 0.5326895901562239, 0.5497316779146786, 0.5661603897769965, 0.5831963335367618, 0.6022345382862113, 0.616523431848691, 0.6326343624314177, 0.6494842795564182, 0.6667762232718815, 0.6830864924886555, 0.6998323029638414, 0.7161954788371077, 0.7334485105602653, 0.7494877611552511, 0.7696165257202665, 0.7828261234662932, 0.8026418854169606, 0.8161631204420701, 0.8363990636553353, 0.8496806827224646, 0.8699575859282049, 0.8830262130322808, 0.9027702949952072, 0.916284020688181, 0.9348167108601046, 0.9496503723275964, 0.9670757773546939, 0.982986003971746, 1.00058719563458, 1.0160574436613388, 1.033738165977411, 1.0496972032524354]
34	inanimate/n16.jpg	inanimate	animate	left	1.162	[0.0, 0.0, 0.0, 0.0, 0.0, 0.0, 0.0, 0.0, 0.0, 0.0, 0.0, -1.0, -1.0, -1.0, -2.0, -2.0, -2.0, -2.0, -2.0, -2.0, -2.0, 1.0, 8.0, 15.0, 27.0, 44.0, 87.0, 139.0, 209.0, 327.0, 368.0, 472.0, 537.0, 590.0, 620.0, 640.0, 653.0, 662.0, 667.0, 673.0, 677.0, 683.0, 699.0, 711.0, 721.0, 725.0, 729.0, 731.0, 731.0, 731.0, 731.0, 731.0, 722.0, 682.0, 550.0, 434.0, 301.0, 149.0, -24.0, -211.0, -383.0, -537.0, -657.0, -746.0, -816.0, -829.0, -829.0, -829.0, -829.0, -829.0]	[-490.0, -490.0, -490.0, -490.0, -490.0, -490.0, -490.0, -490.0, -490.0, -490.0, -490.0, -481.0, -473.0, -466.0, -459.0, -454.0, -454.0, -451.0, -447.0, -437.0, -425.0, -408.0, -388.0, -367.0, -342.0, -308.0, -255.0, -196.0, -139.0, -48.0, -19.0, 57.0, 102.0, 141.0, 162.0, 179.0, 190.0, 201.0, 211.0, 221.0, 231.0, 246.0, 279.0, 303.0, 326.0, 344.0, 359.0, 368.0, 371.0, 372.0, 372.0, 372.0, 377.0, 389.0, 409.0, 423.0, 427.0, 433.0, 438.0, 438.0, 438.0, 438.0, 442.0, 451.0, 463.0, 465.0, 465.0, 465.0, 465.0, 465.0]	[0.0036734969726239797, 0.009072024051420158, 0.023623744233191246, 0.03949301085958723, 0.056463077295120456, 0.07279621584166307, 0.08922219703890732, 0.1056819702298526, 0.1250584362551308, 0.1388694632314582, 0.1585787292005989, 0.17237030018077348, 0.1916587022224121, 0.2055519905188703, 0.22549711778083292, 0.23908525412844028, 0.2585620721383748, 0.2724167897722509, 0.2921533624048607, 0.305595066776732, 0.3241205889480625, 0.3391535890496016, 0.35698074334140983, 0.3724339247037278, 0.3892698471627227, 0.40587332166251144, 0.4225966041431093, 0.43909631332644494, 0.45596739311440615, 0.47219062234580633, 0.4893146300892113, 0.505801368608445, 0.5226465070663835, 0.5389192296224792, 0.5559616587142955, 0.5724664878980548, 0.5893764796783216, 0.6057597942162829, 0.6226742233284313, 0.6388851645624527, 0.6559712843136367, 0.6724262788375199, 0.6892239719709323, 0.7057666891487315, 0.7227193475882814, 0.7392518247670523, 0.7559792032443511, 0.7721911684784573, 0.7893612562147609, 0.8058514080676105, 0.8226084825400903, 0.8389580050825316, 0.8559478688512172, 0.8721823620799114, 0.8893483538158762, 0.9055265270562813, 0.9227061721230712, 0.9390096146744327, 0.9560291744364804, 0.9722131503403943, 0.989432390069851, 1.005542296652493, 1.0227076057235536, 1.038887144295586, 1.0559787253787363, 1.0722057092752948, 1.0894071996735875, 1.1055427062528906, 1.1226991406583693, 1.1391841725107952]
