trialIndex	stimulus	left_option	right_option	response	response_time	xTrajectory	yTrajectory	tTrajectory
0	animate/a19.jpg	animate	inanimate	left	1.996	[0.0, 0.0, 0.0, 0.0, 0.0, 0.0, 0.0, 0.0, 0.0, 0.0, 0.0, 0.0, 0.0, 0.0, 0.0, 0.0, 0.0, 0.0, 0.0, 0.0, 0.0, 0.0, 0.0, 0.0, 0.0, 0.0, 0.0, 0.0, 0.0, 0.0, 0.0, 0.0, 0.0, 0.0, 0.0, 0.0, 0.0, 0.0, 0.0, 0.0, 0.0, 2.0, 6.0, 11.0, 16.0, 22.0, 28.0, 34.0, 38.0, 43.0, 48.0, 53.0, 62.0, 73.0, 87.0, 106.0, 127.0, 149.0, 175.0, 201.0, 225.0, 259.0, 317.0, 342.0, 422.0, 479.0, 540.0, 604.0, 671.0, 729.0, 783.0, 836.0, 883.0, 915.0, 940.0, 959.0, 959.0, 959.0, 959.0, 959.0, 956.0, 942.0, 924.0, 902.0, 866.0, 855.0, 811.0, 790.0, 726.0, 690.0, 661.0, 624.0, 558.0, 458.0, 340.0, 211.0, 73.0, -59.0, -192.0, -332.0, -492.0, -530.0, -582.0, -596.0, -604.0, -606.0, -607.0, -609.0, -615.0, -631.0, -655.0, -675.0, -682.0, -683.0, -685.0, -692.0, -702.0, -707.0, -708.0, -708.0]	[-490.0, -490.0, -490.0, -490.0, -490.0, -490.0, -490.0, -490.0, -490.0, -490.0, -490.0, -490.0, -490.0, -490.0, -490.0, -490.0, -490.0, -490.0, -490.0, -490.0, -490.0, -490.0, -490.0, -490.0, -490.0, -490.0, -490.0, -490.0, -490.0, -490.0, -490.0, -490.0, -490.0, -490.0, -490.0, -490.0, -490.0, -490.0, -490.0, -490.0, -490.0, -487.0, -482.0, -477.0, -470.0, -464.0, -457.0, -448.0, -440.0, -427.0, -413.0, -398.0, -372.0, -350.0, -326.0, -294.0, -257.0, -222.0, -181.0, -143.0, -114.0, -76.0, -16.0, 4.0, 64.0, 100.0, 135.0, 172.0, 210.0, 244.0, 278.0, 308.0, 340.0, 366.0, 390.0, 419.0, 434.0, 449.0, 459.0, 465.0, 471.0, 475.0, 478.0, 478.0, 474.0, 472.0, 460.0, 454.0, 446.0, 441.0, 436.0, 432.0, 421.0, 407.0, 401.0, 401.0, 401.0, 401.0, 401.0, 401.0, 401.0, 401.0, 401.0, 401.0, 400.0, 400.0, 400.0, 399.0, 397.0, 397.0, 397.0, 397.0, 398.0, 398.0, 398.0, 402.0, 405.0, 406.0, 406.0, 406.0]	[0.0125918100529816, 0.017703272358630784, 0.02674245397793129, 0.04018483184336219, 0.05963842591154389, 0.07379657916317228, 0.09088507658452727, 0.10688267358636949, 0.12495933016180061, 0.14041796230594628, 0.15829220839077607, 0.17376961384434253, 0.19114380702376366, 0.2071878253336763, 0.2243660933454521, 0.24041591431887355, 0.25766552092682105, 0.273788387174136, 0.29065570078091696, 0.3068727749341633, 0.324010765645653, 0.3404299089597771, 0.35735081185703166, 0.37374367253505625, 0.3906458021083381, 0.4069659588567447, 0.42396536834712606, 0.4405469861958409, 0.4573695851722732, 0.47381501115160063, 0.49062156747095287, 0.5070683587691747, 0.5239305523864459, 0.5401773225166835, 0.5573613931919681, 0.5735088354122126, 0.5906867620797129, 0.6069505988707533, 0.624013496315456, 0.6401923411758617, 0.6574405824503629, 0.6735183927376056, 0.6906690127652837, 0.7069075909093954, 0.7240274909563595, 0.7401861971738981, 0.7574678890960058, 0.7735569633659907, 0.7906731087568915, 0.8069495748641202, 0.8240165683091618, 0.8402664104360156, 0.8573402305337368, 0.8736443446250632, 0.890676522089052, 0.9071577880240511, 0.9240216883044923, 0.9404374182922766, 0.9573504705331288, 0.9736105526535539, 0.9906775460840436, 1.0093822554626968, 1.0239554696890991, 1.040376319680945, 1.0573805078311125, 1.0760661025560694, 1.0905485222028801, 1.109629721919191, 1.1239363550412236, 1.1431090320111252, 1.1573671958467457, 1.175009335463983, 1.190800425989437, 1.2080606139206793, 1.2240377309499308, 1.241445716106682, 1.2572606999310665, 1.2747369516873732, 1.2907577593578026, 1.3077827688248362, 1.3239868723321706, 1.34042751963716, 1.3570176708162762, 1.377045387052931, 1.3903836583340308, 1.4100133802567143, 1.4237568138632923, 1.4416863558872137, 1.456873969596927, 1.4753032232110854, 1.4901607678621076, 1.508577050815802, 1.5235059340775479, 1.5415269533696119, 1.5569483802100876, 1.5745348825294059, 1.590421887638513, 1.6077650195074966, 1.623812451143749, 1.641446057430585, 1.656847004283918, 1.674201058820472, 1.6904922022513347, 1.7073974038212327, 1.7237018592422828, 1.7404875942447688, 1.7572419266216457, 1.7740385842917021, 1.79043690628896, 1.8074315371195553, 1.823761251187534, 1.84071014339861, 1.8568906949221855, 1.874009570979979, 1.8904659195977729, 1.907365318518714, 1.923545528712566, 1.9407053647300927, 1.9572156439826358, 1.9739966003253357]
1	animate/a12.jpg	inanimate	animate	right	1.126	[0.0, 0.0, 0.0, 0.0, 0.0, 0.0, 0.0, 0.0, 0.0, 0.0, 0.0, 0.0, 0.0, 0.0, 0.0, 0.0, 0.0, 0.0, 0.0, 0.0, 0.0, 0.0, 0.0, 0.0, 0.0, 0.0, 0.0, 0.0, 0.0, 0.0, 1.0, 1.0, 1.0, 1.0, 1.0, 1.0, 1.0, 2.0, 2.0, 3.0, 5.0, 10.0, 15.0, 22.0, 35.0, 52.0, 79.0, 126.0, 175.0, 228.0, 294.0, 378.0, 471.0, 578.0, 669.0, 749.0, 820.0, 884.0, 938.0, 959.0, 959.0, 959.0, 959.0, 959.0, 959.0, 959.0, 959.0, 959.0]	[-490.0, -490.0, -490.0, -490.0, -490.0, -490.0, -490.0, -490.0, -490.0, -490.0, -490.0, -490.0, -490.0, -490.0, -490.0, -490.0, -490.0, -490.0, -490.0, -490.0, -490.0, -490.0, -490.0, -490.0, -490.0, -490.0, -490.0, -490.0, -490.0, -490.0, -488.0, -487.0, -486.0, -484.0, -484.0, -482.0, -481.0, -479.0, -475.0, -467.0, -457.0, -441.0, -423.0, -403.0, -354.0, -297.0, -235.0, -136.0, -60.0, 16.0, 94.0, 170.0, 243.0, 307.0, 362.0, 404.0, 438.0, 464.0, 487.0, 501.0, 506.0, 508.0, 508.0, 508.0, 508.0, 508.0, 508.0, 508.0]	[0.005665923687047325, 0.01199287295457907, 0.026156487539992668, 0.043277411605231464, 0.059371947194449604, 0.0765136925765546, 0.09273486273013987, 0.10991005874529947, 0.12604623696825001, 0.14314360904973, 0.15947502978087869, 0.17653929254447576, 0.19271472407854162, 0.2098834347561933, 0.22604930897068698, 0.24318013168522157, 0.25950404308969155, 0.27655089787731413, 0.2927092627505772, 0.3100226986425696, 0.32603941031266004, 0.34325181161693763, 0.359526912405272, 0.3766113138262881, 0.39274680938979145, 0.40994043738464825, 0.4261520502186613, 0.4431483877124265, 0.45950745641312096, 0.47650550058460794, 0.4929147452348843, 0.5100424959528027, 0.5290991196961841, 0.5431091344071319, 0.5620882755465573, 0.5765502152062254, 0.5956338042597054, 0.6098653441149509, 0.6287325280136429, 0.6431036730791675, 0.6606993914028862, 0.6765665991988499, 0.6934421047917567, 0.7098776321072364, 0.7260452129703481, 0.7428452839667443, 0.7620920302142622, 0.7760406049783342, 0.7956573562405538, 0.8094926084304461, 0.8275614143494749, 0.8429227665619692, 0.8598528854490723, 0.876273052781471, 0.8938793524139328, 0.9094093231688021, 0.9265596018667566, 0.9429483665444423, 0.9599494827125454, 0.9761880608421052, 0.9932079503196292, 1.0097366615518695, 1.0265353672148194, 1.0429773798532551, 1.0598702934366884, 1.0762781727680704, 1.0932117049815133, 1.109682730937493]
2	animate/a61.jpg	animate	inanimate	left	1.451	[0.0, 0.0, 0.0, 0.0, 0.0, 0.0, 0.0, 0.0, 0.0, 0.0, 0.0, 0.0, 0.0, 0.0, 0.0, 0.0, 0.0, 0.0, 5.0, 9.0, 13.0, 18.0, 21.0, 23.0, 25.0, 28.0, 33.0, 37.0, 44.0, 47.0, 49.0, 54.0, 60.0, 68.0, 80.0, 101.0, 133.0, 168.0, 215.0, 252.0, 315.0, 339.0, 418.0, 470.0, 522.0, 562.0, 593.0, 623.0, 647.0, 665.0, 680.0, 689.0, 693.0, 694.0, 694.0, 694.0, 692.0, 652.0, 570.0, 458.0, 323.0, 185.0, 63.0, -40.0, -135.0, -235.0, -285.0, -318.0, -344.0, -364.0, -383.0, -403.0, -427.0, -458.0, -494.0, -533.0, -585.0, -617.0, -638.0, -653.0, -672.0, -693.0, -709.0, -720.0, -721.0, -721.0, -721.0]	[-490.0, -490.0, -490.0, -490.0, -490.0, -490.0, -490.0, -490.0, -490.0, -490.0, -490.0, -490.0, -490.0, -490.0, -490.0, -487.0, -475.0, -464.0, -450.0, -434.0, -414.0, -395.0, -376.0, -360.0, -342.0, -327.0, -306.0, -298.0, -269.0, -248.0, -226.0, -203.0, -180.0, -155.0, -128.0, -94.0, -51.0, -2.0, 64.0, 109.0, 172.0, 194.0, 250.0, 287.0, 322.0, 354.0, 371.0, 392.0, 407.0, 420.0, 428.0, 433.0, 435.0, 436.0, 436.0, 436.0, 436.0, 426.0, 414.0, 406.0, 406.0, 406.0, 406.0, 406.0, 406.0, 406.0, 404.0, 399.0, 395.0, 390.0, 387.0, 386.0, 386.0, 386.0, 386.0, 387.0, 402.0, 414.0, 422.0, 428.0, 433.0, 437.0, 439.0, 441.0, 441.0, 441.0, 441.0]	[0.004014554448076524, 0.009791957520064898, 0.02302407422394026, 0.03973130263329949, 0.05694438661157619, 0.07310753014462534, 0.09027965416316874, 0.10648682966711931, 0.1236084363918053, 0.13975383061915636, 0.1572154050518293, 0.1730675941798836, 0.19013356362120248, 0.20643153371929657, 0.22359239374054596, 0.23976543593744282, 0.2569529199390672, 0.2731846714159474, 0.29026019817683846, 0.30873928641085513, 0.3236169697192963, 0.3398217558860779, 0.35816874823649414, 0.37325635136221536, 0.3902414248586865, 0.40910690209420864, 0.42346541784354486, 0.4426377534837229, 0.456845400025486, 0.47430663312843535, 0.4902127528912388, 0.5075019541400252, 0.5236121910565998, 0.5411236001091311, 0.5570017305581132, 0.5736243083811132, 0.5902424488594988, 0.6063827230827883, 0.6230749328387901, 0.6426937321084552, 0.6563944990775781, 0.6763716980349272, 0.690080657004728, 0.7079641190794064, 0.7233333219628548, 0.7408170830458403, 0.7564716403430793, 0.7737714229151607, 0.7899328597995918, 0.8068448880221695, 0.8232766606670339, 0.8402276008710032, 0.8566771228361176, 0.8736519563535694, 0.8899830357549945, 0.9069643545954023, 0.9232633486826671, 0.9401521662803134, 0.9566051015717676, 0.9735236151318531, 0.9899123798095388, 1.0069452399475267, 1.023180063421023, 1.040153190275305, 1.056744365443592, 1.0734870924934512, 1.0897847212472698, 1.106936706622946, 1.1230769808462355, 1.1401927849074127, 1.156407469738042, 1.1735417057789164, 1.1897096279863035, 1.2069547972641885, 1.223053087524022, 1.2402105342189316, 1.2565040669869632, 1.273454665861209, 1.2897499052778585, 1.3068732186657144, 1.323157876773621, 1.340226235537557, 1.3567232027999125, 1.373415753885638, 1.3897997399035376, 1.4069042799819726, 1.4253779068822041]
3	inanimate/n77.jpg	inanimate	animate	left	1.581	[0.0, 0.0, 0.0, 0.0, 0.0, 0.0, 0.0, 0.0, 0.0, 0.0, 0.0, 0.0, 0.0, 0.0, 0.0, 0.0, 0.0, 0.0, 0.0, 0.0, 4.0, 11.0, 17.0, 26.0, 39.0, 52.0, 66.0, 83.0, 107.0, 161.0, 200.0, 238.0, 285.0, 334.0, 379.0, 416.0, 438.0, 452.0, 459.0, 462.0, 462.0, 454.0, 443.0, 431.0, 427.0, 427.0, 427.0, 427.0, 426.0, 415.0, 392.0, 357.0, 316.0, 288.0, 288.0, 295.0, 348.0, 450.0, 569.0, 705.0, 826.0, 915.0, 959.0, 959.0, 956.0, 915.0, 815.0, 672.0, 504.0, 335.0, 173.0, 30.0, -81.0, -171.0, -263.0, -282.0, -325.0, -352.0, -382.0, -408.0, -441.0, -485.0, -531.0, -580.0, -627.0, -663.0, -687.0, -703.0, -717.0, -728.0, -740.0, -747.0, -748.0, -748.0, -748.0]	[-490.0, -490.0, -490.0, -490.0, -490.0, -490.0, -490.0, -490.0, -490.0, -490.0, -490.0, -490.0, -490.0, -490.0, -490.0, -490.0, -490.0, -490.0, -490.0, -489.0, -481.0, -469.0, -458.0, -442.0, -420.0, -397.0, -370.0, -339.0, -296.0, -217.0, -165.0, -110.0, -47.0, 19.0, 82.0, 141.0, 185.0, 220.0, 242.0, 261.0, 276.0, 296.0, 308.0, 319.0, 322.0, 323.0, 323.0, 323.0, 323.0, 325.0, 325.0, 328.0, 328.0, 328.0, 328.0, 328.0, 328.0, 328.0, 328.0, 333.0, 343.0, 356.0, 364.0, 365.0, 367.0, 377.0, 392.0, 411.0, 435.0, 450.0, 452.0, 452.0, 452.0, 452.0, 452.0, 452.0, 446.0, 433.0, 420.0, 414.0, 413.0, 413.0, 413.0, 418.0, 426.0, 431.0, 434.0, 436.0, 438.0, 438.0, 438.0, 438.0, 438.0, 438.0, 438.0]	[0.015792148653417826, 0.020916581619530916, 0.02994859524187632, 0.04654420774022583, 0.06668763588822912, 0.07981905934866518, 0.09954606118844822, 0.11302393767982721, 0.13049404544290155, 0.14633019192842767, 0.16344531333015766, 0.17997641388501506, 0.19904498428513762, 0.21300448170222808, 0.23138970334548503, 0.24664285300241318, 0.26582372195844073, 0.279935112586827, 0.2970451139844954, 0.31309630029136315, 0.33024657898931764, 0.346583119709976, 0.3635060706001241, 0.3800692564691417, 0.3968007195217069, 0.4131829988764366, 0.4301527124043787, 0.4465892637090292, 0.46362383051018696, 0.47997334189130925, 0.4968457754875999, 0.5135147746041184, 0.5301288190821651, 0.54656980773143, 0.5635705825552577, 0.5799456939130323, 0.5968113008566434, 0.6133918947016355, 0.6301486164011294, 0.6466872262972174, 0.6635074359364808, 0.6798135980207007, 0.6968099355144659, 0.7133222627599025, 0.7301612457231386, 0.7464182558469474, 0.7635907211952144, 0.7796924247959396, 0.7968075461831177, 0.813020524350577, 0.8301093631016556, 0.8463281439326238, 0.8635183586011408, 0.8796828674676362, 0.8968597701459657, 0.9131031269498635, 0.9302059603505768, 0.9463694452279015, 0.9636013025301509, 0.9796931074524764, 0.9966911516239634, 1.0132652601459995, 1.0301260884298244, 1.0491530161816627, 1.063565462551196, 1.079870941975969, 1.096743034242536, 1.113519894599449, 1.130186163034523, 1.1464786717988318, 1.1636262198298937, 1.1823616491747089, 1.1967358662514016, 1.215719103376614, 1.2300578218128067, 1.249049933612696, 1.263394796027569, 1.2824155798007268, 1.2966996849427233, 1.3144705071172211, 1.330227805665345, 1.346899535448756, 1.3634548706468195, 1.3796722861443413, 1.396615717021632, 1.4130618256458547, 1.4298209366825176, 1.4473098177550128, 1.4633415480784606, 1.4802348029916175, 1.4966269810101949, 1.5135076066071633, 1.5298707713081967, 1.5468241008347832, 1.563432342663873]
4	inanimate/n70.jpg	animate	inanimate	right	1.26	[0.0, 0.0, 0.0, 0.0, 0.0, 0.0, 0.0, 0.0, 0.0, 0.0, 0.0, 0.0, 0.0, 0.0, 0.0, 0.0, 0.0, 0.0, 0.0, 0.0, 0.0, 0.0, 3.0, 7.0, 11.0, 17.0, 23.0, 31.0, 41.0, 51.0, 79.0, 118.0, 188.0, 250.0, 293.0, 325.0, 352.0, 373.0, 390.0, 401.0, 411.0, 420.0, 429.0, 436.0, 443.0, 449.0, 455.0, 462.0, 467.0, 472.0, 477.0, 481.0, 481.0, 481.0, 483.0, 483.0, 485.0, 487.0, 501.0, 533.0, 587.0, 650.0, 721.0, 781.0, 821.0, 852.0, 859.0, 862.0, 862.0, 862.0, 862.0, 857.0, 852.0, 852.0, 852.0, 852.0]	[-490.0, -490.0, -490.0, -490.0, -490.0, -490.0, -490.0, -490.0, -490.0, -490.0, -490.0, -490.0, -490.0, -490.0, -490.0, -490.0, -490.0, -490.0, -490.0, -490.0, -490.0, -488.0, -482.0, -474.0, -466.0, -458.0, -448.0, -440.0, -429.0, -417.0, -386.0, -342.0, -271.0, -201.0, -154.0, -117.0, -83.0, -52.0, -28.0, -4.0, 18.0, 46.0, 80.0, 103.0, 126.0, 148.0, 168.0, 191.0, 209.0, 225.0, 237.0, 244.0, 250.0, 252.0, 253.0, 254.0, 256.0, 258.0, 264.0, 273.0, 285.0, 297.0, 317.0, 335.0, 350.0, 367.0, 376.0, 381.0, 387.0, 390.0, 393.0, 396.0, 398.0, 398.0, 398.0, 398.0]	[0.016585065313847736, 0.02173953558667563, 0.033892698542331345, 0.04829456358856987, 0.06708938488736749, 0.08158102052402683, 0.09872822722536512, 0.11499411200929899, 0.13124566079932265, 0.1480112571589416, 0.16781062159861904, 0.18114343156048562, 0.1996645037579583, 0.2146954455965897, 0.23294686467852443, 0.24787916128116194, 0.2663715614908142, 0.2812680181232281, 0.2993921199813485, 0.31468213359767105, 0.3322194839711301, 0.3480150118266465, 0.36610907639260404, 0.38117995418724604, 0.3989606750255916, 0.4145633497100789, 0.43197440684889443, 0.4480194491625298, 0.46491543474257924, 0.4810912076063687, 0.4983814328443259, 0.5147261655656621, 0.531648433796363, 0.5477542333828751, 0.5650994132447522, 0.5811191969114589, 0.5981964303355198, 0.6147084162512328, 0.6315712925279513, 0.6480255931528518, 0.6649512747098925, 0.6814444873016328, 0.6982360249676276, 0.7146947629225906, 0.7317709723574808, 0.7480525584687712, 0.7649072427448118, 0.7812601674522739, 0.7996102317993063, 0.8147435735590989, 0.8315139485785039, 0.8481102437508525, 0.8648918827529997, 0.881285767434747, 0.8982401209650561, 0.914519659083453, 0.9317269403982209, 0.9477781266905367, 0.9649468373827403, 0.9811792715336196, 0.9983230648940662, 1.0144213551538996, 1.0316747164324624, 1.0477651560358936, 1.0648922240943648, 1.08115059955162, 1.098278691599262, 1.114419307166827, 1.1317525403719628, 1.1478071400051704, 1.1649365973862587, 1.181153671554057, 1.1982175929879304, 1.2144083845050773, 1.2318129563209368, 1.2477818813640624]
5	animate/a8.jpg	inanimate	animate	right	1.424	[0.0, 0.0, 0.0, 0.0, 0.0, 0.0, 0.0, 0.0, 0.0, 0.0, 0.0, 0.0, 0.0, 0.0, -4.0, -4.0, -4.0, -4.0, -4.0, -5.0, -5.0, -5.0, -5.0, -4.0, -1.0, 5.0, 7.0, 11.0, 18.0, 28.0, 40.0, 53.0, 62.0, 75.0, 91.0, 94.0, 105.0, 116.0, 147.0, 180.0, 222.0, 265.0, 323.0, 390.0, 457.0, 525.0, 584.0, 627.0, 666.0, 672.0, 684.0, 687.0, 689.0, 690.0, 691.0, 691.0, 691.0, 678.0, 630.0, 545.0, 439.0, 326.0, 160.0, 87.0, 53.0, 40.0, 39.0, 39.0, 48.0, 100.0, 208.0, 325.0, 498.0, 609.0, 706.0, 780.0, 822.0, 843.0, 845.0, 846.0, 846.0, 846.0, 840.0, 836.0, 836.0, 836.0]	[-490.0, -490.0, -490.0, -490.0, -490.0, -490.0, -490.0, -490.0, -490.0, -490.0, -490.0, -490.0, -490.0, -490.0, -489.0, -488.0, -488.0, -486.0, -485.0, -483.0, -481.0, -477.0, -473.0, -468.0, -462.0, -452.0, -448.0, -441.0, -433.0, -420.0, -405.0, -389.0, -379.0, -361.0, -334.0, -327.0, -309.0, -289.0, -245.0, -203.0, -155.0, -106.0, -53.0, 7.0, 65.0, 123.0, 173.0, 222.0, 282.0, 294.0, 323.0, 337.0, 346.0, 352.0, 354.0, 354.0, 354.0, 357.0, 360.0, 365.0, 365.0, 365.0, 367.0, 367.0, 367.0, 367.0, 367.0, 367.0, 367.0, 361.0, 347.0, 345.0, 345.0, 345.0, 345.0, 345.0, 347.0, 352.0, 353.0, 354.0, 354.0, 356.0, 358.0, 359.0, 359.0, 359.0]	[0.0012661407963605598, 0.011249449598835781, 0.01758561487076804, 0.03430888592265546, 0.05162198048492428, 0.06764074014790822, 0.08477122153271921, 0.10101082368055359, 0.11813106507179327, 0.13431844324804842, 0.15150148991961032, 0.1677571347245248, 0.1849224320758367, 0.20115896221250296, 0.21813823306001723, 0.23455362171807792, 0.251724380403175, 0.2704789244016865, 0.28474186689709313, 0.30371930135879666, 0.31800716117140837, 0.3347761708573671, 0.35146018862724304, 0.3690941362438025, 0.3848254934855504, 0.4020843160978984, 0.41817168369016144, 0.4343583792215213, 0.45109837560448796, 0.4694402479508426, 0.4846080643328605, 0.5036138294526609, 0.5178583399683703, 0.5370344302646117, 0.5509830050286837, 0.5679059559188318, 0.5845370670722332, 0.6016658417793224, 0.6178948626038618, 0.6347044909198303, 0.6510813089407748, 0.6681366970587987, 0.6845776856935117, 0.7015532018849626, 0.7178549266391201, 0.7347792428627145, 0.7512349088210613, 0.7680759397771908, 0.7845602777088061, 0.8014729886199348, 0.8176760681235464, 0.834693909593625, 0.8511379702395061, 0.8682414862996666, 0.8842718512896681, 0.9015613938681781, 0.9176081428449834, 0.9347734401962953, 0.9510229409934254, 0.9680814011080656, 0.9843216859153472, 1.0015078045835253, 1.0176344254869036, 1.0347765121987322, 1.0510079223458888, 1.0681182650732808, 1.0843544538947754, 1.101489372595097, 1.1176101908495184, 1.1347857281798497, 1.1509802743676119, 1.1680994917551288, 1.1844117978325812, 1.2015054152579978, 1.2177173694217345, 1.234774805532652, 1.2537952479615342, 1.2680486331373686, 1.2868690544128185, 1.3016190791531699, 1.3203555325017078, 1.3347905068512773, 1.3535105762130115, 1.3680438544688514, 1.385089002593304, 1.4016259058116702]
6	inanimate/n37.jpg	animate	inanimate	right	1.117	[0.0, 0.0, 0.0, 0.0, 0.0, 0.0, 0.0, 0.0, 0.0, 0.0, 0.0, 0.0, 0.0, 0.0, 0.0, 0.0, 0.0, 0.0, 0.0, 0.0, 0.0, 0.0, 0.0, 0.0, 0.0, 0.0, 0.0, 0.0, 0.0, 0.0, 0.0, 0.0, 0.0, 4.0, 24.0, 55.0, 83.0, 127.0, 143.0, 195.0, 243.0, 292.0, 346.0, 397.0, 441.0, 477.0, 503.0, 524.0, 544.0, 560.0, 574.0, 591.0, 604.0, 616.0, 629.0, 641.0, 650.0, 664.0, 677.0, 692.0, 706.0, 722.0, 737.0, 745.0, 750.0, 750.0, 750.0]	[-490.0, -490.0, -490.0, -490.0, -490.0, -490.0, -490.0, -490.0, -490.0, -490.0, -490.0, -490.0, -490.0, -490.0, -490.0, -490.0, -490.0, -490.0, -490.0, -490.0, -490.0, -490.0, -490.0, -490.0, -490.0, -490.0, -490.0, -490.0, -490.0, -490.0, -490.0, -490.0, -490.0, -465.0, -419.0, -358.0, -303.0, -235.0, -213.0, -148.0, -99.0, -57.0, -10.0, 36.0, 78.0, 119.0, 151.0, 176.0, 199.0, 217.0, 233.0, 254.0, 266.0, 278.0, 289.0, 298.0, 305.0, 314.0, 324.0, 333.0, 341.0, 351.0, 359.0, 364.0, 367.0, 367.0, 367.0]	[0.001131996905314736, 0.006766381426132284, 0.016980772707029246, 0.03371872109710239, 0.050393181532854214, 0.0675414122233633, 0.08375336640165187, 0.10084391181590036, 0.11700057002599351, 0.13439558450772893, 0.15036314421740826, 0.16753595089539886, 0.18378237971046474, 0.2008391331473831, 0.21710740726848599, 0.2343559898872627, 0.25269752090389375, 0.2675649642042117, 0.28632292154361494, 0.30078554386273026, 0.3197083650447894, 0.33433687522483524, 0.3520162201457424, 0.3675065962597728, 0.3850255146389827, 0.4007964665215695, 0.41734975372673944, 0.43385627830866724, 0.4536553014186211, 0.4672249964933144, 0.4866536732588429, 0.500631261325907, 0.5196626264223596, 0.5337112117704237, 0.5518964122456964, 0.5673086230963236, 0.5854866555891931, 0.600572893381468, 0.6181129744072678, 0.6340457181504462, 0.6510840396076674, 0.6672707351244753, 0.6849186774052214, 0.7004964347725036, 0.7179122705856571, 0.7338904116186313, 0.7508051705081016, 0.7672171458398225, 0.7842800432845252, 0.8003882322082063, 0.8174897002754733, 0.8338596916437382, 0.8508331598277437, 0.8672232898388756, 0.8843623045395361, 0.9005411493999418, 0.9175047189346515, 0.9339337609126233, 0.9507628452120116, 0.967254351140582, 0.9841523847280769, 1.000605320019531, 1.017474340289482, 1.0337822090368718, 1.050704135937849, 1.0672410391562153, 1.0842445446469355]
7	inanimate/n79.jpg	inanimate	animate	left	1.282	[0.0, 0.0, 0.0, 0.0, 0.0, 0.0, 0.0, 0.0, 0.0, 0.0, 0.0, 0.0, 0.0, 0.0, 0.0, 0.0, 0.0, 0.0, 0.0, 0.0, 0.0, 0.0, 0.0, 0.0, 0.0, 0.0, 0.0, 0.0, 0.0, 0.0, 0.0, 0.0, 0.0, 1.0, 18.0, 27.0, 72.0, 102.0, 145.0, 190.0, 233.0, 279.0, 321.0, 358.0, 386.0, 432.0, 447.0, 476.0, 495.0, 508.0, 513.0, 514.0, 510.0, 476.0, 391.0, 290.0, 171.0, -33.0, -102.0, -288.0, -390.0, -471.0, -534.0, -572.0, -605.0, -631.0, -651.0, -672.0, -698.0, -739.0, -782.0, -838.0, -857.0, -863.0, -863.0, -863.0, -863.0]	[-490.0, -490.0, -490.0, -490.0, -490.0, -490.0, -490.0, -490.0, -490.0, -490.0, -490.0, -490.0, -490.0, -490.0, -490.0, -490.0, -490.0, -490.0, -490.0, -490.0, -490.0, -490.0, -490.0, -490.0, -490.0, -490.0, -490.0, -490.0, -490.0, -490.0, -490.0, -490.0, -490.0, -484.0, -445.0, -426.0, -349.0, -291.0, -219.0, -146.0, -91.0, -39.0, 9.0, 52.0, 87.0, 135.0, 151.0, 181.0, 198.0, 217.0, 227.0, 236.0, 244.0, 256.0, 272.0, 286.0, 302.0, 316.0, 323.0, 335.0, 344.0, 355.0, 365.0, 371.0, 376.0, 383.0, 388.0, 394.0, 405.0, 424.0, 442.0, 467.0, 475.0, 480.0, 480.0, 480.0, 480.0]	[0.014026432821992785, 0.0193198256456526, 0.02585976672708057, 0.043171154626179487, 0.05966095389157999, 0.07651154216728173, 0.09292215216555633, 0.10985363638610579, 0.12624513173068408, 0.14322406124847475, 0.15967597253620625, 0.176588683432783, 0.1929518481483683, 0.20999870293599088, 0.22604340390535071, 0.24324249323399272, 0.2597712044516811, 0.27655523280554917, 0.29276070164632984, 0.30999324160802644, 0.3260137079341803, 0.34321382125199307, 0.3593868634488899, 0.37665899805142544, 0.3926825363741955, 0.4099130283429986, 0.4259969826089218, 0.4431769572838675, 0.4594083674310241, 0.4764954995189328, 0.49265830172225833, 0.509919855001499, 0.5260079052677611, 0.5431889039464295, 0.5594353327469435, 0.5764856008609058, 0.5927501203113934, 0.6100229375733761, 0.6261587744666031, 0.643169789284002, 0.6594595673959702, 0.6765187101700576, 0.692698579019634, 0.7100618495460367, 0.7260420385719044, 0.7430561253859196, 0.7594476207304979, 0.776514272831264, 0.7927303229953395, 0.8101045161747606, 0.8262099744315492, 0.843182418611832, 0.8597725697909482, 0.8765323634870583, 0.8928115602611797, 0.909865924375481, 0.9263714249536861, 0.9430561253830092, 0.9621560984232929, 0.9763924169383245, 0.994333905633539, 1.0100516095553758, 1.0272121282469016, 1.0431452133052517, 1.0618744986568345, 1.0764180169207975, 1.09344712238817, 1.1098925483529456, 1.1260072225995827, 1.1428376722469693, 1.162245186351356, 1.1762633930484299, 1.1956360911863158, 1.2096809218637645, 1.226738357974682, 1.2429356348293368, 1.259898863019771]
8	inanimate/n64.jpg	animate	inanimate	right	0.993	[0.0, 0.0, 0.0, 0.0, 0.0, 0.0, 0.0, 0.0, 0.0, 0.0, 0.0, 0.0, 0.0, 0.0, 0.0, 0.0, 0.0, 0.0, 0.0, 0.0, 0.0, 0.0, 0.0, 0.0, 4.0, 9.0, 15.0, 26.0, 40.0, 67.0, 92.0, 142.0, 176.0, 209.0, 244.0, 278.0, 303.0, 329.0, 350.0, 369.0, 383.0, 397.0, 409.0, 426.0, 442.0, 464.0, 491.0, 526.0, 566.0, 610.0, 651.0, 686.0, 714.0, 738.0, 757.0, 778.0, 786.0, 789.0, 791.0, 791.0]	[-490.0, -490.0, -490.0, -490.0, -490.0, -490.0, -490.0, -490.0, -490.0, -490.0, -490.0, -490.0, -490.0, -490.0, -490.0, -490.0, -490.0, -490.0, -490.0, -490.0, -490.0, -490.0, -490.0, -490.0, -482.0, -473.0, -456.0, -436.0, -412.0, -364.0, -319.0, -234.0, -173.0, -117.0, -53.0, 3.0, 48.0, 100.0, 144.0, 176.0, 204.0, 228.0, 244.0, 264.0, 279.0, 292.0, 303.0, 318.0, 328.0, 341.0, 352.0, 362.0, 371.0, 378.0, 383.0, 389.0, 393.0, 394.0, 396.0, 396.0]	[0.000501213435200043, 0.006402179060387425, 0.018260771612403914, 0.033048001656425186, 0.05197355350537691, 0.06619348804815672, 0.08490570673893671, 0.09941782236273866, 0.11672784492839128, 0.13296437506505754, 0.15151104723918252, 0.16618666138674598, 0.18495417603116948, 0.19945605166140012, 0.21835156620363705, 0.2328735804767348, 0.2501197737583425, 0.26626380265224725, 0.2824173888657242, 0.29921165719861165, 0.31861405131348874, 0.3325783273903653, 0.3519424922124017, 0.36576648040500004, 0.38454833104333375, 0.3990314333495917, 0.41596462423331104, 0.43253531942900736, 0.44966955548443366, 0.46597708290209994, 0.4828897937986767, 0.4993150811205851, 0.5159984162164619, 0.532894743126235, 0.5496548781520687, 0.5656893391424092, 0.582978199061472, 0.5992666118254419, 0.6161994613794377, 0.632376258232398, 0.6494029743771534, 0.6660231628629845, 0.6829713724000612, 0.6990249480295461, 0.7161161761032417, 0.732530199442408, 0.7496842327964259, 0.7657579470833298, 0.7828805778117385, 0.7991232519416371, 0.8161687413958134, 0.8323864982230589, 0.8495214169379324, 0.865706747121294, 0.882894572452642, 0.8990478173363954, 0.9162346186785726, 0.9325192767864792, 0.9495552089065313, 0.9657265444402583]
9	inanimate/n55.jpg	animate	inanimate	right	1.083	[0.0, 0.0, 0.0, 0.0, 0.0, 0.0, 0.0, 0.0, 0.0, 0.0, 0.0, 0.0, 0.0, 0.0, 0.0, 0.0, 0.0, 0.0, 0.0, 0.0, 0.0, 0.0, 0.0, 0.0, 0.0, 0.0, 0.0, 0.0, 0.0, 0.0, 0.0, 0.0, 0.0, 0.0, 7.0, 37.0, 85.0, 134.0, 179.0, 225.0, 268.0, 322.0, 376.0, 418.0, 446.0, 475.0, 504.0, 520.0, 538.0, 553.0, 568.0, 580.0, 597.0, 615.0, 633.0, 647.0, 653.0, 656.0, 657.0, 659.0, 661.0, 666.0, 670.0, 674.0, 675.0, 675.0]	[-490.0, -490.0, -490.0, -490.0, -490.0, -490.0, -490.0, -490.0, -490.0, -490.0, -490.0, -490.0, -490.0, -490.0, -490.0, -490.0, -490.0, -490.0, -490.0, -490.0, -490.0, -490.0, -490.0, -490.0, -490.0, -490.0, -490.0, -490.0, -490.0, -490.0, -490.0, -490.0, -490.0, -464.0, -435.0, -379.0, -309.0, -226.0, -146.0, -63.0, 21.0, 107.0, 188.0, 246.0, 283.0, 317.0, 349.0, 360.0, 375.0, 384.0, 394.0, 401.0, 408.0, 416.0, 424.0, 431.0, 433.0, 436.0, 436.0, 436.0, 437.0, 437.0, 437.0, 437.0, 437.0, 437.0]	[0.00902873682207428, 0.01350327166437637, 0.018561486023827456, 0.033308097437839024, 0.04940024370444007, 0.06658704503206536, 0.08276623123674653, 0.09990934193774592, 0.11606497614411637, 0.1333794360398315, 0.14940672903321683, 0.16657646371459123, 0.1827983165421756, 0.19991070726246107, 0.21610388811677694, 0.23343916932935826, 0.2494299396785209, 0.2666030876862351, 0.28274882324330974, 0.29990661126794294, 0.3160796534648398, 0.33338353203726, 0.34942140635394026, 0.36647952512430493, 0.38307411363348365, 0.3999953578604618, 0.4162148213508772, 0.43329717477899976, 0.44970744343299884, 0.4665303837537067, 0.4830000443616882, 0.49990114994579926, 0.5163175625930307, 0.5333115107641788, 0.5522452546138084, 0.566605135682039, 0.5853801596676931, 0.6000721578020602, 0.6172255084966309, 0.633401622690144, 0.6502221736736828, 0.666637220987468, 0.6835652918816777, 0.7000161791802384, 0.7161567947332514, 0.7328889404598158, 0.751336967383395, 0.766324559925124, 0.7844428591342876, 0.7996547074872069, 0.8178876945894444, 0.8331087589322124, 0.8502037416765234, 0.8663071519404184, 0.8831867535336642, 0.8996352514950559, 0.9165312370896572, 0.9328155538532883, 0.9498610433074646, 0.9661139574454864, 0.9834161293401849, 0.9996970327774761, 1.0165913116943557, 1.0331039802695159, 1.0498907392902765, 1.0663501599046867]
10	inanimate/n43.jpg	inanimate	animate	left	1.444	[0.0, 0.0, 0.0, 0.0, 0.0, 0.0, 0.0, 0.0, 0.0, 0.0, 0.0, 0.0, 0.0, 0.0, 0.0, 0.0, 0.0, 0.0, 0.0, 0.0, 0.0, 0.0, 0.0, 0.0, 0.0, 0.0, 0.0, 0.0, 17.0, 70.0, 132.0, 193.0, 252.0, 317.0, 378.0, 434.0, 491.0, 565.0, 610.0, 651.0, 692.0, 728.0, 760.0, 792.0, 818.0, 838.0, 851.0, 861.0, 869.0, 870.0, 871.0, 869.0, 853.0, 817.0, 746.0, 655.0, 536.0, 392.0, 222.0, 25.0, -216.0, -281.0, -409.0, -445.0, -465.0, -475.0, -485.0, -497.0, -508.0, -527.0, -555.0, -601.0, -659.0, -694.0, -701.0, -702.0, -703.0, -706.0, -710.0, -722.0, -733.0, -745.0, -747.0, -747.0, -747.0, -747.0, -747.0]	[-490.0, -490.0, -490.0, -490.0, -490.0, -490.0, -490.0, -490.0, -490.0, -490.0, -490.0, -490.0, -490.0, -490.0, -490.0, -490.0, -490.0, -490.0, -490.0, -490.0, -490.0, -490.0, -490.0, -490.0, -490.0, -490.0, -490.0, -490.0, -478.0, -433.0, -379.0, -318.0, -246.0, -170.0, -88.0, -19.0, 53.0, 138.0, 189.0, 237.0, 273.0, 307.0, 334.0, 360.0, 382.0, 397.0, 412.0, 425.0, 436.0, 440.0, 442.0, 445.0, 452.0, 464.0, 476.0, 485.0, 485.0, 485.0, 488.0, 514.0, 540.0, 540.0, 540.0, 540.0, 540.0, 540.0, 537.0, 534.0, 531.0, 531.0, 531.0, 531.0, 539.0, 540.0, 540.0, 539.0, 537.0, 528.0, 511.0, 488.0, 466.0, 440.0, 437.0, 437.0, 437.0, 437.0, 437.0]	[0.007327191618969664, 0.017280804459005594, 0.028353648347547278, 0.04643303557531908, 0.06181384378578514, 0.07931945018935949, 0.09494397017988376, 0.11224102209962439, 0.12853557885682676, 0.14554488701105583, 0.1618640197411878, 0.17873850134492386, 0.19529315388354007, 0.21238438197178766, 0.22823418177722488, 0.24580566545773763, 0.26178278248698916, 0.27896617048827466, 0.29531499920994975, 0.3123461526702158, 0.3285734668170335, 0.34551416702743154, 0.36184012643934693, 0.378734064011951, 0.3951743699872168, 0.41219903812452685, 0.428378224329208, 0.44591932935873047, 0.4618435397715075, 0.4788979038858088, 0.49508459940261673, 0.5122976833808934, 0.5284140642907005, 0.5454646737489384, 0.5618425157590536, 0.5787596640002448, 0.5951702739985194, 0.612217128786142, 0.6283925603056559, 0.6454933457134757, 0.6619002010556869, 0.6787504480016651, 0.6953156818635762, 0.7119795609760331, 0.7282560270978138, 0.7454994897125289, 0.7615854919858975, 0.7787487413443159, 0.7952351272688247, 0.8120635289087659, 0.8285850721440511, 0.8455858469678788, 0.8618493424291955, 0.8786873013887089, 0.8951238526933594, 0.9120819608942838, 0.9282399844378233, 0.9453960657992866, 0.9615684253367363, 0.9787497653451283, 0.9949166635487927, 1.012035539606586, 1.028239301769645, 1.0454418044246268, 1.0616479559248546, 1.078744986676611, 1.09496479149675, 1.111991848971229, 1.1282433977758046, 1.14548174040101, 1.161579689316568, 1.178752837338834, 1.1950866473925998, 1.212104830206954, 1.2285246561950771, 1.2455861883063335, 1.261868457077071, 1.2787538613338256, 1.2976374292193213, 1.3120113049517386, 1.3310368673846824, 1.3454404390940908, 1.3622620140813524, 1.3785432588483673, 1.3950484180968488, 1.4118764784070663, 1.4285229495289968]
11	animate/a41.jpg	inanimate	animate	left	1.325	[0.0, 0.0, 0.0, 0.0, 0.0, 0.0, 0.0, 0.0, 0.0, 0.0, 0.0, 0.0, 0.0, 0.0, 0.0, 0.0, 0.0, 0.0, 0.0, 0.0, 0.0, 0.0, -6.0, -20.0, -27.0, -33.0, -34.0, -34.0, -34.0, -34.0, -34.0, -34.0, -34.0, -34.0, -34.0, -34.0, -34.0, -34.0, -34.0, -34.0, -34.0, -33.0, -32.0, -31.0, -31.0, -32.0, -37.0, -49.0, -70.0, -105.0, -154.0, -198.0, -237.0, -293.0, -330.0, -375.0, -425.0, -472.0, -511.0, -545.0, -580.0, -613.0, -645.0, -665.0, -678.0, -699.0, -717.0, -736.0, -749.0, -759.0, -760.0, -760.0, -760.0, -760.0, -760.0, -760.0, -760.0, -760.0, -760.0, -760.0]	[-490.0, -490.0, -490.0, -490.0, -490.0, -490.0, -490.0, -490.0, -490.0, -490.0, -490.0, -490.0, -490.0, -490.0, -490.0, -490.0, -490.0, -490.0, -490.0, -490.0, -490.0, -490.0, -491.0, -478.0, -452.0, -433.0, -433.0, -433.0, -433.0, -433.0, -433.0, -433.0, -433.0, -433.0, -433.0, -433.0, -433.0, -433.0, -433.0, -433.0, -433.0, -432.0, -432.0, -432.0, -426.0, -409.0, -388.0, -358.0, -317.0, -256.0, -183.0, -113.0, -58.0, 22.0, 74.0, 134.0, 203.0, 259.0, 305.0, 338.0, 369.0, 399.0, 425.0, 442.0, 450.0, 459.0, 464.0, 468.0, 469.0, 469.0, 469.0, 469.0, 469.0, 469.0, 469.0, 469.0, 469.0, 469.0, 469.0, 469.0]	[0.016647529264446348, 0.024020664306590334, 0.03400772779423278, 0.0484416781400796, 0.06495264005206991, 0.08172130840830505, 0.09808617977250833, 0.11488522676518187, 0.13213824671402108, 0.14813311306352261, 0.16559298083302565, 0.18139294601860456, 0.1988354057975812, 0.21504462930897716, 0.2317682417051401, 0.24808361977920868, 0.26532127973041497, 0.28161515382817015, 0.2985804300260497, 0.3150859306042548, 0.33188292960403487, 0.34825121429457795, 0.36531035708321724, 0.3816397298069205, 0.39847700610698666, 0.415054186625639, 0.4319156975689111, 0.4482904675969621, 0.4653775996848708, 0.48142468999139965, 0.49855005137214903, 0.5149388160643866, 0.5318767856078921, 0.548039246481494, 0.5652451624628156, 0.5813318474101834, 0.5985804300144082, 0.6147736108687241, 0.631881564273499, 0.6480317371606361, 0.6653161597350845, 0.6814011380047305, 0.6985172834101832, 0.7147606402140809, 0.7319945455092238, 0.7481034170923522, 0.7653199143969687, 0.7813301407441031, 0.798484174098121, 0.8147224109125091, 0.8318057883298025, 0.8480150118411984, 0.8652369704650482, 0.8813588127086405, 0.8985937420075061, 0.9147493762284284, 0.9320047854998847, 0.9481061477563344, 0.9653636050352361, 0.981434929984971, 0.9985254753992194, 1.0148312961537158, 1.0318289989809273, 1.0480621157912537, 1.0653236690704944, 1.0813905566901667, 1.0985172834043624, 1.1148784001125023, 1.1318279749830253, 1.1482150329975411, 1.1654148049856303, 1.1838194826123072, 1.1985776993533364, 1.2177114643563982, 1.2317467377142748, 1.2506606842507608, 1.2651215999067063, 1.2826408596156398, 1.298473592774826, 1.3159976311580976]
12	inanimate/n63.jpg	inanimate	animate	left	1.501	[0.0, 0.0, 0.0, 0.0, 0.0, 0.0, 0.0, 0.0, 0.0, 0.0, 0.0, 0.0, 0.0, 0.0, 0.0, 0.0, 0.0, 0.0, 1.0, 9.0, 21.0, 34.0, 51.0, 78.0, 89.0, 128.0, 159.0, 191.0, 221.0, 246.0, 271.0, 296.0, 330.0, 363.0, 388.0, 418.0, 442.0, 469.0, 510.0, 529.0, 552.0, 570.0, 588.0, 605.0, 620.0, 632.0, 643.0, 650.0, 653.0, 653.0, 637.0, 609.0, 564.0, 502.0, 417.0, 314.0, 203.0, 84.0, -29.0, -127.0, -208.0, -305.0, -368.0, -415.0, -450.0, -477.0, -500.0, -526.0, -553.0, -580.0, -606.0, -629.0, -658.0, -713.0, -759.0, -794.0, -818.0, -829.0, -831.0, -831.0, -831.0, -831.0, -831.0, -830.0, -825.0, -812.0, -808.0, -798.0, -795.0, -794.0, -794.0]	[-490.0, -490.0, -490.0, -490.0, -490.0, -490.0, -490.0, -490.0, -490.0, -490.0, -490.0, -490.0, -490.0, -490.0, -490.0, -490.0, -490.0, -490.0, -489.0, -478.0, -463.0, -444.0, -422.0, -379.0, -366.0, -317.0, -284.0, -257.0, -232.0, -208.0, -186.0, -160.0, -126.0, -96.0, -69.0, -37.0, -9.0, 23.0, 76.0, 104.0, 137.0, 162.0, 189.0, 215.0, 239.0, 262.0, 281.0, 297.0, 308.0, 319.0, 336.0, 347.0, 356.0, 364.0, 366.0, 368.0, 368.0, 368.0, 368.0, 368.0, 368.0, 364.0, 354.0, 347.0, 343.0, 340.0, 335.0, 333.0, 328.0, 327.0, 327.0, 327.0, 327.0, 334.0, 344.0, 353.0, 360.0, 364.0, 365.0, 365.0, 365.0, 366.0, 371.0, 374.0, 382.0, 394.0, 398.0, 407.0, 409.0, 410.0, 410.0]	[0.011018708479241468, 0.015382651414256543, 0.023595807069796138, 0.035496042255545035, 0.054561881988774985, 0.0689357577211922, 0.08774662166251801, 0.10232461456325836, 0.12014493001333904, 0.1356742180942092, 0.1528118674759753, 0.16898593367659487, 0.18596793517644983, 0.20241063048888464, 0.21911034957156517, 0.23567251143686008, 0.25194761221064255, 0.2687705525313504, 0.2882514532393543, 0.30214336671633646, 0.32150923818699084, 0.3353915943444008, 0.35466974321752787, 0.36871218457235955, 0.3871032088791253, 0.4021013827441493, 0.4200456021062564, 0.43536974902963266, 0.4528442941082176, 0.4687999071611557, 0.48617068701423705, 0.502160433359677, 0.5191465308744228, 0.5353926183452131, 0.5524166038085241, 0.5687613365298603, 0.5856508367869537, 0.6021099160716403, 0.6190103389817523, 0.6352850984258112, 0.6524783850909444, 0.6687022859114222, 0.6856412794586504, 0.7021266413939884, 0.7189492403704207, 0.73540934365883, 0.7524524437903892, 0.7687828405178152, 0.7856477647874271, 0.8021860333392397, 0.8189007710752776, 0.8353967143339105, 0.8525613290257752, 0.8689166430704063, 0.8855303462187294, 0.9019904495071387, 0.9189434377040016, 0.9352663251193007, 0.9523353665426839, 0.9686428939603502, 0.9856119248142932, 1.002090118752676, 1.0188966750865802, 1.0353178664081497, 1.0524684864358278, 1.0688862644310575, 1.0857634766871342, 1.1018999962543603, 1.1190489096188685, 1.1351512958790408, 1.1523418518772814, 1.1684551607904723, 1.1856419621326495, 1.201934812226682, 1.2190420829574578, 1.2351823571807472, 1.2524224064691225, 1.2685049954161514, 1.2856549327843823, 1.3019341295585036, 1.31890520840534, 1.3351396905636648, 1.3524155798077118, 1.3684988514287397, 1.3856440101226326, 1.4018716656137258, 1.4189942963275826, 1.4351584638789063, 1.4524770197604084, 1.4685305953898933, 1.4856283088010969]
13	inanimate/n35.jpg	inanimate	animate	left	1.248	[0.0, 0.0, 0.0, 0.0, 0.0, 0.0, 0.0, 0.0, 0.0, 0.0, 0.0, 0.0, 0.0, 0.0, 0.0, 0.0, 0.0, 0.0, 0.0, 0.0, 0.0, 0.0, 7.0, 24.0, 57.0, 100.0, 148.0, 211.0, 294.0, 345.0, 373.0, 442.0, 485.0, 530.0, 567.0, 588.0, 604.0, 617.0, 621.0, 623.0, 623.0, 619.0, 589.0, 555.0, 518.0, 506.0, 505.0, 504.0, 504.0, 503.0, 503.0, 503.0, 490.0, 472.0, 364.0, 250.0, 121.0, -26.0, -201.0, -375.0, -535.0, -659.0, -736.0, -774.0, -802.0, -805.0, -809.0, -812.0, -817.0, -823.0, -824.0, -824.0, -824.0, -824.0, -824.0]	[-490.0, -490.0, -490.0, -490.0, -490.0, -490.0, -490.0, -490.0, -490.0, -490.0, -490.0, -490.0, -490.0, -490.0, -490.0, -490.0, -490.0, -490.0, -490.0, -490.0, -490.0, -485.0, -472.0, -449.0, -419.0, -391.0, -362.0, -319.0, -257.0, -213.0, -188.0, -129.0, -93.0, -54.0, -15.0, 19.0, 62.0, 101.0, 126.0, 154.0, 178.0, 201.0, 238.0, 263.0, 284.0, 291.0, 292.0, 293.0, 295.0, 297.0, 298.0, 299.0, 305.0, 310.0, 327.0, 345.0, 361.0, 387.0, 413.0, 446.0, 470.0, 484.0, 490.0, 490.0, 490.0, 490.0, 488.0, 488.0, 486.0, 485.0, 484.0, 484.0, 484.0, 484.0, 484.0]	[0.0045982339506736025, 0.010101546591613442, 0.02455119825026486, 0.040905146961449645, 0.057857452498865314, 0.07448958764143754, 0.09115210142044816, 0.10762039670953527, 0.12457952889963053, 0.1409129976236727, 0.15784618850739207, 0.17427011049585417, 0.19115176009654533, 0.20778423656884115, 0.22450853162445128, 0.2410566988401115, 0.25790387378947344, 0.27422812653821893, 0.2912046667188406, 0.30741901020519435, 0.3247942273883382, 0.3408361976908054, 0.3578260498616146, 0.37402708137233276, 0.39117667739628814, 0.4073527916043531, 0.4246003502194071, 0.44218002588604577, 0.45772876995033585, 0.4740403933537891, 0.4911630240821978, 0.5073626902594697, 0.5246839768078644, 0.5408478030149126, 0.5578202471951954, 0.5740929586463608, 0.5911824800714385, 0.6073725889145862, 0.624656670173863, 0.6406959098094376, 0.6578509671817301, 0.674399475712562, 0.6911135307891527, 0.7074739648232935, 0.7245945475588087, 0.7430886544316309, 0.7577902099001221, 0.7767219057423063, 0.7911643894185545, 0.8099315627332544, 0.8245897688902915, 0.8435726646857802, 0.8577970365586225, 0.8751568937441334, 0.8911558560939739, 0.9100994985928992, 0.9244767876516562, 0.9420277913450263, 0.9578001085465075, 0.974647624840145, 0.9911787253950024, 1.0073405036091572, 1.0242614065064117, 1.0435105420765467, 1.0575830207380932, 1.0767529670411022, 1.090930234946427, 1.1087665930535877, 1.124366878415458, 1.1412516000127653, 1.1575850687368074, 1.1757286265783478, 1.1909476429282222, 1.2086904757888988, 1.2244163717114134]
14	inanimate/n71.jpg	inanimate	animate	left	1.468	[0.0, 0.0, 0.0, 0.0, 0.0, 0.0, 0.0, 0.0, 0.0, 0.0, 0.0, 0.0, 0.0, 0.0, 0.0, 3.0, 6.0, 11.0, 20.0, 26.0, 34.0, 43.0, 53.0, 65.0, 79.0, 99.0, 112.0, 127.0, 141.0, 156.0, 176.0, 203.0, 241.0, 273.0, 303.0, 324.0, 349.0, 363.0, 374.0, 387.0, 400.0, 411.0, 423.0, 429.0, 436.0, 439.0, 441.0, 443.0, 443.0, 443.0, 437.0, 424.0, 403.0, 379.0, 350.0, 312.0, 254.0, 170.0, 69.0, -39.0, -195.0, -243.0, -368.0, -445.0, -517.0, -580.0, -639.0, -671.0, -696.0, -717.0, -734.0, -755.0, -780.0, -800.0, -819.0, -831.0, -836.0, -838.0, -837.0, -827.0, -811.0, -793.0, -776.0, -763.0, -758.0, -758.0, -758.0, -758.0]	[-490.0, -490.0, -490.0, -490.0, -490.0, -490.0, -490.0, -490.0, -490.0, -490.0, -490.0, -490.0, -490.0, -490.0, -490.0, -486.0, -478.0, -468.0, -448.0, -430.0, -410.0, -390.0, -369.0, -348.0, -324.0, -292.0, -273.0, -251.0, -231.0, -211.0, -187.0, -157.0, -126.0, -98.0, -72.0, -56.0, -34.0, -22.0, -12.0, -2.0, 7.0, 14.0, 22.0, 27.0, 32.0, 35.0, 38.0, 39.0, 41.0, 42.0, 45.0, 47.0, 50.0, 55.0, 62.0, 73.0, 85.0, 96.0, 111.0, 125.0, 150.0, 158.0, 182.0, 196.0, 212.0, 225.0, 237.0, 244.0, 250.0, 252.0, 256.0, 262.0, 271.0, 278.0, 287.0, 294.0, 301.0, 313.0, 327.0, 339.0, 356.0, 373.0, 390.0, 401.0, 410.0, 411.0, 411.0, 411.0]	[0.016382996167521924, 0.02180268221127335, 0.031073287638719194, 0.04800374785554595, 0.06441367517982144, 0.08111544225539546, 0.09822203032672405, 0.11460738167806994, 0.1315405725617893, 0.1480604091339046, 0.16487822945055086, 0.18126119146472774, 0.19789639860391617, 0.21439712052233517, 0.23138697269314434, 0.24784639332210645, 0.2648454614827642, 0.2810478583269287, 0.2982462649815716, 0.31433533925155643, 0.3314388553262688, 0.3476719721365953, 0.3644631684728665, 0.3815001245966414, 0.3977765907184221, 0.41484460815263446, 0.43120231151988264, 0.4483246009040158, 0.46435633122746367, 0.481589895192883, 0.4980544358113548, 0.5148777174472343, 0.5312541941384552, 0.5482078650093172, 0.5645816110336455, 0.5815400605642935, 0.5980264465033542, 0.6148050135088852, 0.6312647754675709, 0.6485816246859031, 0.6647495468932902, 0.6816260764899198, 0.698125774419168, 0.7151139199122554, 0.7312296181626152, 0.7483672675443813, 0.7644198191701435, 0.7839884424756747, 0.7981042704341235, 0.8182081039412878, 0.8312739914545091, 0.8511661984812235, 0.8643624752294272, 0.8839635251642903, 0.8979854865319794, 0.9175506965111708, 0.9312217675033025, 0.9491311708843568, 0.9644993497786345, 0.9822066839988111, 0.9980247398343636, 1.0152163198363269, 1.0312258634949103, 1.048509944754187, 1.064639296324458, 1.081429810001282, 1.0979237052524695, 1.114776000205893, 1.1312139168439899, 1.1482505316380411, 1.1643413125711959, 1.1814243486587657, 1.1979960678581847, 1.2147780482046073, 1.2312408821599092, 1.2481901156861568, 1.2645399684115546, 1.28146018863481, 1.2976943294488592, 1.31480876817659, 1.3309743010468083, 1.348132430401165, 1.3642959152784897, 1.381430151333916, 1.397729828080628, 1.4148142295016441, 1.431005021018791, 1.44829695293447]
15	inanimate/n45.jpg	inanimate	animate	left	1.433	[0.0, 0.0, 0.0, 0.0, 0.0, 0.0, 0.0, 0.0, 0.0, 3.0, 6.0, 9.0, 11.0, 13.0, 14.0, 15.0, 16.0, 18.0, 30.0, 32.0, 47.0, 64.0, 89.0, 113.0, 140.0, 173.0, 205.0, 238.0, 265.0, 290.0, 325.0, 336.0, 380.0, 416.0, 461.0, 511.0, 569.0, 621.0, 665.0, 703.0, 733.0, 739.0, 753.0, 758.0, 768.0, 774.0, 781.0, 787.0, 788.0, 788.0, 781.0, 764.0, 743.0, 712.0, 663.0, 513.0, 378.0, 240.0, 100.0, -34.0, -175.0, -313.0, -448.0, -567.0, -653.0, -715.0, -744.0, -759.0, -766.0, -772.0, -778.0, -791.0, -807.0, -819.0, -826.0, -829.0, -830.0, -830.0, -830.0, -826.0, -800.0, -770.0, -744.0, -728.0, -726.0, -726.0]	[-490.0, -490.0, -490.0, -490.0, -490.0, -490.0, -490.0, -490.0, -490.0, -490.0, -490.0, -489.0, -488.0, -488.0, -488.0, -487.0, -485.0, -483.0, -470.0, -467.0, -442.0, -412.0, -370.0, -328.0, -287.0, -242.0, -196.0, -153.0, -122.0, -92.0, -52.0, -42.0, -6.0, 20.0, 54.0, 96.0, 138.0, 175.0, 205.0, 229.0, 254.0, 261.0, 285.0, 292.0, 311.0, 324.0, 337.0, 351.0, 364.0, 375.0, 390.0, 405.0, 419.0, 432.0, 446.0, 466.0, 486.0, 507.0, 520.0, 530.0, 539.0, 540.0, 540.0, 540.0, 540.0, 540.0, 540.0, 540.0, 540.0, 536.0, 533.0, 526.0, 518.0, 508.0, 497.0, 489.0, 483.0, 476.0, 471.0, 462.0, 445.0, 430.0, 418.0, 412.0, 411.0, 411.0]	[0.01609559373173397, 0.02440500531520229, 0.030391645545023493, 0.04715860722353682, 0.06425120064523071, 0.0806587386468891, 0.09764722548425198, 0.11669975322729442, 0.1308401571586728, 0.14993398619117215, 0.16433994723774958, 0.18234697186562698, 0.19752093225542922, 0.21647891074826475, 0.23084595981345046, 0.24992954886693042, 0.26422184600960463, 0.28321327513549477, 0.2975110335974023, 0.3163748041697545, 0.33093026907590684, 0.34837409418832976, 0.3643682778783841, 0.3808594424772309, 0.39754107090993784, 0.4142827739560744, 0.4308275278308429, 0.44717089521873277, 0.4639334195817355, 0.483228976445389, 0.49707788196974434, 0.5176479764195392, 0.530696455942234, 0.5501046527206199, 0.5641467527311761, 0.5833545870118542, 0.5970881219545845, 0.6142786779528251, 0.6304336294997483, 0.6502159272931749, 0.6640078301861649, 0.6836566667479929, 0.6971775512211025, 0.7156409381277626, 0.730711474592681, 0.7490301362995524, 0.7638815369573422, 0.783282565738773, 0.7973366124060703, 0.8163802654889878, 0.830444893494132, 0.8487570698634954, 0.8641675740509527, 0.8811915595288156, 0.8987534858752042, 0.9144889391027391, 0.9306913359469036, 0.9475617215503007, 0.9640668807987822, 0.9808222371648299, 0.9973355884139892, 1.0142459099879488, 1.0307353679090738, 1.0475941481854534, 1.064182251371676, 1.080872754464508, 1.0973222764296224, 1.114380395199987, 1.1306121466768673, 1.1474709269677987, 1.1640938461059704, 1.1809659383870894, 1.1970847086195135, 1.2143718618754065, 1.2307223972602515, 1.2474890176090412, 1.2640409394953167, 1.280984711702331, 1.2971594605623977, 1.3143943898612633, 1.3304657148109982, 1.3476275988359703, 1.3638067850260995, 1.381118514254922, 1.3970925592875574, 1.4143302192387637]
16	inanimate/n7.jpg	animate	inanimate	left	1.245	[0.0, 0.0, 0.0, 0.0, 0.0, 0.0, 0.0, 0.0, 0.0, 0.0, 0.0, 0.0, 0.0, 0.0, 0.0, 0.0, 0.0, 0.0, 0.0, 0.0, 0.0, 0.0, -1.0, 2.0, 7.0, 7.0, 7.0, 7.0, 7.0, 7.0, 7.0, 7.0, 7.0, 7.0, 7.0, 7.0, 7.0, 7.0, 7.0, 7.0, 13.0, 21.0, 26.0, 38.0, 51.0, 54.0, 57.0, 62.0, 66.0, 70.0, 70.0, 61.0, 27.0, -20.0, -78.0, -153.0, -238.0, -328.0, -419.0, -506.0, -600.0, -646.0, -674.0, -693.0, -704.0, -707.0, -708.0, -709.0, -715.0, -726.0, -735.0, -739.0, -739.0, -739.0, -739.0]	[-490.0, -490.0, -490.0, -490.0, -490.0, -490.0, -490.0, -490.0, -490.0, -490.0, -490.0, -490.0, -490.0, -490.0, -490.0, -490.0, -490.0, -490.0, -490.0, -490.0, -490.0, -490.0, -490.0, -470.0, -401.0, -395.0, -395.0, -395.0, -395.0, -395.0, -395.0, -395.0, -395.0, -395.0, -395.0, -395.0, -395.0, -395.0, -395.0, -395.0, -393.0, -387.0, -383.0, -371.0, -351.0, -332.0, -310.0, -283.0, -243.0, -178.0, -140.0, -99.0, -41.0, 23.0, 87.0, 155.0, 216.0, 265.0, 317.0, 363.0, 409.0, 431.0, 441.0, 449.0, 453.0, 453.0, 453.0, 453.0, 453.0, 453.0, 453.0, 453.0, 453.0, 453.0, 453.0]	[0.012200301076518372, 0.016580969328060746, 0.02228362046298571, 0.039645184311666526, 0.05574483991949819, 0.0731012837641174, 0.08912891808722634, 0.10615768222487532, 0.12272530542395543, 0.1395874990412267, 0.15598001837497577, 0.17302721449232195, 0.19178380649827886, 0.20614983157429378, 0.22527199125033803, 0.23954005373525433, 0.2586106721282704, 0.2728562066477025, 0.29043485831061844, 0.30634951140382327, 0.32352300074126106, 0.3396485976554686, 0.3560349729959853, 0.37294802523683757, 0.38933747257397044, 0.4060074956942117, 0.4225440575828543, 0.439235584664857, 0.4572371479735011, 0.4725503722438589, 0.49102297514036763, 0.5060074956854805, 0.5240438749606255, 0.5393499312340282, 0.5573627585254144, 0.5728067133604782, 0.590291839762358, 0.6059993036906235, 0.6234455181402154, 0.6393646085634828, 0.6563875700376229, 0.672707385441754, 0.6898190935025923, 0.7058955384563887, 0.7230297744972631, 0.7393519792385632, 0.7562209995085141, 0.7724629909789655, 0.7896071256836876, 0.8060269516718108, 0.8231601637235144, 0.8391417180828284, 0.8562134901731042, 0.8727186494361376, 0.8895330564118922, 0.9060177356732311, 0.9229239612468518, 0.9393833818758139, 0.9562107595120324, 0.9728009106911486, 0.9895286190876504, 1.006032071672962, 1.0231205690797651, 1.0394516484811902, 1.0560875382943777, 1.072781113369274, 1.0895924483629642, 1.105981895714649, 1.1230417211481836, 1.1393642672192072, 1.1562844874570146, 1.1727565374021651, 1.189579477708321, 1.2060078370268457, 1.2229976891976548]
17	animate/a20.jpg	animate	inanimate	left	1.334	[0.0, 0.0, 0.0, 0.0, 0.0, 0.0, 0.0, 0.0, 0.0, 0.0, 0.0, 0.0, 0.0, 0.0, 0.0, 0.0, 0.0, 0.0, 0.0, 0.0, 0.0, 0.0, 0.0, 0.0, 0.0, 0.0, 0.0, 0.0, 0.0, 0.0, 0.0, 0.0, 11.0, 86.0, 165.0, 291.0, 375.0, 457.0, 542.0, 625.0, 695.0, 750.0, 787.0, 806.0, 814.0, 814.0, 796.0, 750.0, 678.0, 593.0, 493.0, 378.0, 257.0, 135.0, 18.0, -76.0, -196.0, -232.0, -326.0, -372.0, -405.0, -435.0, -457.0, -477.0, -493.0, -509.0, -524.0, -537.0, -560.0, -594.0, -610.0, -625.0, -645.0, -670.0, -694.0, -711.0, -723.0, -730.0, -732.0, -732.0, -732.0]	[-490.0, -490.0, -490.0, -490.0, -490.0, -490.0, -490.0, -490.0, -490.0, -490.0, -490.0, -490.0, -490.0, -490.0, -490.0, -490.0, -490.0, -490.0, -490.0, -490.0, -490.0, -490.0, -490.0, -490.0, -490.0, -490.0, -490.0, -490.0, -490.0, -490.0, -490.0, -490.0, -481.0, -440.0, -401.0, -323.0, -264.0, -204.0, -143.0, -72.0, -9.0, 46.0, 92.0, 123.0, 150.0, 174.0, 214.0, 251.0, 296.0, 340.0, 386.0, 436.0, 484.0, 519.0, 540.0, 540.0, 540.0, 538.0, 516.0, 503.0, 493.0, 486.0, 479.0, 475.0, 473.0, 470.0, 468.0, 465.0, 463.0, 458.0, 455.0, 449.0, 441.0, 431.0, 424.0, 417.0, 414.0, 410.0, 409.0, 409.0, 409.0]	[0.016589263701462187, 0.022332192136673257, 0.03162498419987969, 0.04796664492459968, 0.06466602267755661, 0.08112749129941221, 0.09803610619565006, 0.11451464147830848, 0.13137478708813433, 0.14792090629634913, 0.16478241723962128, 0.18118108058115467, 0.19822076737182215, 0.214321105639101, 0.2313857097469736, 0.24786902367486618, 0.26474623594549485, 0.28117664325691294, 0.2981760527472943, 0.3145071321487194, 0.33139799773925915, 0.3476993811491411, 0.364758865267504, 0.3811824459116906, 0.39815079410618637, 0.41456515876052435, 0.4314041417237604, 0.4476659305219073, 0.46475272126554046, 0.4808926541591063, 0.49821735404839274, 0.5142791216785554, 0.5314321310434025, 0.5476341865432914, 0.56474077461462, 0.5808987981581595, 0.5981460154434899, 0.6142780976806534, 0.6313935603975551, 0.6475618239346659, 0.6647315586160403, 0.6808929955004714, 0.6981859514053212, 0.7145173721364699, 0.7313795657537412, 0.7478383037087042, 0.7647479426086647, 0.7812042912264587, 0.7982692366640549, 0.817066105955746, 0.8312826271576341, 0.8505095760920085, 0.8646110680565471, 0.8835222839261405, 0.8983129272965016, 0.9169309380813502, 0.9313078858103836, 0.9500252245052252, 0.9646370093687437, 0.9824423061800189, 0.9980729701637756, 1.0149880703975214, 1.0313624990958488, 1.0482291300431825, 1.064714150634245, 1.0815254856279353, 1.0982255460403394, 1.1146593666780973, 1.1314498803549213, 1.1485946977190906, 1.164688209319138, 1.181025774043519, 1.1980903781513916, 1.2142490843689302, 1.231029358052183, 1.2506539599708049, 1.2644475695269648, 1.2827952445368282, 1.2978381330322009, 1.315992272211588, 1.331127661964274]
18	inanimate/n73.jpg	animate	inanimate	right	1.165	[0.0, 0.0, 0.0, 0.0, 0.0, 0.0, 0.0, 0.0, 0.0, 0.0, 0.0, 0.0, 0.0, 0.0, 0.0, 0.0, 0.0, 0.0, 0.0, 0.0, 0.0, 0.0, 0.0, 0.0, 0.0, 0.0, 0.0, 0.0, 4.0, 11.0, 21.0, 32.0, 45.0, 60.0, 81.0, 104.0, 130.0, 173.0, 222.0, 301.0, 341.0, 376.0, 405.0, 429.0, 458.0, 484.0, 507.0, 528.0, 556.0, 582.0, 603.0, 626.0, 638.0, 647.0, 655.0, 660.0, 664.0, 666.0, 667.0, 667.0, 667.0, 669.0, 673.0, 684.0, 694.0, 702.0, 706.0, 707.0, 707.0, 707.0, 707.0]	[-490.0, -490.0, -490.0, -490.0, -490.0, -490.0, -490.0, -490.0, -490.0, -490.0, -490.0, -490.0, -490.0, -490.0, -490.0, -490.0, -490.0, -490.0, -490.0, -490.0, -490.0, -490.0, -490.0, -490.0, -490.0, -490.0, -490.0, -490.0, -484.0, -476.0, -466.0, -456.0, -441.0, -422.0, -400.0, -373.0, -337.0, -272.0, -184.0, -45.0, 34.0, 97.0, 145.0, 184.0, 223.0, 259.0, 292.0, 320.0, 353.0, 380.0, 403.0, 428.0, 445.0, 456.0, 468.0, 473.0, 477.0, 478.0, 478.0, 478.0, 478.0, 478.0, 478.0, 473.0, 467.0, 463.0, 461.0, 461.0, 461.0, 461.0, 461.0]	[0.010365397029090673, 0.014879867841955274, 0.01924620012869127, 0.03629544423893094, 0.0524606357794255, 0.0696907864039531, 0.08580307132797316, 0.10294959536986426, 0.11935747470124625, 0.1362916895741364, 0.1543383088428527, 0.16964914377604146, 0.18880134077335242, 0.2028420754504623, 0.22200417109706905, 0.23622274030640256, 0.2537686239957111, 0.2696928344084881, 0.28636968418140896, 0.30288474207918625, 0.3196032344858395, 0.336123753717402, 0.3526726035925094, 0.36930132540874183, 0.3887542368029244, 0.4027236328838626, 0.42028658323397394, 0.43604524711554404, 0.4542645809124224, 0.46947301592445, 0.48694824367703404, 0.5026905235863524, 0.5198124716407619, 0.5360486604477046, 0.5533777976670535, 0.5693480880290736, 0.58669053723861, 0.60278507284238, 0.6201865726470714, 0.6360763084230712, 0.6529989179834956, 0.6694139653118327, 0.6864082548127044, 0.7024529557820642, 0.7196947117336094, 0.7360431991255609, 0.752917680729297, 0.7694399066240294, 0.7862505589437205, 0.8027345555456122, 0.8196459011087427, 0.8360561697772937, 0.8529159740573959, 0.8691081309079891, 0.8862399776262464, 0.9024587584426627, 0.9196383917878848, 0.9359332898893626, 0.9528835474193329, 0.969172642857302, 0.9862464629550232, 1.0024492011289112, 1.0196790104237152, 1.0358329379669158, 1.0529012967308518, 1.0691330482222838, 1.086255337606417, 1.1024297451367602, 1.1196793517592596, 1.135810068648425, 1.1528917394171003]
19	inanimate/n42.jpg	animate	inanimate	right	1.061	[0.0, 0.0, 0.0, 0.0, 0.0, 0.0, 0.0, 0.0, 0.0, 0.0, 0.0, 0.0, 0.0, 0.0, 0.0, 0.0, 0.0, 0.0, 0.0, 0.0, 0.0, 0.0, 0.0, 0.0, -1.0, 1.0, 4.0, 9.0, 14.0, 22.0, 30.0, 42.0, 55.0, 78.0, 101.0, 140.0, 181.0, 229.0, 272.0, 316.0, 363.0, 410.0, 455.0, 526.0, 552.0, 623.0, 662.0, 698.0, 719.0, 736.0, 750.0, 762.0, 776.0, 787.0, 795.0, 803.0, 805.0, 807.0, 807.0, 807.0, 807.0, 807.0, 807.0, 807.0]	[-490.0, -490.0, -490.0, -490.0, -490.0, -490.0, -490.0, -490.0, -490.0, -490.0, -490.0, -490.0, -490.0, -490.0, -490.0, -490.0, -490.0, -490.0, -490.0, -490.0, -490.0, -490.0, -490.0, -490.0, -489.0, -482.0, -473.0, -462.0, -451.0, -438.0, -423.0, -407.0, -390.0, -358.0, -320.0, -268.0, -215.0, -154.0, -103.0, -52.0, 2.0, 56.0, 109.0, 180.0, 205.0, 266.0, 305.0, 341.0, 365.0, 385.0, 403.0, 418.0, 434.0, 443.0, 450.0, 459.0, 461.0, 463.0, 463.0, 463.0, 463.0, 463.0, 463.0, 463.0]	[0.013904918261687271, 0.019577873419621028, 0.02495694083336275, 0.04257484580739401, 0.05844102959963493, 0.0754837883869186, 0.0919111237017205, 0.10890780252520926, 0.12537473248085007, 0.14220279279106762, 0.15870453869865742, 0.17557799629867077, 0.19209578487789258, 0.20891667719115503, 0.22533240717893932, 0.2423502486635698, 0.25840860295284074, 0.27558516430144664, 0.2918568517488893, 0.3089228211902082, 0.32514126067690086, 0.34229358736774884, 0.3584188429522328, 0.375609740280197, 0.39184456375369336, 0.40892247985175345, 0.4250555860780878, 0.4423277206806233, 0.45841167494654655, 0.47559199096576776, 0.4918329584324965, 0.5089422771707177, 0.5251064447074896, 0.5421932354656747, 0.558505541543127, 0.5756104229367338, 0.5919217050250154, 0.608844997244887, 0.6253115858708043, 0.6422946113743819, 0.658548208171851, 0.6755974522820907, 0.6918783557339339, 0.7089217971806647, 0.725295543204993, 0.7422297580924351, 0.7585451361665037, 0.7756329509284114, 0.7945250521297567, 0.8088624052325031, 0.8277698664314812, 0.842327379345079, 0.8614181363809621, 0.8754650150658563, 0.8945475801156135, 0.9088125706039136, 0.9258450894121779, 0.9422963180404622, 0.9608443555480335, 0.9755394256644649, 0.9945847854251042, 1.0088122292800108, 1.0258208547602408, 1.0423137260222575]
20	inanimate/n64.jpg	inanimate	animate	left	1.438	[0.0, 0.0, 0.0, 0.0, 0.0, 0.0, 0.0, 0.0, 0.0, 0.0, 0.0, 0.0, 0.0, 0.0, 0.0, 0.0, 0.0, 0.0, 0.0, 0.0, 5.0, 9.0, 14.0, 21.0, 30.0, 39.0, 53.0, 62.0, 69.0, 79.0, 91.0, 102.0, 116.0, 132.0, 155.0, 182.0, 225.0, 243.0, 302.0, 347.0, 392.0, 438.0, 484.0, 532.0, 581.0, 625.0, 659.0, 687.0, 702.0, 714.0, 719.0, 724.0, 725.0, 725.0, 725.0, 709.0, 665.0, 577.0, 477.0, 374.0, 268.0, 152.0, 33.0, -86.0, -236.0, -304.0, -353.0, -399.0, -436.0, -459.0, -473.0, -482.0, -497.0, -519.0, -542.0, -580.0, -611.0, -656.0, -691.0, -728.0, -753.0, -772.0, -782.0, -784.0, -784.0, -784.0]	[-490.0, -490.0, -490.0, -490.0, -490.0, -490.0, -490.0, -490.0, -490.0, -490.0, -490.0, -490.0, -490.0, -490.0, -490.0, -490.0, -490.0, -487.0, -479.0, -473.0, -461.0, -451.0, -439.0, -422.0, -404.0, -388.0, -361.0, -340.0, -321.0, -299.0, -272.0, -250.0, -226.0, -204.0, -175.0, -140.0, -91.0, -73.0, -21.0, 17.0, 54.0, 91.0, 134.0, 176.0, 218.0, 251.0, 279.0, 302.0, 318.0, 336.0, 344.0, 353.0, 356.0, 356.0, 356.0, 360.0, 364.0, 367.0, 367.0, 367.0, 367.0, 367.0, 367.0, 367.0, 363.0, 354.0, 340.0, 327.0, 319.0, 315.0, 314.0, 314.0, 315.0, 319.0, 327.0, 339.0, 353.0, 373.0, 388.0, 407.0, 418.0, 425.0, 430.0, 431.0, 431.0, 431.0]	[0.003514501528115943, 0.008737238400499336, 0.022199413579073735, 0.03873563413799275, 0.05592653146595694, 0.07211937099054921, 0.0892846683418611, 0.10541743323847186, 0.12267864517343696, 0.1387509941268945, 0.1559357474616263, 0.17210093900212087, 0.18926794301660266, 0.20543688922771253, 0.22266430918534752, 0.23875918611884117, 0.25590571016073227, 0.2721094723237911, 0.28928262034605723, 0.3054123132460518, 0.32255815461394377, 0.33905921786208637, 0.3557906809146516, 0.3723323628073558, 0.3893048069876386, 0.40780096186790615, 0.42271516780601814, 0.44157723171520047, 0.4558169635711238, 0.4748957739502657, 0.48922152172599453, 0.5054928678437136, 0.5226257385511417, 0.5413270345889032, 0.5559381367929745, 0.5724661653512157, 0.5891597404406639, 0.608202028190135, 0.6226352958765347, 0.6402463741833344, 0.6559057101549115, 0.6731747727462789, 0.6894614788616309, 0.7056536356976721, 0.7225407466321485, 0.7389598899462726, 0.7556210383918369, 0.77234294412483, 0.7889819059346337, 0.8054085585754365, 0.822221258902573, 0.8395817987475311, 0.8556609743682202, 0.8727068051521201, 0.8890730418497697, 0.9064014963951195, 0.9222738241805928, 0.9394350255461177, 0.9556790650094626, 0.9725412586267339, 0.9890211592282867, 1.0058570701949066, 1.0224216213973705, 1.0392476337001426, 1.055642201041337, 1.0727675624366384, 1.0890341298800195, 1.1058792568510398, 1.1223601814417634, 1.1391967750823824, 1.1556360570539255, 1.1726972478209063, 1.1890112605760805, 1.205863555529504, 1.222428106717416, 1.2392094044043915, 1.2556224037252832, 1.2726573118561646, 1.2887815434369259, 1.3058628728613257, 1.3223635947797447, 1.3392025777429808, 1.355653123697266, 1.3727201171423076, 1.3890109192434466, 1.4058700408495497]
21	animate/a25.jpg	inanimate	animate	right	1.66	[0.0, 0.0, 0.0, 0.0, 0.0, 0.0, 0.0, 0.0, 0.0, 0.0, 0.0, 0.0, 0.0, 0.0, 0.0, 0.0, 0.0, 0.0, 0.0, 0.0, 0.0, 0.0, 0.0, 0.0, 0.0, 0.0, 0.0, 0.0, 0.0, 0.0, 4.0, 11.0, 30.0, 41.0, 81.0, 98.0, 168.0, 206.0, 239.0, 267.0, 284.0, 296.0, 309.0, 320.0, 333.0, 345.0, 357.0, 359.0, 361.0, 354.0, 333.0, 288.0, 205.0, 107.0, -4.0, -113.0, -215.0, -291.0, -342.0, -383.0, -431.0, -460.0, -481.0, -491.0, -491.0, -491.0, -491.0, -482.0, -452.0, -389.0, -234.0, -169.0, 44.0, 187.0, 319.0, 430.0, 520.0, 566.0, 590.0, 601.0, 603.0, 603.0, 604.0, 606.0, 610.0, 612.0, 612.0, 612.0, 612.0, 615.0, 621.0, 635.0, 654.0, 677.0, 698.0, 714.0, 724.0, 726.0, 726.0, 726.0]	[-490.0, -490.0, -490.0, -490.0, -490.0, -490.0, -490.0, -490.0, -490.0, -490.0, -490.0, -490.0, -490.0, -490.0, -490.0, -490.0, -490.0, -490.0, -490.0, -490.0, -490.0, -490.0, -490.0, -490.0, -490.0, -490.0, -490.0, -490.0, -490.0, -490.0, -487.0, -462.0, -419.0, -401.0, -327.0, -297.0, -172.0, -113.0, -64.0, -25.0, 2.0, 23.0, 46.0, 64.0, 81.0, 100.0, 127.0, 134.0, 157.0, 175.0, 193.0, 218.0, 252.0, 285.0, 313.0, 333.0, 345.0, 357.0, 360.0, 362.0, 362.0, 362.0, 362.0, 362.0, 362.0, 362.0, 362.0, 362.0, 366.0, 368.0, 368.0, 368.0, 368.0, 368.0, 368.0, 368.0, 368.0, 368.0, 368.0, 371.0, 371.0, 371.0, 371.0, 371.0, 374.0, 374.0, 374.0, 374.0, 374.0, 375.0, 377.0, 379.0, 382.0, 384.0, 388.0, 390.0, 392.0, 393.0, 393.0, 393.0]	[0.01580170600209385, 0.02256453756126575, 0.02974925676244311, 0.04677290089603048, 0.06350095062225591, 0.08006857382133603, 0.09683792485157028, 0.11336527073581237, 0.13025613632635213, 0.14646228782658, 0.16346340399468318, 0.17971358745126054, 0.19685738082625903, 0.2130485136731295, 0.2303284989320673, 0.24638070922810584, 0.26352996393688954, 0.2797221207874827, 0.2969109701225534, 0.31306387366203126, 0.33028378430753946, 0.3463919732312206, 0.363561707912595, 0.37973406743549276, 0.39689902345708106, 0.4131102949613705, 0.4303281575994333, 0.4464575091697043, 0.46355863590724766, 0.47979857938480563, 0.4968822981463745, 0.513044417675701, 0.5301267711038236, 0.5464025545516051, 0.5634060600423254, 0.5800375125108985, 0.5967416689236416, 0.6132966628065333, 0.6302168830297887, 0.6466121330304304, 0.6635316705942387, 0.6799214592756471, 0.6969174554396886, 0.715929705882445, 0.7302547709987266, 0.7491936348378658, 0.7634514573292108, 0.7824312811426353, 0.7967423515947303, 0.8157935140043264, 0.8301731924002524, 0.8478310333302943, 0.8634985612879973, 0.8822592492797412, 0.896737572926213, 0.9134202253626427, 0.9300537258386612, 0.9463752479059622, 0.9631265082716709, 0.982699227577541, 0.9964122825476807, 1.0160918390756706, 1.0299796565668657, 1.0491427762171952, 1.0632883001380833, 1.0813833886932116, 1.096648485006881, 1.1135393505974207, 1.1300288085185457, 1.1478863292868482, 1.1633016121340916, 1.1825531370413955, 1.1966549703356577, 1.2157965859951219, 1.229854046003311, 1.2476842601172393, 1.2630466363480082, 1.2813154634204693, 1.296654628997203, 1.3144111151777906, 1.3299567872454645, 1.347750478729722, 1.3632763534842525, 1.381007922347635, 1.3964051145449048, 1.4135175052797422, 1.4300407551781973, 1.4468930501316208, 1.4630292283545714, 1.4802211496862583, 1.4967000262986403, 1.5134704013180453, 1.5297540354222292, 1.5468657434830675, 1.563267478821217, 1.5803300349361962, 1.5966034290468087, 1.6135147746099392, 1.6300199338584207, 1.6467722182278521]
22	animate/a3.jpg	animate	inanimate	left	1.496	[0.0, 0.0, 0.0, 0.0, 0.0, 0.0, 0.0, 0.0, 0.0, 0.0, 1.0, 1.0, 2.0, 2.0, 2.0, 2.0, 2.0, 2.0, 2.0, 2.0, 2.0, 2.0, 2.0, 2.0, 2.0, 3.0, 3.0, 3.0, 3.0, 3.0, 3.0, 5.0, 6.0, 9.0, 12.0, 17.0, 22.0, 27.0, 35.0, 42.0, 59.0, 81.0, 111.0, 137.0, 169.0, 203.0, 238.0, 278.0, 302.0, 330.0, 361.0, 389.0, 425.0, 495.0, 548.0, 589.0, 613.0, 624.0, 625.0, 625.0, 611.0, 577.0, 520.0, 417.0, 222.0, 81.0, -56.0, -173.0, -273.0, -354.0, -402.0, -436.0, -458.0, -472.0, -490.0, -519.0, -529.0, -564.0, -583.0, -600.0, -612.0, -625.0, -644.0, -672.0, -709.0, -746.0, -771.0, -783.0, -784.0, -784.0]	[-490.0, -490.0, -490.0, -490.0, -490.0, -490.0, -490.0, -490.0, -490.0, -490.0, -489.0, -488.0, -488.0, -487.0, -487.0, -486.0, -486.0, -486.0, -486.0, -486.0, -486.0, -486.0, -486.0, -485.0, -484.0, -483.0, -483.0, -483.0, -483.0, -483.0, -481.0, -478.0, -474.0, -468.0, -460.0, -453.0, -442.0, -429.0, -413.0, -397.0, -363.0, -315.0, -264.0, -212.0, -154.0, -102.0, -50.0, 7.0, 47.0, 92.0, 134.0, 166.0, 199.0, 256.0, 295.0, 326.0, 344.0, 355.0, 361.0, 364.0, 367.0, 370.0, 370.0, 370.0, 370.0, 372.0, 372.0, 372.0, 372.0, 372.0, 368.0, 363.0, 359.0, 357.0, 353.0, 348.0, 348.0, 348.0, 354.0, 359.0, 366.0, 375.0, 388.0, 404.0, 426.0, 446.0, 456.0, 462.0, 462.0, 462.0]	[0.013039980345638469, 0.01869074885325972, 0.02691858183243312, 0.04120951364166103, 0.058207899128319696, 0.07448334124637768, 0.09082841529743746, 0.10761892897426151, 0.1270056217617821, 0.14109721506247297, 0.15864685342239682, 0.17435534135438502, 0.19348023169732187, 0.20746328109817114, 0.2259293986717239, 0.2409453218569979, 0.25915782898664474, 0.27408364025177434, 0.2917210011946736, 0.30769231557496823, 0.32500506879296154, 0.34091084722604137, 0.3584806242288323, 0.37440039731154684, 0.3919612996687647, 0.4077411261969246, 0.4250494420994073, 0.44108492707891855, 0.45829084306024015, 0.4743526106904028, 0.49191965702630114, 0.50771962221188, 0.5246456450986443, 0.5408466766093625, 0.558151920515229, 0.5743778693286004, 0.5913093535491498, 0.6076684222643962, 0.6246862637344748, 0.641240916273091, 0.6579706726624863, 0.6743846960016526, 0.6914138014690252, 0.707762971505872, 0.7245067225594539, 0.741032361795078, 0.7578976273944136, 0.7743218907125993, 0.7913161802134709, 0.8077093822212191, 0.8245442691986682, 0.8410975564038381, 0.8578768060833681, 0.8743744560051709, 0.8913963934755884, 0.9074987797357608, 0.9245746478263754, 0.9411344203690533, 0.957894555394887, 0.9741860401700251, 0.9912731722433819, 1.0076803689153166, 1.0244872665789444, 1.0407886500033783, 1.057816048793029, 1.0740675975976046, 1.0912936522363452, 1.107415153135662, 1.1245548505103216, 1.1407876259909244, 1.157898992736591, 1.1740740829263814, 1.1912561055942206, 1.2074291477911174, 1.2245743064995622, 1.2408067406504415, 1.2579297127085738, 1.2741160668956582, 1.2912427936098538, 1.3075622676842613, 1.3244582532643108, 1.3408009379927535, 1.3578587154333945, 1.3743020934052765, 1.3912144629721297, 1.407828848794452, 1.4245521198463393, 1.4434882530331379, 1.45787271008885, 1.4748799702356337]
23	animate/a49.jpg	inanimate	animate	right	1.015	[0.0, 0.0, 0.0, 0.0, 0.0, 0.0, 0.0, 0.0, 0.0, 0.0, 0.0, 0.0, 0.0, 0.0, 0.0, 0.0, 0.0, 0.0, 0.0, 0.0, 0.0, 2.0, 6.0, 12.0, 28.0, 41.0, 59.0, 83.0, 115.0, 154.0, 194.0, 237.0, 279.0, 326.0, 376.0, 419.0, 480.0, 507.0, 524.0, 531.0, 534.0, 534.0, 535.0, 540.0, 545.0, 553.0, 563.0, 579.0, 615.0, 629.0, 682.0, 721.0, 759.0, 791.0, 818.0, 834.0, 845.0, 849.0, 850.0, 850.0, 850.0]	[-490.0, -490.0, -490.0, -490.0, -490.0, -490.0, -490.0, -490.0, -490.0, -490.0, -490.0, -490.0, -490.0, -490.0, -490.0, -490.0, -490.0, -490.0, -490.0, -490.0, -488.0, -479.0, -471.0, -462.0, -443.0, -430.0, -415.0, -390.0, -350.0, -307.0, -265.0, -219.0, -168.0, -114.0, -55.0, -2.0, 69.0, 105.0, 139.0, 163.0, 190.0, 214.0, 235.0, 253.0, 267.0, 280.0, 291.0, 303.0, 324.0, 330.0, 351.0, 365.0, 376.0, 389.0, 401.0, 412.0, 419.0, 426.0, 428.0, 428.0, 428.0]	[0.005924995479290374, 0.012927101503009908, 0.026492017932469025, 0.04323918231239077, 0.059933098731562495, 0.07621639150602277, 0.09305503312498331, 0.11259805645386223, 0.1265793991915416, 0.1438972724135965, 0.15974365889269393, 0.17732026256271638, 0.19286320396349765, 0.2104852049233159, 0.226222023498849, 0.24294665988418274, 0.2597289815748809, 0.27667309511161875, 0.29312329973618034, 0.3100035840034252, 0.3264404766377993, 0.34338561417825986, 0.3594757124519674, 0.3767669616936473, 0.39289801992708817, 0.41002713597845286, 0.42637255135923624, 0.4433258809003746, 0.4595296430779854, 0.47668947909551207, 0.49287003061908763, 0.5099687680340139, 0.5261704822041793, 0.5432787769386778, 0.5595347630733158, 0.5766034631669754, 0.5929307878977852, 0.6098411094717449, 0.6261916448565898, 0.6434634381148499, 0.6594644484575838, 0.6766072178288596, 0.6928123453399166, 0.7099506773811299, 0.72618413552118, 0.7433224675623933, 0.759481856439379, 0.7766686577815562, 0.7928123453311855, 0.809923029402853, 0.8262435274809832, 0.843335438228678, 0.8594828804489225, 0.8767126897437265, 0.8928318013204262, 0.9099807146849344, 0.926201543508796, 0.9433105209172936, 0.9595467097242363, 0.9765836658480112, 0.992933518573409]
24	inanimate/n73.jpg	inanimate	animate	left	1.244	[0.0, 0.0, 0.0, 0.0, 0.0, 0.0, 0.0, 0.0, 0.0, 0.0, 0.0, 0.0, 0.0, 0.0, 0.0, 0.0, 0.0, 0.0, 0.0, 0.0, 0.0, 0.0, 0.0, 0.0, 0.0, 0.0, 0.0, 0.0, 0.0, 0.0, 0.0, 2.0, 7.0, 15.0, 35.0, 52.0, 64.0, 75.0, 89.0, 92.0, 100.0, 103.0, 105.0, 105.0, 92.0, 50.0, -16.0, -121.0, -226.0, -328.0, -475.0, -580.0, -680.0, -764.0, -824.0, -862.0, -888.0, -907.0, -925.0, -945.0, -960.0, -960.0, -960.0, -960.0, -960.0, -952.0, -938.0, -916.0, -886.0, -858.0, -834.0, -819.0, -811.0, -807.0, -807.0]	[-490.0, -490.0, -490.0, -490.0, -490.0, -490.0, -490.0, -490.0, -490.0, -490.0, -490.0, -490.0, -490.0, -490.0, -490.0, -490.0, -490.0, -490.0, -490.0, -490.0, -490.0, -490.0, -490.0, -490.0, -490.0, -490.0, -490.0, -490.0, -490.0, -490.0, -490.0, -472.0, -454.0, -426.0, -374.0, -326.0, -281.0, -240.0, -193.0, -180.0, -141.0, -118.0, -92.0, -65.0, -40.0, -8.0, 28.0, 70.0, 116.0, 156.0, 203.0, 233.0, 263.0, 285.0, 303.0, 314.0, 321.0, 327.0, 335.0, 342.0, 351.0, 356.0, 357.0, 363.0, 372.0, 379.0, 387.0, 396.0, 405.0, 412.0, 416.0, 420.0, 422.0, 424.0, 424.0]	[0.011601022648392245, 0.021559072818490677, 0.034633493662113324, 0.051724721735809, 0.06828927293827292, 0.08507671460392885, 0.10135454605915584, 0.11843826480617281, 0.1348809601040557, 0.15181449233205058, 0.16821964099653997, 0.18507022928679362, 0.2015177032444626, 0.21845772079541348, 0.23487345078319777, 0.2517455430497648, 0.26977714366512373, 0.28499138135521207, 0.30134771938901395, 0.31846352345019113, 0.3346529496338917, 0.3517165297380416, 0.36795783854904585, 0.38517535985738505, 0.4012596554675838, 0.4185423713934142, 0.43461779232893605, 0.45173188972694334, 0.4679349692451069, 0.4850487252988387, 0.501219719502842, 0.5184386061446276, 0.5345508910540957, 0.5517264283989789, 0.5680175718298415, 0.5850091306638205, 0.6012330314842984, 0.6185686540266033, 0.6346058456838364, 0.6517192604078446, 0.6679650065489113, 0.6852828797709662, 0.7012603381299414, 0.7185038007592084, 0.7345932163589168, 0.7517312070704065, 0.7679844625236001, 0.7851449812151259, 0.8012808181229047, 0.818458744790405, 0.8346085763478186, 0.851787185689318, 0.8680042598425644, 0.8852869757683948, 0.9014764019520953, 0.9184454328060383, 0.9347546668868745, 0.9517312070674961, 0.9680670651287073, 0.9850644266261952, 1.0042091142822756, 1.0183932088402798, 1.0371112302091205, 1.0517250630655326, 1.0706342309422325, 1.0849900160246762, 1.1020071748353075, 1.1183918435126543, 1.1351062399189686, 1.1517554417077918, 1.1680254224920645, 1.1849394987220876, 1.2014822046185145, 1.2181273104069987, 1.2374535872513661]
25	animate/a54.jpg	animate	inanimate	left	2.611	[0.0, 0.0, 0.0, 0.0, 0.0, 0.0, 0.0, 0.0, 0.0, 0.0, 0.0, 0.0, 0.0, 0.0, 0.0, 0.0, 0.0, 0.0, 0.0, 0.0, 0.0, 0.0, 0.0, 0.0, 0.0, 0.0, 0.0, 10.0, 23.0, 44.0, 63.0, 87.0, 110.0, 125.0, 144.0, 160.0, 175.0, 184.0, 188.0, 189.0, 189.0, 182.0, 169.0, 145.0, 116.0, 66.0, -4.0, -90.0, -226.0, -315.0, -401.0, -472.0, -514.0, -534.0, -539.0, -540.0, -538.0, -514.0, -490.0, -462.0, -423.0, -380.0, -326.0, -269.0, -211.0, -159.0, -110.0, -65.0, -26.0, 9.0, 10.0, 10.0, -14.0, -87.0, -182.0, -290.0, -422.0, -560.0, -701.0, -831.0, -928.0, -960.0, -960.0, -960.0, -960.0, -960.0, -960.0, -960.0, -960.0, -960.0, -960.0, -960.0, -960.0, -960.0, -960.0, -960.0, -960.0, -960.0, -960.0, -960.0, -960.0, -960.0, -960.0, -960.0, -960.0, -960.0, -960.0, -960.0, -960.0, -960.0, -960.0, -960.0, -960.0, -960.0, -960.0, -958.0, -949.0, -933.0, -920.0, -905.0, -901.0, -900.0, -900.0, -900.0, -900.0, -900.0, -900.0, -900.0, -891.0, -886.0, -877.0, -862.0, -836.0, -808.0, -772.0, -737.0, -711.0, -696.0, -688.0, -688.0, -688.0, -688.0, -688.0, -688.0, -687.0, -694.0, -730.0, -785.0, -822.0, -841.0, -848.0, -850.0, -851.0, -851.0, -851.0, -851.0, -851.0]	[-490.0, -490.0, -490.0, -490.0, -490.0, -490.0, -490.0, -490.0, -490.0, -490.0, -490.0, -490.0, -490.0, -490.0, -490.0, -490.0, -490.0, -490.0, -490.0, -490.0, -490.0, -490.0, -490.0, -490.0, -490.0, -490.0, -490.0, -476.0, -453.0, -419.0, -387.0, -333.0, -281.0, -251.0, -219.0, -190.0, -155.0, -132.0, -113.0, -95.0, -80.0, -63.0, -47.0, -34.0, -17.0, 10.0, 50.0, 91.0, 149.0, 188.0, 226.0, 256.0, 274.0, 284.0, 288.0, 291.0, 292.0, 303.0, 313.0, 323.0, 329.0, 334.0, 341.0, 349.0, 357.0, 365.0, 373.0, 377.0, 377.0, 377.0, 377.0, 377.0, 377.0, 377.0, 377.0, 389.0, 408.0, 429.0, 450.0, 468.0, 480.0, 486.0, 486.0, 486.0, 486.0, 486.0, 486.0, 486.0, 486.0, 486.0, 486.0, 486.0, 486.0, 486.0, 486.0, 486.0, 486.0, 486.0, 486.0, 486.0, 486.0, 486.0, 486.0, 486.0, 486.0, 486.0, 486.0, 486.0, 486.0, 486.0, 486.0, 486.0, 486.0, 486.0, 486.0, 482.0, 477.0, 469.0, 462.0, 456.0, 454.0, 453.0, 453.0, 452.0, 450.0, 447.0, 439.0, 421.0, 379.0, 363.0, 337.0, 316.0, 292.0, 279.0, 268.0, 264.0, 262.0, 262.0, 262.0, 262.0, 262.0, 262.0, 262.0, 262.0, 262.0, 276.0, 299.0, 339.0, 367.0, 383.0, 395.0, 403.0, 407.0, 407.0, 407.0, 407.0, 407.0]	[0.004987012289348058, 0.013639122247695923, 0.02323467672977131, 0.04092118963308167, 0.05699899990577251, 0.07371134831919335, 0.09008645967696793, 0.10663394421862904, 0.12320702875149436, 0.1430101478472352, 0.15680990141117945, 0.17563646667986177, 0.19007895035611, 0.20974929089425132, 0.2231274981459137, 0.24263911883463152, 0.2568477893801173, 0.27595800239942037, 0.29005710504134186, 0.3077156286308309, 0.32314046879764646, 0.3404498087038519, 0.35665971486014314, 0.3736243083840236, 0.3897935959248571, 0.40700838656630367, 0.42316094879060984, 0.4401835689204745, 0.4567713307769736, 0.47357822842604946, 0.49010318498767447, 0.5070578798622591, 0.5231189648184227, 0.5402586621930823, 0.5565289843070786, 0.5735382924613077, 0.5898680065292865, 0.606925442640204, 0.6232326287281467, 0.6401859582547331, 0.6564569630427286, 0.6736096310633002, 0.6898113452480175, 0.7069780079327757, 0.7231565114489058, 0.7402921128377784, 0.7564593523711665, 0.773545801785076, 0.7898546945361886, 0.807033303877688, 0.8232281913951738, 0.840281872835476, 0.8564904136728728, 0.873617481731344, 0.889806566585321, 0.9068397680530325, 0.9231268154835561, 0.9401409022975713, 0.9568979653267888, 0.9735048418224324, 0.9900001024216181, 1.0069476292846957, 1.023279391345568, 1.0402811901731184, 1.059138134078239, 1.0734922124975128, 1.092508558940608, 1.1069227119733114, 1.1255693947314285, 1.1401883475919021, 1.1590173021832015, 1.1735106444830308, 1.1904458833741955, 1.2070500292029465, 1.2232650553632993, 1.240204390240251, 1.2568006854125997, 1.2734533005423145, 1.2900431103771552, 1.3066960668365937, 1.3259373517503263, 1.3400606890354538, 1.3593149445950985, 1.373182282099151, 1.3912282187084202, 1.4068227013922296, 1.4239053961500758, 1.440070929020294, 1.4570717038441217, 1.4734150712320115, 1.4902492755354615, 1.5068267973838374, 1.523635401710635, 1.54002314239915, 1.5570546371891396, 1.5732863886805717, 1.5902561021939619, 1.6067438534664689, 1.6235845430928748, 1.6400210943975253, 1.6570652185182553, 1.6733536312822253, 1.6902813608467113, 1.706909058659221, 1.7235538231179817, 1.739989691763185, 1.7570816025108797, 1.773179210096714, 1.7903083261480788, 1.8064929736719932, 1.8236063884105533, 1.8397883052675752, 1.8570324505417375, 1.873100703509408, 1.8902543955337023, 1.9066066375817172, 1.9236401803791523, 1.939781819935888, 1.956967255944619, 1.973123231480713, 1.9902516648726305, 2.0066871921735583, 2.0236012684035813, 2.039762363958289, 2.057060098522925, 2.0731396154733375, 2.090366694101249, 2.106552365628886, 2.123563380446285, 2.1400023210881045, 2.1569867119251285, 2.1731392741348827, 2.1902721448568627, 2.2065824029268697, 2.2238149428885663, 2.2400886783434544, 2.2569727172667626, 2.2734178019018145, 2.290197392911068, 2.3067001628369326, 2.323642228380777, 2.3401770835916977, 2.357030402548844, 2.375966194391367, 2.3901663316064514, 2.4086450785107445, 2.423650761702447, 2.44253330558422, 2.4569682799337897, 2.4759146530996077, 2.490144827621407, 2.5089621769002406, 2.5235681591002503, 2.5404836006637197, 2.5569037679961184, 2.5732218767370796, 2.5900082944135647]
26	inanimate/n17.jpg	inanimate	animate	left	1.73	[0.0, 0.0, 0.0, 0.0, 0.0, 0.0, 0.0, 0.0, 0.0, 0.0, 0.0, 0.0, 0.0, 0.0, 0.0, 0.0, 0.0, 0.0, 0.0, 0.0, 0.0, 0.0, 0.0, 0.0, 2.0, 5.0, 7.0, 11.0, 15.0, 20.0, 25.0, 34.0, 44.0, 54.0, 77.0, 88.0, 96.0, 108.0, 117.0, 126.0, 134.0, 148.0, 158.0, 171.0, 178.0, 187.0, 198.0, 201.0, 209.0, 213.0, 216.0, 220.0, 220.0, 221.0, 221.0, 221.0, 221.0, 204.0, 158.0, 69.0, -98.0, -215.0, -347.0, -490.0, -633.0, -760.0, -861.0, -934.0, -960.0, -960.0, -960.0, -960.0, -960.0, -960.0, -960.0, -960.0, -960.0, -958.0, -951.0, -943.0, -933.0, -920.0, -906.0, -892.0, -876.0, -865.0, -854.0, -846.0, -840.0, -832.0, -828.0, -824.0, -823.0, -823.0, -823.0, -823.0, -823.0, -823.0, -823.0, -823.0, -823.0, -823.0, -823.0, -823.0]	[-490.0, -490.0, -490.0, -490.0, -490.0, -490.0, -490.0, -490.0, -490.0, -490.0, -490.0, -490.0, -490.0, -490.0, -490.0, -490.0, -490.0, -490.0, -490.0, -490.0, -490.0, -490.0, -490.0, -487.0, -463.0, -447.0, -435.0, -421.0, -407.0, -391.0, -371.0, -352.0, -331.0, -306.0, -244.0, -203.0, -168.0, -127.0, -105.0, -83.0, -62.0, -38.0, -19.0, 4.0, 22.0, 41.0, 63.0, 71.0, 89.0, 98.0, 106.0, 112.0, 117.0, 120.0, 124.0, 126.0, 129.0, 136.0, 152.0, 179.0, 223.0, 258.0, 294.0, 334.0, 375.0, 412.0, 446.0, 469.0, 491.0, 500.0, 501.0, 501.0, 501.0, 501.0, 501.0, 501.0, 502.0, 503.0, 504.0, 504.0, 504.0, 504.0, 502.0, 498.0, 493.0, 490.0, 485.0, 482.0, 479.0, 476.0, 475.0, 474.0, 474.0, 474.0, 474.0, 474.0, 474.0, 474.0, 474.0, 474.0, 474.0, 474.0, 474.0, 474.0]	[0.003689605393446982, 0.01127743891265709, 0.022557813295861706, 0.039347644298686646, 0.056194136588601395, 0.07252043733024038, 0.08958060409349855, 0.10647215235803742, 0.1228240530617768, 0.14019346758141182, 0.15630677649460267, 0.1737806389137404, 0.18957411877636332, 0.20840478003083263, 0.22279265042743646, 0.23995863043819554, 0.25643716572085395, 0.2724057494197041, 0.28928398567950353, 0.30892701959237456, 0.322656458534766, 0.34097887491225265, 0.35593813681043684, 0.3752784083044389, 0.3893744389351923, 0.40694387462281156, 0.4227667091181502, 0.43971252931805793, 0.4559569101256784, 0.4732891193416435, 0.489378534941352, 0.5067404401197564, 0.5226509972126223, 0.540131344969268, 0.556024152727332, 0.5729645116080064, 0.5893556656228611, 0.6063584884541342, 0.6224417600606102, 0.6394718895317055, 0.6560067447426263, 0.6728324157302268, 0.6894805935153272, 0.7062984138319734, 0.7224489280488342, 0.7395780441001989, 0.7560193740646355, 0.772889418338309, 0.7893624922871822, 0.8063799924275372, 0.8225690772815142, 0.839542204135796, 0.85601630207384, 0.8728750823502196, 0.8893123163288692, 0.9062468725460349, 0.922397045433172, 0.9395439107902348, 0.9560272247326793, 0.9728453863790492, 0.9894099375815131, 1.0062533578748116, 1.0225120746617904, 1.0395210414862959, 1.0558091129205422, 1.072858357030782, 1.0890665565384552, 1.1062147872435162, 1.1223885120998602, 1.139517628151225, 1.1557367503119167, 1.1728761063568527, 1.1890518792206421, 1.20775454059185, 1.2224100160819944, 1.2395865774306003, 1.2557510862970958, 1.272867573032272, 1.2890576818754198, 1.306240387217258, 1.322405237428029, 1.3395602947857697, 1.3557585956295952, 1.3728743996907724, 1.3890959111740813, 1.4062577951990534, 1.4227554451208562, 1.4394722308643395, 1.4559084408392664, 1.4729798715998186, 1.4916180210275343, 1.5063417631317861, 1.5251935870473972, 1.5394763268559473, 1.558391297381604, 1.5728139837447088, 1.5902243582095252, 1.6062799818464555, 1.623586932415492, 1.639566780111636, 1.6567071601457428, 1.672908191656461, 1.6893897989357356, 1.7059536674642004]
27	inanimate/n33.jpg	inanimate	animate	left	1.996	[0.0, 0.0, 0.0, 0.0, 0.0, 0.0, 0.0, 0.0, 0.0, 0.0, 0.0, 0.0, 0.0, 0.0, 0.0, 0.0, 0.0, 0.0, 0.0, 0.0, 0.0, -8.0, -39.0, -39.0, -39.0, -39.0, -39.0, -39.0, -39.0, -39.0, -39.0, -39.0, -39.0, -39.0, -39.0, -39.0, -39.0, -39.0, -39.0, -39.0, -39.0, -39.0, -39.0, -39.0, -39.0, -39.0, -48.0, -50.0, -50.0, -52.0, -54.0, -54.0, -55.0, -56.0, -57.0, -58.0, -60.0, -65.0, -71.0, -81.0, -92.0, -108.0, -126.0, -149.0, -201.0, -237.0, -270.0, -309.0, -346.0, -387.0, -418.0, -459.0, -497.0, -526.0, -552.0, -576.0, -600.0, -610.0, -614.0, -614.0, -614.0, -614.0, -616.0, -619.0, -624.0, -633.0, -645.0, -661.0, -688.0, -711.0, -736.0, -753.0, -769.0, -778.0, -781.0, -782.0, -782.0, -782.0, -782.0, -782.0, -782.0, -782.0, -782.0, -782.0, -782.0, -782.0, -782.0, -782.0, -782.0, -782.0, -782.0, -782.0, -782.0, -782.0, -782.0, -782.0, -782.0, -782.0, -782.0, -782.0]	[-490.0, -490.0, -490.0, -490.0, -490.0, -490.0, -490.0, -490.0, -490.0, -490.0, -490.0, -490.0, -490.0, -490.0, -490.0, -490.0, -490.0, -490.0, -490.0, -490.0, -490.0, -480.0, -469.0, -469.0, -469.0, -469.0, -469.0, -469.0, -469.0, -469.0, -469.0, -469.0, -469.0, -469.0, -469.0, -469.0, -469.0, -469.0, -469.0, -469.0, -469.0, -469.0, -469.0, -469.0, -469.0, -469.0, -469.0, -469.0, -469.0, -466.0, -464.0, -461.0, -454.0, -448.0, -443.0, -436.0, -428.0, -416.0, -399.0, -381.0, -362.0, -338.0, -315.0, -288.0, -225.0, -192.0, -160.0, -121.0, -82.0, -36.0, -1.0, 42.0, 78.0, 108.0, 138.0, 169.0, 201.0, 217.0, 226.0, 231.0, 239.0, 248.0, 260.0, 266.0, 274.0, 283.0, 292.0, 300.0, 320.0, 332.0, 350.0, 363.0, 376.0, 383.0, 387.0, 388.0, 388.0, 388.0, 388.0, 388.0, 388.0, 388.0, 388.0, 388.0, 388.0, 388.0, 388.0, 388.0, 388.0, 388.0, 388.0, 388.0, 388.0, 388.0, 388.0, 388.0, 388.0, 388.0, 388.0, 388.0]	[0.0154368209769018, 0.02474429036374204, 0.031104348934604786, 0.045782693749060854, 0.06286846050352324, 0.0790944093168946, 0.0963074932951713, 0.11243309019482695, 0.12957961423671804, 0.1457652857643552, 0.1629609617521055, 0.17911830263619777, 0.19640647988126148, 0.21247814616071992, 0.22964583284920081, 0.2459554082597606, 0.26295515909441747, 0.27919919855776243, 0.2962839413085021, 0.312483607485774, 0.32960760354762897, 0.34589328564470634, 0.3629527697630692, 0.379379422403872, 0.3964163785421988, 0.41319733488489874, 0.42966870215605013, 0.4487761845230125, 0.46289952180814, 0.4808539811492665, 0.49637302923656534, 0.5135970358678605, 0.5296666541689774, 0.5460673655034043, 0.5627046206354862, 0.5796333741891431, 0.5963839518954046, 0.612729367276188, 0.6292778758215718, 0.6486550112895202, 0.6627128126274329, 0.6808389624929987, 0.6958610296715051, 0.7136752011429053, 0.7294383023545379, 0.7485857206775108, 0.7628036072128452, 0.7795214169600513, 0.7960965494712582, 0.812987415061798, 0.8293833477364387, 0.846254416013835, 0.8627346579451114, 0.8795883182319812, 0.89605695483624, 0.9129263164504664, 0.9291406599513721, 0.9463223412894877, 0.9627012073033256, 0.9795275609503733, 0.9960610508423997, 1.0129201724485029, 1.0293792517477414, 1.0463885598874185, 1.0626779966551112, 1.079586611565901, 1.0960422775242478, 1.1129198311246, 1.129179913245025, 1.1462817226565676, 1.1626619540038519, 1.1796439555182587, 1.1958463523624232, 1.212900375132449, 1.229166942590382, 1.2463496479322203, 1.2624373568687588, 1.279498206306016, 1.2958088057202986, 1.3128604391677072, 1.329079561328399, 1.346358522583614, 1.3624250688735629, 1.3796303021954373, 1.3958630776760401, 1.4129263164504664, 1.4291201799642295, 1.446359205248882, 1.4624735381657956, 1.4796972034673672, 1.4958989176375326, 1.5131563749164343, 1.5291167666291585, 1.5463523785874713, 1.5624629568483215, 1.5796047022158746, 1.5960996214707848, 1.612950551090762, 1.6293836890690727, 1.64627011732955, 1.6626209940441186, 1.6796040195476962, 1.6986920459312387, 1.7128085565491347, 1.7318173936655512, 1.746257829334354, 1.7635743372229626, 1.7796094808727503, 1.797030778005137, 1.8129269991186447, 1.8295188569609309, 1.8463848052342655, 1.8626568340114318, 1.8793193477904424, 1.8988971870858222, 1.9126798739889637, 1.931913308246294, 1.94597486424027, 1.9638566196517786, 1.979387273066095]
28	animate/a43.jpg	animate	inanimate	left	2.249	[0.0, 0.0, 0.0, 0.0, 0.0, 0.0, 0.0, 0.0, 0.0, 0.0, 0.0, 0.0, 0.0, 0.0, 0.0, 0.0, 0.0, 0.0, 0.0, 0.0, 0.0, 0.0, 0.0, 0.0, 0.0, 0.0, 0.0, 0.0, 0.0, 0.0, 0.0, 0.0, 0.0, 0.0, 0.0, 0.0, 0.0, 0.0, 0.0, 0.0, 0.0, 0.0, 1.0, 4.0, 5.0, 5.0, 3.0, -6.0, -16.0, -26.0, -42.0, -71.0, -109.0, -152.0, -188.0, -225.0, -245.0, -265.0, -291.0, -300.0, -301.0, -301.0, -301.0, -301.0, -296.0, -286.0, -274.0, -258.0, -213.0, -195.0, -129.0, -77.0, -23.0, 21.0, 69.0, 115.0, 161.0, 202.0, 245.0, 276.0, 300.0, 320.0, 335.0, 351.0, 356.0, 360.0, 360.0, 360.0, 360.0, 360.0, 360.0, 360.0, 360.0, 356.0, 349.0, 340.0, 324.0, 301.0, 249.0, 176.0, 86.0, -8.0, -93.0, -179.0, -250.0, -307.0, -370.0, -400.0, -421.0, -439.0, -445.0, -449.0, -451.0, -454.0, -457.0, -461.0, -469.0, -479.0, -497.0, -507.0, -522.0, -545.0, -577.0, -618.0, -659.0, -705.0, -743.0, -780.0, -790.0, -809.0, -814.0, -815.0, -815.0, -815.0, -815.0]	[-490.0, -490.0, -490.0, -490.0, -490.0, -490.0, -490.0, -490.0, -490.0, -490.0, -490.0, -490.0, -490.0, -490.0, -490.0, -490.0, -490.0, -490.0, -490.0, -490.0, -490.0, -490.0, -490.0, -490.0, -490.0, -490.0, -490.0, -490.0, -490.0, -490.0, -490.0, -490.0, -490.0, -490.0, -490.0, -490.0, -490.0, -490.0, -490.0, -490.0, -490.0, -490.0, -486.0, -478.0, -471.0, -461.0, -438.0, -417.0, -395.0, -372.0, -345.0, -297.0, -231.0, -177.0, -134.0, -91.0, -68.0, -44.0, -16.0, -4.0, 1.0, 4.0, 9.0, 16.0, 24.0, 30.0, 41.0, 52.0, 75.0, 82.0, 104.0, 118.0, 134.0, 146.0, 159.0, 171.0, 181.0, 194.0, 204.0, 214.0, 220.0, 224.0, 225.0, 229.0, 230.0, 231.0, 231.0, 231.0, 231.0, 231.0, 231.0, 231.0, 231.0, 231.0, 231.0, 231.0, 231.0, 231.0, 231.0, 231.0, 231.0, 241.0, 256.0, 267.0, 277.0, 285.0, 295.0, 299.0, 302.0, 304.0, 305.0, 306.0, 306.0, 306.0, 306.0, 306.0, 306.0, 306.0, 308.0, 311.0, 313.0, 316.0, 325.0, 337.0, 350.0, 368.0, 385.0, 405.0, 411.0, 425.0, 429.0, 429.0, 429.0, 429.0, 429.0]	[0.014498837757855654, 0.01937170827295631, 0.026965685799950734, 0.04433407630131114, 0.06311080695013516, 0.07758913059660699, 0.09473531329422258, 0.11095545945863705, 0.12721656558278482, 0.14397567660489585, 0.16258344739617314, 0.1771972802671371, 0.19716116721974686, 0.21056053713255096, 0.2302889042912284, 0.24416614044457674, 0.2631879482214572, 0.2773590721189976, 0.2954527953552315, 0.31068990235507954, 0.3289362014475046, 0.34394051930576097, 0.3620902211550856, 0.37735292813158594, 0.39542583003640175, 0.41044175322167575, 0.4285692684206879, 0.44412244981504045, 0.46133246179670095, 0.4773638507904252, 0.4944902361748973, 0.5107083343318664, 0.5275551679515047, 0.5437831647723215, 0.5609351501334459, 0.5773191361513454, 0.5942939696687972, 0.6107161849940894, 0.6275370773073519, 0.6440896818530746, 0.660905795491999, 0.6773201601608889, 0.6942905563482782, 0.7107308623089921, 0.7275944212597096, 0.7441193778213346, 0.7608037369209342, 0.7771542723057792, 0.7944414255471202, 0.8105342544877203, 0.8276090985746123, 0.8437599541357486, 0.8608764408563729, 0.8770778136968147, 0.8942458417150192, 0.9104386812250596, 0.9276237759040669, 0.9438353887380799, 0.9609802061022492, 0.977141984316404, 0.9943106949940557, 1.0105816997674992, 1.027649375871988, 1.0440753458533436, 1.0608399182237918, 1.077359072121908, 1.0943591642862884, 1.1129775164008606, 1.127497482666513, 1.1441702364390949, 1.1608044195891125, 1.1801324030966498, 1.1943540442880476, 1.2130338363494957, 1.2275176213152008, 1.2448962518246844, 1.2608819021843374, 1.2772693015285768, 1.2941055538394721, 1.3106503077142406, 1.3273875734303147, 1.344047015212709, 1.360673689036048, 1.3773693121183896, 1.3939342046505772, 1.4114125043997774, 1.4270902723510517, 1.445163515600143, 1.4607255716546206, 1.4778471783793066, 1.4941284231463214, 1.5110684406972723, 1.5273380801372696, 1.5442241670680232, 1.5606822223489871, 1.577556021293276, 1.5940055432583904, 1.6109141581546282, 1.6272397762222681, 1.6442753670271486, 1.6606443343916908, 1.6775532906176522, 1.694088145843125, 1.710845550216618, 1.7273305708222324, 1.7442832176748198, 1.760555246466538, 1.7775529492937494, 1.794003153918311, 1.8109936887485674, 1.8271646829525707, 1.8443026736640604, 1.8604132519249106, 1.8775123306550086, 1.893750226139673, 1.91083394488669, 1.9270346350676846, 1.944268881692551, 1.960418371920241, 1.9776041492441436, 1.9939748232718557, 2.0112653898540884, 2.027107680332847, 2.0442992603348102, 2.060422126582125, 2.077585034596268, 2.0937689994607354, 2.1108049315807875, 2.127110752335284, 2.144260348373791, 2.160704067675397, 2.1775304213078925, 2.194209319073707, 2.2107933262595907, 2.2297154647822026]
29	animate/a74.jpg	animate	inanimate	left	2.863	[0.0, 0.0, 0.0, 0.0, 0.0, 0.0, 0.0, 0.0, 0.0, 0.0, 0.0, 0.0, 0.0, 0.0, 0.0, 0.0, 0.0, 0.0, 0.0, 0.0, 0.0, 0.0, 0.0, 0.0, 0.0, 0.0, 0.0, 0.0, 0.0, 0.0, 0.0, 4.0, 20.0, 40.0, 58.0, 76.0, 98.0, 145.0, 189.0, 235.0, 280.0, 318.0, 349.0, 371.0, 399.0, 418.0, 440.0, 453.0, 469.0, 496.0, 506.0, 533.0, 548.0, 562.0, 570.0, 576.0, 581.0, 584.0, 584.0, 586.0, 585.0, 572.0, 535.0, 430.0, 344.0, 230.0, 109.0, -35.0, -174.0, -316.0, -437.0, -551.0, -651.0, -670.0, -710.0, -722.0, -732.0, -735.0, -737.0, -738.0, -738.0, -738.0, -738.0, -734.0, -723.0, -685.0, -637.0, -583.0, -526.0, -482.0, -445.0, -419.0, -399.0, -385.0, -375.0, -362.0, -341.0, -317.0, -259.0, -213.0, -147.0, -79.0, 0.0, 60.0, 111.0, 157.0, 195.0, 224.0, 249.0, 269.0, 295.0, 315.0, 335.0, 352.0, 371.0, 389.0, 409.0, 431.0, 452.0, 472.0, 491.0, 507.0, 529.0, 543.0, 558.0, 571.0, 581.0, 592.0, 598.0, 604.0, 606.0, 606.0, 606.0, 606.0, 606.0, 603.0, 573.0, 516.0, 441.0, 356.0, 260.0, 157.0, 43.0, -87.0, -229.0, -393.0, -599.0, -698.0, -760.0, -801.0, -830.0, -846.0, -857.0, -864.0, -870.0, -881.0, -890.0, -902.0, -905.0, -905.0, -905.0, -905.0, -905.0, -905.0, -905.0, -905.0, -905.0, -905.0, -905.0, -905.0, -905.0, -905.0]	[-490.0, -490.0, -490.0, -490.0, -490.0, -490.0, -490.0, -490.0, -490.0, -490.0, -490.0, -490.0, -490.0, -490.0, -490.0, -490.0, -490.0, -490.0, -490.0, -490.0, -490.0, -490.0, -490.0, -490.0, -490.0, -490.0, -490.0, -490.0, -490.0, -490.0, -490.0, -482.0, -462.0, -441.0, -421.0, -397.0, -369.0, -291.0, -233.0, -179.0, -126.0, -78.0, -36.0, -8.0, 25.0, 47.0, 73.0, 93.0, 113.0, 141.0, 147.0, 168.0, 182.0, 194.0, 202.0, 208.0, 214.0, 219.0, 222.0, 226.0, 230.0, 239.0, 256.0, 291.0, 315.0, 348.0, 376.0, 408.0, 436.0, 463.0, 477.0, 495.0, 503.0, 503.0, 501.0, 497.0, 491.0, 488.0, 484.0, 477.0, 471.0, 465.0, 460.0, 452.0, 439.0, 420.0, 401.0, 385.0, 369.0, 357.0, 349.0, 343.0, 340.0, 338.0, 337.0, 335.0, 332.0, 329.0, 321.0, 317.0, 313.0, 303.0, 290.0, 282.0, 278.0, 272.0, 266.0, 266.0, 266.0, 266.0, 266.0, 266.0, 266.0, 266.0, 269.0, 273.0, 278.0, 285.0, 289.0, 294.0, 300.0, 305.0, 310.0, 314.0, 319.0, 322.0, 326.0, 331.0, 333.0, 335.0, 336.0, 337.0, 337.0, 337.0, 337.0, 338.0, 344.0, 359.0, 377.0, 393.0, 413.0, 428.0, 446.0, 469.0, 494.0, 516.0, 522.0, 518.0, 501.0, 482.0, 461.0, 449.0, 437.0, 429.0, 422.0, 414.0, 410.0, 405.0, 403.0, 403.0, 403.0, 403.0, 403.0, 403.0, 403.0, 403.0, 403.0, 403.0, 403.0, 403.0, 403.0, 403.0]	[0.015371626359410584, 0.020916922963806428, 0.028592137750820257, 0.045975205590366386, 0.06223289837362245, 0.07938966240908485, 0.09543231538555119, 0.11268226332322229, 0.12876928960031364, 0.14599432023533154, 0.1621178691420937, 0.17923947586677969, 0.19557123792765196, 0.21261297272576485, 0.23141837533330545, 0.24582194704271387, 0.2648918827762827, 0.27916779593215324, 0.29813021174049936, 0.3126160447136499, 0.33169075910700485, 0.34583935503906105, 0.36478709352377336, 0.379165406600805, 0.3966774983127834, 0.41260785271879286, 0.42895565743674524, 0.44557004325906746, 0.4653052370849764, 0.4787844789243536, 0.4982933689316269, 0.5122979223233415, 0.5296485635190038, 0.545617829891853, 0.5631196816248121, 0.5791063559736358, 0.5967754609009717, 0.6123337622848339, 0.6292669531685533, 0.6456843898340594, 0.6624824128375622, 0.6787698015978094, 0.6958849229995394, 0.7123412716173334, 0.7292102918872843, 0.745619195222389, 0.7625895914097782, 0.7787366923002992, 0.7958695630077273, 0.812196887738537, 0.8292051718890434, 0.8457236431277124, 0.862609047384467, 0.8789015561487759, 0.8958627363463165, 0.9122139543906087, 0.9291314439615235, 0.945387088751886, 0.9625247381336521, 0.9787237216369249, 0.9958600056852447, 1.0120675225189188, 1.0291840092395432, 1.0454106407269137, 1.0624837781651877, 1.0787612682761392, 1.0959398776176386, 1.1121296451310627, 1.1292229212122038, 1.1454358993796632, 1.1624981141503667, 1.1787619509414071, 1.195788325741887, 1.2122951916535385, 1.2291229106340325, 1.2473838870500913, 1.2626356713735731, 1.281371442048112, 1.2957972004078329, 1.3148036481870804, 1.3292201905424008, 1.3483443982258905, 1.3625117674673675, 1.3789053108193912, 1.3958678563358262, 1.4148244694952155, 1.4291727452509804, 1.448456014128169, 1.4625469247694127, 1.4814253726653988, 1.4957989070680924, 1.5134785933187231, 1.5292041478969622, 1.546081360153039, 1.5626308927021455, 1.5787418122927193, 1.595545637945179, 1.6150128853332717, 1.6289454174548155, 1.647454542980995, 1.6623199383029714, 1.6799323819432175, 1.6955326672905358, 1.7125429994484875, 1.728965897433227, 1.7465230451198295, 1.7623513409489533, 1.7793282224592986, 1.795678416499868, 1.8125890794035513, 1.828964873435325, 1.845887141651474, 1.8623349569534184, 1.8792415238567628, 1.8955268646386685, 1.9125194474618183, 1.928959070777637, 1.945868368347874, 1.9621311811351916, 1.9791541426093318, 1.9956610085209832, 2.012553580774693, 2.0289867187530035, 2.0458178510452854, 2.062471490178723, 2.0793292464513797, 2.0954176380619174, 2.112550850099069, 2.1287153589801164, 2.14577586708765, 2.1623789889126783, 2.1792043185560033, 2.1956869498244487, 2.2126522260223283, 2.2289792094234144, 2.2458560803497676, 2.2624376981984824, 2.2794381316925865, 2.2954760060092667, 2.3125645034306217, 2.3286989749904023, 2.3458560803555883, 2.362071106515941, 2.3791794012504397, 2.3953992060705787, 2.4125788394158008, 2.4287351562961703, 2.4458960163174197, 2.4621229891345138, 2.479360649100272, 2.495439142046962, 2.512516375471023, 2.5288283402187517, 2.5458929443266243, 2.562206615737523, 2.579216606551199, 2.598012793183443, 2.6125126208062284, 2.6311439435667126, 2.6457884964038385, 2.664921578747453, 2.679114889309858, 2.6979363345744787, 2.7126003433950245, 2.7298202540405327, 2.7458796323335264, 2.7633224334422266, 2.7792418651952175, 2.795563728606794, 2.8123354689596454, 2.8287426656170283, 2.84552362197428]
30	animate/a30.jpg	inanimate	animate	right	2.102	[0.0, 0.0, 0.0, 0.0, 0.0, 0.0, 0.0, 0.0, 0.0, 0.0, 0.0, 0.0, 0.0, 0.0, 0.0, 0.0, 0.0, 0.0, 0.0, 0.0, 0.0, 0.0, 0.0, 0.0, 0.0, 0.0, 0.0, 0.0, 0.0, 0.0, 0.0, -10.0, -37.0, -53.0, -60.0, -60.0, -60.0, -60.0, -60.0, -60.0, -60.0, -60.0, -60.0, -60.0, -60.0, -60.0, -60.0, -64.0, -67.0, -70.0, -70.0, -69.0, -67.0, -66.0, -66.0, -66.0, -66.0, -64.0, -63.0, -62.0, -59.0, -58.0, -58.0, -58.0, -61.0, -66.0, -71.0, -77.0, -84.0, -100.0, -114.0, -127.0, -141.0, -159.0, -182.0, -206.0, -233.0, -254.0, -262.0, -265.0, -270.0, -275.0, -281.0, -289.0, -293.0, -300.0, -307.0, -315.0, -325.0, -332.0, -345.0, -352.0, -379.0, -400.0, -426.0, -458.0, -501.0, -532.0, -546.0, -547.0, -547.0, -538.0, -505.0, -483.0, -433.0, -312.0, -187.0, -39.0, 128.0, 284.0, 424.0, 535.0, 632.0, 704.0, 736.0, 757.0, 772.0, 782.0, 793.0, 806.0, 819.0, 832.0, 837.0, 840.0, 848.0, 862.0]	[-490.0, -490.0, -490.0, -490.0, -490.0, -490.0, -490.0, -490.0, -490.0, -490.0, -490.0, -490.0, -490.0, -490.0, -490.0, -490.0, -490.0, -490.0, -490.0, -490.0, -490.0, -490.0, -490.0, -490.0, -490.0, -490.0, -490.0, -490.0, -490.0, -490.0, -490.0, -489.0, -492.0, -492.0, -490.0, -490.0, -490.0, -490.0, -490.0, -490.0, -490.0, -490.0, -490.0, -490.0, -490.0, -490.0, -490.0, -490.0, -490.0, -484.0, -477.0, -475.0, -472.0, -467.0, -462.0, -455.0, -452.0, -444.0, -438.0, -432.0, -425.0, -419.0, -409.0, -390.0, -372.0, -354.0, -339.0, -325.0, -308.0, -278.0, -255.0, -236.0, -217.0, -200.0, -184.0, -170.0, -152.0, -137.0, -130.0, -124.0, -118.0, -111.0, -102.0, -95.0, -89.0, -81.0, -72.0, -63.0, -50.0, -38.0, -12.0, -1.0, 36.0, 60.0, 89.0, 118.0, 155.0, 178.0, 190.0, 192.0, 199.0, 208.0, 220.0, 226.0, 235.0, 253.0, 271.0, 288.0, 308.0, 325.0, 342.0, 358.0, 371.0, 383.0, 387.0, 392.0, 402.0, 410.0, 420.0, 432.0, 447.0, 463.0, 469.0, 478.0, 499.0, 540.0]	[0.012824599194573238, 0.017616915094549768, 0.02642637958342675, 0.04068215408187825, 0.05979885243868921, 0.0739808990038, 0.09294433881586883, 0.10743358511535916, 0.12474394901073538, 0.14077533800445963, 0.15744775044731796, 0.17390409906511195, 0.19029661841341294, 0.2071550573600689, 0.22719096559740137, 0.24050705022818875, 0.2603842386015458, 0.2739433523674961, 0.2930812133708969, 0.30723595329618547, 0.3253085138712777, 0.3404910075769294, 0.3597309271572158, 0.37362522997136693, 0.39306414671591483, 0.40728032658807933, 0.4251364820229355, 0.44050090623204596, 0.45842362161783967, 0.4738023818208603, 0.4930160187650472, 0.5071994306490524, 0.5254102311155293, 0.5403223890607478, 0.5573832384980051, 0.5738914697431028, 0.5911055777251022, 0.6072881772415712, 0.6241292082122527, 0.6402513917855686, 0.6574692544236314, 0.6738532404415309, 0.6907386446982855, 0.7072953452443471, 0.724086882910342, 0.7405220688815461, 0.7574822250753641, 0.7739194590540137, 0.7906867620768026, 0.8072349292924628, 0.8240005256520817, 0.840559956850484, 0.8573685611772817, 0.8736689205979928, 0.8907253327197395, 0.9070693827670766, 0.9239988189801807, 0.940298154411721, 0.9574852970836218, 0.9735958753299201, 0.9906850554107223, 1.0069622041919501, 1.0240530909359222, 1.0402292051294353, 1.057332379874424, 1.073574030015152, 1.0906922234134981, 1.1069311428873334, 1.1240735709288856, 1.140281770422007, 1.15751226239081, 1.1736487819580361, 1.1907604900188744, 1.2070021401596023, 1.2240735709201545, 1.240258218444069, 1.2574525291129248, 1.27367540592968, 1.2907352313777665, 1.3093535834777867, 1.3240169096388854, 1.3410231457964983, 1.3574928064044798, 1.3762029771023663, 1.3907676580129191, 1.4094075141038047, 1.4240230536379386, 1.4431148346775444, 1.457370609175996, 1.4761374411609722, 1.4906365861243103, 1.5092668848956237, 1.5239653683529468, 1.540424788967357, 1.5571142680564662, 1.5773781867756043, 1.590383999675396, 1.6102669906977098, 1.6236530486203264, 1.643089917357429, 1.657140209368663, 1.6769863364315825, 1.6905498875275953, 1.7075697770051192, 1.7236837685923092, 1.7421471554989694, 1.7574149824649794, 1.7746219224500237, 1.7904389542964054, 1.8080087312991964, 1.82391314439883, 1.8416003399615875, 1.8571883373369928, 1.8740491656062659, 1.8905307728855405, 1.9073714625119464, 1.9239384030370275, 1.9407968419836834, 1.9572733292588964, 1.97412562421232, 1.9903560103557538, 2.007346545200562, 2.0235909260081826, 2.0406432421150384, 2.0569374575425172, 2.073963832342997]
