trialIndex	stimulus	isAnimate	left_option	right_option	response	response_time	xTrajectory	yTrajectory	tTrajectory
0	孕妇	True	animate	inanimate	left	1.614	[0.0, 0.0, 0.0, 0.0, 0.0, 0.0, 0.0, 0.0, 0.0, 0.0, 2.0, 39.0, 62.0, 99.0, 104.0, 104.0, 104.0, 104.0, 104.0, 104.0, 104.0, 104.0, 104.0, 104.0, 104.0, 104.0, 104.0, 104.0, 104.0, 104.0, 104.0, 104.0, 104.0, 104.0, 104.0, 104.0, 104.0, 104.0, 104.0, 104.0, 73.0, 56.0, 51.0, 61.0, 84.0, 130.0, 186.0, 237.0, 280.0, 355.0, 418.0, 493.0, 568.0, 633.0, 691.0, 717.0, 737.0, 749.0, 750.0, 746.0, 741.0, 697.0, 657.0, 634.0, 626.0, 626.0, 629.0, 636.0, 637.0, 637.0, 609.0, 428.0, 333.0, -40.0, -314.0, -583.0, -801.0, -960.0, -960.0, -960.0, -960.0, -960.0, -959.0, -951.0, -950.0, -949.0, -948.0, -945.0, -940.0, -931.0, -920.0, -909.0, -891.0, -885.0, -877.0, -871.0, -869.0, -869.0]	[-490.0, -490.0, -490.0, -490.0, -490.0, -490.0, -490.0, -490.0, -490.0, -490.0, -489.0, -469.0, -461.0, -454.0, -450.0, -447.0, -444.0, -444.0, -444.0, -444.0, -444.0, -444.0, -444.0, -444.0, -444.0, -444.0, -444.0, -444.0, -444.0, -444.0, -444.0, -444.0, -444.0, -444.0, -444.0, -444.0, -444.0, -444.0, -444.0, -444.0, -449.0, -459.0, -476.0, -497.0, -522.0, -539.0, -539.0, -539.0, -539.0, -539.0, -515.0, -472.0, -397.0, -294.0, -165.0, -47.0, 54.0, 125.0, 194.0, 227.0, 240.0, 291.0, 321.0, 337.0, 344.0, 346.0, 351.0, 355.0, 356.0, 360.0, 373.0, 424.0, 451.0, 540.0, 540.0, 540.0, 540.0, 540.0, 540.0, 540.0, 540.0, 539.0, 534.0, 526.0, 524.0, 518.0, 514.0, 508.0, 496.0, 480.0, 462.0, 448.0, 436.0, 435.0, 435.0, 436.0, 437.0, 437.0]	[0.00887329678516835, 0.01472408845438622, 0.020228426976245828, 0.03404934790160041, 0.05104944585764315, 0.0662029314407846, 0.08453218071372248, 0.10072604975721333, 0.11632292710419279, 0.13465115238795988, 0.15093991205503698, 0.16593843237205874, 0.18427314297878183, 0.2019204086100217, 0.21621202796814032, 0.23646810292848386, 0.2511563514126465, 0.26635421029641293, 0.28431857442774344, 0.3011674618028337, 0.31631992338225245, 0.33404091697593685, 0.3510843642434338, 0.36660683096852154, 0.38457597375963815, 0.4007425361487549, 0.41636364815349225, 0.4340208124485798, 0.4509413797786692, 0.4661508440040052, 0.4842705147166271, 0.5011108687613159, 0.5163336449768394, 0.5339979772543302, 0.5510642938606907, 0.5662696620711358, 0.5842763515101979, 0.601131724222796, 0.616305007119081, 0.6340560380340321, 0.6510998266312527, 0.6662778882018756, 0.6842989136348478, 0.7013102756027365, 0.7164197291858727, 0.7344810319482349, 0.751095423445804, 0.7663028396491427, 0.7842675451247487, 0.8011137018329464, 0.8163293100369629, 0.8352780790010002, 0.8509937402850483, 0.8685792246251367, 0.8844365391705651, 0.9005423442577012, 0.9162778028694447, 0.9347510947409319, 0.9508159398537828, 0.9657711108593503, 0.9842034427565522, 1.0010868047829717, 1.016304119650158, 1.0339329532871488, 1.0510023418901255, 1.0661339821381262, 1.0842799355159514, 1.1025269235105952, 1.1163724204234313, 1.13428182991629, 1.1510143226769287, 1.1659244377078721, 1.1843024976406014, 1.200530499991146, 1.2163116972515127, 1.2339879762002965, 1.2511017381038982, 1.2659790851466823, 1.2843462224118412, 1.3006523900694447, 1.31633323537244, 1.3338081277615856, 1.3510287269455148, 1.3656405167857883, 1.3841564753092825, 1.401255901218974, 1.4161400749289896, 1.4344819535472197, 1.4511315023555653, 1.46627269993769, 1.484212488081539, 1.5007080956420396, 1.5161517144006211, 1.5343304357520537, 1.551025381879299, 1.5658474329538876, 1.5840701862907736, 1.6013030734611675]
1	钢笔	False	inanimate	animate	left	1.455	[0.0, 0.0, 0.0, 0.0, 0.0, 0.0, 0.0, 1.0, 6.0, 6.0, 6.0, 6.0, 6.0, 6.0, 6.0, 6.0, 6.0, 6.0, 6.0, 6.0, 6.0, 6.0, 6.0, 6.0, 5.0, 5.0, 5.0, 4.0, 4.0, 2.0, 2.0, 2.0, 2.0, 6.0, 9.0, 18.0, 21.0, 27.0, 35.0, 38.0, 41.0, 44.0, 49.0, 56.0, 65.0, 76.0, 91.0, 107.0, 123.0, 137.0, 162.0, 173.0, 263.0, 348.0, 425.0, 506.0, 584.0, 655.0, 691.0, 697.0, 679.0, 585.0, 424.0, 113.0, -99.0, -284.0, -427.0, -520.0, -559.0, -571.0, -575.0, -575.0, -575.0, -574.0, -574.0, -574.0, -574.0, -574.0, -574.0, -574.0, -574.0, -586.0, -617.0, -704.0, -732.0, -779.0, -784.0, -784.0]	[-490.0, -490.0, -490.0, -490.0, -490.0, -490.0, -490.0, -492.0, -501.0, -518.0, -519.0, -519.0, -519.0, -519.0, -519.0, -519.0, -519.0, -519.0, -519.0, -519.0, -519.0, -519.0, -520.0, -520.0, -522.0, -522.0, -522.0, -522.0, -523.0, -522.0, -515.0, -509.0, -509.0, -509.0, -510.0, -514.0, -516.0, -518.0, -521.0, -521.0, -521.0, -521.0, -521.0, -521.0, -519.0, -515.0, -509.0, -499.0, -490.0, -478.0, -456.0, -449.0, -387.0, -323.0, -242.0, -138.0, -27.0, 69.0, 135.0, 206.0, 228.0, 286.0, 348.0, 450.0, 508.0, 540.0, 540.0, 540.0, 533.0, 524.0, 512.0, 493.0, 489.0, 481.0, 481.0, 481.0, 481.0, 481.0, 481.0, 481.0, 481.0, 480.0, 484.0, 494.0, 494.0, 494.0, 494.0, 494.0]	[0.00034815981052815914, 0.005663399744662456, 0.015545336020295508, 0.034283502434846014, 0.05122728041897062, 0.06610121413541492, 0.08393109301687218, 0.10101618293265346, 0.11572013272962067, 0.13437023518781643, 0.1512170745554613, 0.16596061900781933, 0.1840249937667977, 0.20097423308470752, 0.21632398522342555, 0.23492288769921288, 0.25070852228964213, 0.2661545303853927, 0.28435031839762814, 0.30110841114947107, 0.31571132634417154, 0.3341808635450434, 0.35118027884163894, 0.365966489946004, 0.38422405926394276, 0.4010330106539186, 0.41617454956576694, 0.43426315898250323, 0.45063076660153456, 0.4661918039637385, 0.484310109357466, 0.501155242061941, 0.5157465519296238, 0.5341822971531656, 0.551210043093306, 0.5659709955361905, 0.5841541542322375, 0.6010480975819519, 0.6168224681750871, 0.6342089552636025, 0.650577245556633, 0.6661696855735499, 0.6843193936074385, 0.701185006313608, 0.7157527641829802, 0.7342291280656355, 0.7509025701874634, 0.7663274156220723, 0.7838791079702787, 0.8009621498931665, 0.8161221207992639, 0.8342032208747696, 0.8505042685283115, 0.8661397165269591, 0.8842781605635537, 0.9010935972910374, 0.9157620484475046, 0.9341653670271626, 0.9511344036727678, 0.9661919746286003, 0.9841406374325743, 1.0008970235212473, 1.016900770002394, 1.0340435452235397, 1.0503920381888747, 1.0661626541113947, 1.0842430715129012, 1.1011250682058744, 1.1157501700508874, 1.1341306193062337, 1.152023303482565, 1.1660480003047269, 1.1854009077214869, 1.2010203130630543, 1.216212369283312, 1.2342258853896055, 1.2503832317888737, 1.2661483863776084, 1.2843059450824512, 1.3011056804825785, 1.315724638334359, 1.3341207889170619, 1.3511188388802111, 1.36597468193213, 1.3841902672866127, 1.4010743119724793, 1.4168490238953382, 1.4339740497962339]
2	牙齿	False	inanimate	animate	left	1.199	[0.0, 0.0, 0.0, 0.0, 0.0, 0.0, 0.0, -1.0, -1.0, -3.0, -4.0, -4.0, -4.0, -4.0, -4.0, -4.0, -4.0, -4.0, -4.0, -4.0, -4.0, -4.0, -4.0, -7.0, -7.0, -7.0, -7.0, -7.0, 1.0, 9.0, 9.0, 11.0, 12.0, 15.0, 20.0, 27.0, 37.0, 50.0, 62.0, 81.0, 138.0, 193.0, 219.0, 280.0, 351.0, 418.0, 480.0, 507.0, 509.0, 474.0, 383.0, 267.0, 98.0, -1.0, -44.0, -136.0, -269.0, -307.0, -416.0, -479.0, -538.0, -590.0, -628.0, -651.0, -669.0, -686.0, -701.0, -714.0, -720.0, -720.0, -720.0, -720.0, -720.0]	[-490.0, -490.0, -490.0, -490.0, -490.0, -490.0, -490.0, -491.0, -503.0, -509.0, -509.0, -509.0, -509.0, -509.0, -509.0, -509.0, -509.0, -509.0, -509.0, -509.0, -509.0, -509.0, -509.0, -510.0, -510.0, -510.0, -512.0, -512.0, -520.0, -523.0, -523.0, -524.0, -524.0, -524.0, -524.0, -524.0, -524.0, -524.0, -524.0, -521.0, -499.0, -471.0, -450.0, -400.0, -331.0, -245.0, -114.0, -27.0, 55.0, 135.0, 226.0, 302.0, 384.0, 422.0, 433.0, 456.0, 471.0, 473.0, 473.0, 473.0, 473.0, 468.0, 462.0, 460.0, 458.0, 458.0, 462.0, 465.0, 468.0, 468.0, 468.0, 468.0, 468.0]	[0.011103908967925236, 0.015635447984095663, 0.02254095912212506, 0.03910756396362558, 0.0552403343754122, 0.07080683307140134, 0.08858073329611216, 0.10567367388284765, 0.1208551487798104, 0.13932844065129757, 0.1552482191764284, 0.17087274450750556, 0.18903542320185807, 0.20590171856747475, 0.22042954046628438, 0.23870315244130325, 0.25559368246467784, 0.2710188692290103, 0.2885661242471542, 0.30569115014804993, 0.32078456108865794, 0.3388431331695756, 0.35523736476898193, 0.3708670101041207, 0.3890293474687496, 0.4058976908418117, 0.42045281938044354, 0.43884623929625377, 0.45586511059082113, 0.4706540523475269, 0.48889455500466283, 0.5056615224311827, 0.5215867622755468, 0.5387824441277189, 0.5552237797091948, 0.5708541077183327, 0.5890051810856676, 0.6059414497431135, 0.620350829034578, 0.6387974969256902, 0.6558576695242664, 0.670641832621186, 0.6888307939807419, 0.7056001507298788, 0.7208427242585458, 0.7387934350554133, 0.7551866426656488, 0.7708623679791344, 0.7889772600319702, 0.8055820941954153, 0.820404827944003, 0.8387159865669673, 0.8558089271537028, 0.8706439488887554, 0.8887124196335208, 0.9056449336349033, 0.9207595072221011, 0.9389675832353532, 0.9564660276082577, 0.9707194176444318, 0.9902105649962323, 1.005723474387196, 1.020864330639597, 1.0386624655220658, 1.0550003771641059, 1.0708088810642948, 1.0883786640770268, 1.1055528419528855, 1.120278295740718, 1.1385730703768786, 1.1564046559069538, 1.1707177792559378, 1.1900679560058052]
3	番茄	False	animate	inanimate	right	1.397	[0.0, 0.0, 0.0, 0.0, 0.0, 0.0, 0.0, -4.0, -4.0, -4.0, -4.0, -4.0, -4.0, -4.0, -4.0, -4.0, -4.0, -4.0, -4.0, -12.0, -33.0, -42.0, -78.0, -98.0, -108.0, -114.0, -116.0, -116.0, -116.0, -116.0, -107.0, -91.0, -57.0, -45.0, 23.0, 90.0, 187.0, 328.0, 498.0, 666.0, 802.0, 912.0, 924.0, 926.0, 923.0, 893.0, 848.0, 792.0, 737.0, 708.0, 699.0, 698.0, 698.0, 689.0, 664.0, 584.0, 531.0, 500.0, 487.0, 484.0, 484.0, 484.0, 482.0, 477.0, 467.0, 446.0, 392.0, 241.0, 129.0, 85.0, 14.0, 10.0, 16.0, 77.0, 218.0, 388.0, 560.0, 717.0, 831.0, 921.0, 935.0, 936.0, 938.0, 938.0, 938.0]	[-490.0, -490.0, -490.0, -490.0, -490.0, -490.0, -490.0, -492.0, -494.0, -494.0, -494.0, -494.0, -494.0, -494.0, -494.0, -494.0, -494.0, -494.0, -494.0, -500.0, -508.0, -515.0, -532.0, -537.0, -539.0, -539.0, -539.0, -539.0, -539.0, -539.0, -534.0, -524.0, -494.0, -480.0, -399.0, -326.0, -241.0, -138.0, -34.0, 63.0, 159.0, 265.0, 287.0, 315.0, 324.0, 348.0, 364.0, 379.0, 395.0, 402.0, 406.0, 407.0, 407.0, 407.0, 412.0, 423.0, 433.0, 442.0, 446.0, 448.0, 448.0, 449.0, 449.0, 449.0, 451.0, 454.0, 456.0, 470.0, 472.0, 476.0, 481.0, 482.0, 482.0, 482.0, 482.0, 482.0, 482.0, 482.0, 482.0, 482.0, 484.0, 485.0, 486.0, 486.0, 486.0]	[0.013898062214138918, 0.02082405333931092, 0.02649223175831139, 0.04302777530392632, 0.05986130268138368, 0.07489122565311845, 0.092525861953618, 0.10956589589477517, 0.1247169921407476, 0.14275952156458516, 0.15920256382378284, 0.17480626782344189, 0.19246616278542206, 0.20951097538636532, 0.22471429560391698, 0.24278242501895875, 0.25929270990309305, 0.274815859287628, 0.29251159423438367, 0.3096936227666447, 0.32464640444959514, 0.3427582245058147, 0.359199218757567, 0.37540469312807545, 0.39318268935312517, 0.4093710970628308, 0.4271074506541481, 0.44306614114611875, 0.4598853325296659, 0.47461931966245174, 0.49298099559382536, 0.5096165497379843, 0.5243348355288617, 0.5427156261284836, 0.5603256864415016, 0.574627204448916, 0.5926564218825661, 0.6095076985948253, 0.6243379416700918, 0.6427771002199734, 0.659748184873024, 0.6745900332753081, 0.6928800292371307, 0.7095623460336355, 0.7248233515565516, 0.7427488037064904, 0.7590348327066749, 0.7751556564471684, 0.7928674340510042, 0.8097248547564959, 0.8242833966360195, 0.8426979791984195, 0.8589826428651577, 0.8747877334390068, 0.8928835108381463, 0.9097057742328616, 0.9256497874011984, 0.9427959759486839, 0.9594748794042971, 0.9749594581517158, 0.9924111398868263, 1.009509541792795, 1.024624798053992, 1.0427646074385848, 1.0590789670823142, 1.0748383190075401, 1.092908837759751, 1.1094307279709028, 1.1243988696369343, 1.1427383589179954, 1.1598289101675618, 1.1750977663468802, 1.1928030586132081, 1.209538623385015, 1.2248067968903342, 1.2428230436635204, 1.2589592274016468, 1.2747619286528789, 1.2924433275911724, 1.3096212601376465, 1.3247853270440828, 1.3427981604763772, 1.3592268667416647, 1.3748274987447076, 1.392609590984648]
4	和尚	True	inanimate	animate	right	1.578	[0.0, 0.0, 0.0, 0.0, 0.0, 0.0, 0.0, 2.0, 8.0, 8.0, 8.0, 8.0, 8.0, 8.0, 8.0, 8.0, 8.0, 8.0, 8.0, 8.0, 8.0, 8.0, 8.0, 8.0, 8.0, 8.0, 7.0, 6.0, 12.0, 14.0, 14.0, 17.0, 18.0, 19.0, 21.0, 26.0, 36.0, 66.0, 77.0, 102.0, 129.0, 130.0, 86.0, 10.0, -94.0, -230.0, -381.0, -518.0, -642.0, -745.0, -829.0, -840.0, -846.0, -846.0, -846.0, -846.0, -846.0, -847.0, -847.0, -847.0, -847.0, -847.0, -847.0, -847.0, -848.0, -811.0, -715.0, -568.0, -400.0, -187.0, 18.0, 278.0, 348.0, 502.0, 583.0, 611.0, 670.0, 691.0, 703.0, 715.0, 725.0, 739.0, 751.0, 760.0, 767.0, 772.0, 776.0, 779.0, 784.0, 788.0, 791.0, 797.0, 802.0, 804.0, 804.0, 805.0]	[-490.0, -489.0, -489.0, -489.0, -489.0, -489.0, -489.0, -489.0, -489.0, -496.0, -497.0, -497.0, -497.0, -497.0, -497.0, -497.0, -497.0, -497.0, -497.0, -497.0, -497.0, -497.0, -497.0, -497.0, -497.0, -498.0, -502.0, -503.0, -508.0, -508.0, -508.0, -508.0, -510.0, -510.0, -510.0, -510.0, -510.0, -501.0, -494.0, -472.0, -391.0, -303.0, -204.0, -90.0, 11.0, 121.0, 226.0, 302.0, 361.0, 407.0, 434.0, 438.0, 440.0, 440.0, 440.0, 440.0, 440.0, 440.0, 440.0, 440.0, 440.0, 440.0, 440.0, 440.0, 438.0, 431.0, 414.0, 384.0, 357.0, 328.0, 299.0, 268.0, 268.0, 268.0, 268.0, 268.0, 271.0, 275.0, 277.0, 281.0, 286.0, 292.0, 297.0, 301.0, 306.0, 310.0, 317.0, 320.0, 334.0, 347.0, 362.0, 377.0, 393.0, 406.0, 413.0, 417.0]	[0.013768696939223446, 0.01913172352942638, 0.025775773465284146, 0.043934697489021346, 0.06096688077377621, 0.07616678766498808, 0.09430796236847527, 0.1106666953273816, 0.12627961533144116, 0.144049419570365, 0.1610007068957202, 0.17656925358460285, 0.19421549521212, 0.21108759324124549, 0.22623561749060173, 0.24449079747137148, 0.2610440903372364, 0.2764754210948013, 0.2946732571144821, 0.3128338878159411, 0.3262714916054392, 0.34450073026528116, 0.3609079325397033, 0.3757050662970869, 0.3941135048662545, 0.41105796552437823, 0.4264247843238991, 0.44394234335049987, 0.46099056929233484, 0.47629014546691906, 0.49419204563309904, 0.5128397587541258, 0.5262026105774567, 0.544545171855134, 0.5609158514707815, 0.5757280038815225, 0.5941879837628221, 0.6105631007085321, 0.6262091300304746, 0.6445165339973755, 0.661319341394119, 0.6757393020088784, 0.6941811912402045, 0.7111819718702463, 0.7260617082501994, 0.7451016131672077, 0.7610333383345278, 0.776236999896355, 0.793993833460263, 0.811265291282325, 0.8262324089591857, 0.8444520902994554, 0.8608835272170836, 0.8757076262991177, 0.8939877235970926, 0.9109854322305182, 0.9264266616519308, 0.9437984714313643, 0.9609647986362688, 0.9759486416296568, 0.9943673202069476, 1.010444794635987, 1.0261792292585596, 1.0441821640415583, 1.0613798939011758, 1.0762777209311025, 1.0940837064845255, 1.111116231099004, 1.126087786105927, 1.1445122673321748, 1.1629196819121717, 1.1757951099862112, 1.1941854579054052, 1.2112026225222507, 1.2260908922326053, 1.2450396611966426, 1.2610454556706827, 1.276228978560539, 1.2940189214568818, 1.3113456752471393, 1.3262093689700123, 1.344511311603128, 1.360821916576242, 1.3760617594525684, 1.3942459421377862, 1.4112204401171766, 1.4261254351440584, 1.4449581508379197, 1.4614196250768146, 1.4762140281673055, 1.4940418590413174, 1.5110552690020995, 1.5262336718878942, 1.544496019880171, 1.5606796489155386, 1.575717081228504]
5	香蕉	False	inanimate	animate	right	1.167	[0.0, 0.0, 0.0, 0.0, 0.0, 0.0, 1.0, -6.0, -10.0, -10.0, -10.0, -10.0, -10.0, -10.0, -10.0, -10.0, -10.0, -10.0, -10.0, -10.0, -10.0, -10.0, -10.0, -11.0, -13.0, -16.0, -14.0, -8.0, 0.0, 7.0, 11.0, 22.0, 42.0, 89.0, 226.0, 345.0, 406.0, 541.0, 693.0, 845.0, 959.0, 959.0, 959.0, 959.0, 949.0, 922.0, 856.0, 705.0, 656.0, 559.0, 537.0, 528.0, 527.0, 527.0, 527.0, 541.0, 573.0, 613.0, 654.0, 707.0, 724.0, 757.0, 770.0, 774.0, 777.0, 783.0, 789.0, 799.0, 803.0, 803.0, 803.0]	[-490.0, -490.0, -490.0, -490.0, -490.0, -490.0, -490.0, -495.0, -502.0, -502.0, -502.0, -502.0, -502.0, -502.0, -502.0, -502.0, -502.0, -502.0, -502.0, -502.0, -502.0, -502.0, -502.0, -503.0, -506.0, -507.0, -517.0, -523.0, -526.0, -527.0, -527.0, -515.0, -503.0, -490.0, -452.0, -419.0, -394.0, -329.0, -241.0, -134.0, 14.0, 111.0, 209.0, 278.0, 329.0, 361.0, 398.0, 454.0, 470.0, 495.0, 502.0, 504.0, 504.0, 504.0, 505.0, 509.0, 513.0, 516.0, 516.0, 509.0, 503.0, 490.0, 485.0, 483.0, 481.0, 474.0, 465.0, 455.0, 453.0, 453.0, 453.0]	[0.015325517480960116, 0.022268575252383016, 0.02904642777866684, 0.04790883946407121, 0.06456589759909548, 0.07971699384506792, 0.09749840339645743, 0.11455379733524751, 0.12975916554569267, 0.14767915637639817, 0.16419251325714868, 0.1797323879727628, 0.19736838960670866, 0.21448215151031036, 0.22959365310089197, 0.24770035316760186, 0.26415704874671064, 0.2797334461065475, 0.2974817463400541, 0.3144589749863371, 0.329667756537674, 0.3477785525901709, 0.3641492322058184, 0.37968364558764733, 0.3973780152009567, 0.4144849504373269, 0.42971455330553, 0.4476417121331906, 0.4645537461328786, 0.4796963090484496, 0.49787844374077395, 0.514628344506491, 0.5293084009899758, 0.5478311861661496, 0.5647302495199256, 0.5795342099299887, 0.5976757259777514, 0.6144345014035935, 0.6296982375788502, 0.6477540790074272, 0.6642042892490281, 0.6796898919856176, 0.6978931893390836, 0.7146273887628922, 0.7292166506376816, 0.747690625168616, 0.7654505307436921, 0.779591963510029, 0.7990657028713031, 0.8144690443150466, 0.8297191271703923, 0.8476186380139552, 0.8643743414286291, 0.8797418429021491, 0.8978451296279673, 0.9146151690365514, 0.9292696255433839, 0.9476934241101844, 0.9655717722780537, 0.979583157110028, 0.9990531418006867, 1.0146640138118528, 1.029724998108577, 1.0476883382361848, 1.0639279459282989, 1.079750785822398, 1.0977875125827268, 1.1197710746637313, 1.129255016479874, 1.1477064630307723, 1.1647161183209391]
6	镜子	False	animate	inanimate	right	1.006	[0.0, 0.0, 0.0, 0.0, 0.0, -9.0, -24.0, -27.0, -27.0, -27.0, -27.0, -27.0, -27.0, -27.0, -27.0, -27.0, -27.0, -27.0, -27.0, -27.0, -27.0, -27.0, -27.0, -27.0, -27.0, -26.0, -20.0, -11.0, 8.0, 31.0, 34.0, 57.0, 103.0, 186.0, 330.0, 432.0, 539.0, 634.0, 712.0, 772.0, 802.0, 807.0, 781.0, 726.0, 647.0, 558.0, 433.0, 389.0, 378.0, 378.0, 407.0, 498.0, 609.0, 725.0, 804.0, 864.0, 877.0, 878.0, 878.0, 878.0, 878.0]	[-490.0, -490.0, -490.0, -490.0, -490.0, -493.0, -495.0, -497.0, -497.0, -497.0, -497.0, -497.0, -497.0, -497.0, -497.0, -497.0, -497.0, -497.0, -497.0, -497.0, -497.0, -497.0, -497.0, -497.0, -497.0, -497.0, -495.0, -494.0, -497.0, -502.0, -502.0, -489.0, -459.0, -406.0, -303.0, -222.0, -127.0, -43.0, 53.0, 150.0, 233.0, 283.0, 322.0, 361.0, 401.0, 439.0, 479.0, 492.0, 497.0, 498.0, 502.0, 507.0, 507.0, 507.0, 507.0, 507.0, 508.0, 509.0, 509.0, 509.0, 509.0]	[0.007390545535599813, 0.015477069391636178, 0.029816475391271524, 0.047799612846574746, 0.0647925428202143, 0.07954735125531442, 0.09813772041525226, 0.11444696005492005, 0.13004452007589862, 0.14775186033512, 0.16474171831214335, 0.1799132945452584, 0.19794285330863204, 0.21431489825772587, 0.2304582499928074, 0.24824034221819602, 0.26458576318691485, 0.27945082224323414, 0.297925138118444, 0.31473067618208006, 0.33015381495351903, 0.34770550730172545, 0.36464962661557365, 0.37994271745264996, 0.3979323402454611, 0.4150088968453929, 0.4299784038448706, 0.4482803464634344, 0.46467491940711625, 0.47955431445734575, 0.4981399049429456, 0.5144109152752208, 0.5299654673144687, 0.5477595061965985, 0.5646746122074546, 0.5799735057080397, 0.5978747232147725, 0.615038661082508, 0.6299583334475756, 0.6475936524220742, 0.6647241396567551, 0.6799110758729512, 0.6977402720804093, 0.7150455218798015, 0.7298993169533787, 0.7475677452312084, 0.7647023284662282, 0.7800275046174647, 0.7978369034972275, 0.8170048083557049, 0.8298949137533782, 0.8482876509951893, 0.8644214454106987, 0.8794954003533348, 0.8980004362092586, 0.9147919796087081, 0.9301174971042201, 0.9476115041470621, 0.9646986420702888, 0.9798767036263598, 0.9978045451134676]
7	岛屿	False	inanimate	animate	left	1.138	[0.0, 0.0, 0.0, 0.0, 0.0, 0.0, -2.0, -5.0, 0.0, 0.0, 8.0, 8.0, 8.0, 8.0, 8.0, 8.0, 8.0, 8.0, 8.0, 8.0, 8.0, 8.0, 8.0, 15.0, 20.0, 31.0, 44.0, 67.0, 83.0, 97.0, 114.0, 140.0, 167.0, 192.0, 279.0, 360.0, 449.0, 538.0, 606.0, 653.0, 676.0, 681.0, 681.0, 672.0, 664.0, 659.0, 647.0, 631.0, 580.0, 492.0, 393.0, 266.0, 107.0, -63.0, -231.0, -427.0, -532.0, -579.0, -664.0, -692.0, -709.0, -723.0, -733.0, -747.0, -763.0, -792.0, -799.0, -802.0, -802.0]	[-490.0, -490.0, -490.0, -490.0, -490.0, -490.0, -491.0, -502.0, -528.0, -532.0, -539.0, -539.0, -539.0, -539.0, -539.0, -539.0, -539.0, -539.0, -539.0, -539.0, -539.0, -539.0, -539.0, -539.0, -539.0, -539.0, -539.0, -537.0, -537.0, -538.0, -539.0, -537.0, -530.0, -524.0, -487.0, -430.0, -351.0, -261.0, -168.0, -81.0, 5.0, 69.0, 132.0, 210.0, 247.0, 261.0, 287.0, 304.0, 332.0, 367.0, 392.0, 406.0, 406.0, 406.0, 411.0, 417.0, 430.0, 432.0, 434.0, 437.0, 439.0, 442.0, 443.0, 448.0, 453.0, 465.0, 468.0, 470.0, 470.0]	[0.012372644312563352, 0.017448268379666843, 0.0224511884880485, 0.04126922685827594, 0.05818057819851674, 0.07294050663767848, 0.09117793729819823, 0.10785718209808692, 0.1226860598399071, 0.1424383270641556, 0.15818197766202502, 0.17306000737880822, 0.19104416883783415, 0.20790329620649572, 0.2231369950750377, 0.24102558325103018, 0.25892680074321106, 0.2731088521541096, 0.29129064551671036, 0.30801562895067036, 0.3226035254774615, 0.3410546306986362, 0.3574410116416402, 0.3731037662946619, 0.3912882903096033, 0.40806379105197266, 0.42270357022061944, 0.4411833474296145, 0.4574645977700129, 0.4731014110875549, 0.4912808151129866, 0.5080214998743031, 0.5226186124054948, 0.5411417389259441, 0.558129548895522, 0.5729294133052463, 0.591108817330678, 0.6079778433631873, 0.6226541451906087, 0.641192631694139, 0.6573264260950964, 0.6731188873527572, 0.6914402859692927, 0.7075208323949482, 0.7238512347103097, 0.7411882284941385, 0.758120742495521, 0.7729185589123517, 0.7913089068315458, 0.8079171543358825, 0.8230989705625689, 0.8409111001092242, 0.8572974810522282, 0.8731602569314418, 0.8912492076633498, 0.9079079724760959, 0.9226354742568219, 0.9410766808141489, 0.9577183789660921, 0.9733155976427952, 0.9907075460796477, 1.007962619914906, 1.0230331615312025, 1.0410698882915312, 1.0575579865108011, 1.072918319987366, 1.0907075802097097, 1.107699144849903, 1.1230509449815145]
8	汽车	False	animate	inanimate	right	0.912	[0.0, 0.0, 0.0, 0.0, 0.0, 0.0, 0.0, -1.0, -3.0, -3.0, -3.0, -3.0, -3.0, -3.0, -3.0, -3.0, -3.0, -3.0, -3.0, -3.0, -3.0, -3.0, -6.0, -7.0, -7.0, 0.0, 11.0, 22.0, 32.0, 49.0, 58.0, 105.0, 168.0, 205.0, 301.0, 392.0, 502.0, 627.0, 742.0, 800.0, 836.0, 858.0, 861.0, 866.0, 871.0, 872.0, 887.0, 905.0, 923.0, 939.0, 944.0, 944.0, 944.0, 944.0, 944.0, 944.0]	[-490.0, -490.0, -490.0, -490.0, -490.0, -490.0, -493.0, -495.0, -497.0, -497.0, -497.0, -497.0, -497.0, -497.0, -497.0, -497.0, -497.0, -497.0, -497.0, -497.0, -497.0, -497.0, -499.0, -499.0, -500.0, -500.0, -493.0, -488.0, -486.0, -481.0, -478.0, -437.0, -380.0, -343.0, -272.0, -213.0, -153.0, -85.0, -22.0, 26.0, 73.0, 139.0, 157.0, 189.0, 228.0, 238.0, 268.0, 295.0, 327.0, 364.0, 385.0, 394.0, 404.0, 408.0, 409.0, 409.0]	[0.012034383180434816, 0.019814731189399026, 0.024502942120307125, 0.04112040561449248, 0.057776098416070454, 0.07272956275846809, 0.09051540965447202, 0.10759401424729731, 0.1222508600767469, 0.14091256786196027, 0.15721293284150306, 0.1727862582047237, 0.19122132076881826, 0.2074261124653276, 0.222906936542131, 0.24091430865519214, 0.2587506728596054, 0.27269993504160084, 0.29060354188550264, 0.3075944238516968, 0.3227240161068039, 0.3410532653797418, 0.35711025982163846, 0.3728262624499621, 0.391180429054657, 0.4075043460325105, 0.4222093198332004, 0.44081948630628176, 0.45771923231950495, 0.47258838737616315, 0.49110605256282724, 0.5074542041838868, 0.523152798821684, 0.540836245767423, 0.5577117571228882, 0.5726010508369654, 0.5910589827108197, 0.6074252249964047, 0.6231698996125488, 0.6408833838650025, 0.6577664045616984, 0.6727563915483188, 0.6904555398214143, 0.707781269622501, 0.7223350328276865, 0.7408581593481358, 0.7582466944440966, 0.7727861216699239, 0.7908054404397262, 0.8077440984343411, 0.8227999627270037, 0.8406748975830851, 0.8571329584810883, 0.8728155104472535, 0.8911853783793049, 0.9074430767213926]
9	电视	False	inanimate	animate	left	1.183	[0.0, 0.0, 0.0, 0.0, 0.0, 0.0, 0.0, -3.0, -15.0, -15.0, -15.0, -15.0, -15.0, -15.0, -15.0, -15.0, -15.0, -15.0, -15.0, -15.0, -15.0, -31.0, -42.0, -44.0, -47.0, -40.0, -38.0, -31.0, -20.0, -17.0, -13.0, -10.0, -3.0, 8.0, 28.0, 49.0, 77.0, 135.0, 188.0, 220.0, 333.0, 398.0, 448.0, 488.0, 523.0, 546.0, 555.0, 558.0, 558.0, 558.0, 558.0, 557.0, 504.0, 396.0, 245.0, 75.0, -118.0, -329.0, -517.0, -681.0, -800.0, -894.0, -902.0, -911.0, -911.0, -911.0, -911.0, -911.0, -911.0, -911.0, -911.0, -911.0]	[-490.0, -490.0, -490.0, -490.0, -490.0, -490.0, -490.0, -496.0, -507.0, -510.0, -510.0, -510.0, -510.0, -510.0, -510.0, -510.0, -510.0, -510.0, -510.0, -510.0, -510.0, -519.0, -528.0, -537.0, -539.0, -539.0, -539.0, -537.0, -530.0, -529.0, -525.0, -521.0, -512.0, -500.0, -483.0, -464.0, -440.0, -384.0, -320.0, -286.0, -151.0, -66.0, 3.0, 67.0, 131.0, 187.0, 222.0, 248.0, 269.0, 285.0, 295.0, 298.0, 313.0, 328.0, 350.0, 371.0, 380.0, 387.0, 387.0, 400.0, 414.0, 429.0, 430.0, 432.0, 432.0, 432.0, 432.0, 432.0, 435.0, 438.0, 438.0, 438.0]	[0.013230414551799186, 0.01784319085709285, 0.024915613888879307, 0.043553769690333866, 0.060320395772578195, 0.07525064946094062, 0.09346179747080896, 0.11128246034786571, 0.12523274653358385, 0.1432786892983131, 0.16011119267204776, 0.17541418217297178, 0.19329355435911566, 0.21035816428775433, 0.2251733886951115, 0.24340672335529234, 0.26012283214367926, 0.27536984300240874, 0.29333386580401566, 0.30981001736654434, 0.3253894867229974, 0.3435644534183666, 0.3602945568418363, 0.37522173853358254, 0.3934120652265847, 0.4097404195345007, 0.42536255552840885, 0.44307603979541454, 0.46017068704531994, 0.4751982206798857, 0.4932912674266845, 0.5113662234944059, 0.5254277843050659, 0.5430207779572811, 0.5601563851814717, 0.5753603880730225, 0.5937650719715748, 0.6123312064737547, 0.6252636371791596, 0.6437249823939055, 0.6598246434878092, 0.674787665164331, 0.6933838369732257, 0.7099883298069471, 0.7255838418204803, 0.743422254017787, 0.7602264267479768, 0.7748552832636051, 0.7933388151286636, 0.8099675426201429, 0.8255166333256057, 0.8434403788123745, 0.8601909622375388, 0.8749191466922639, 0.8933514785894658, 0.9103577205532929, 0.925199568955577, 0.9429369465360651, 0.9600845004169969, 0.9754748712148285, 0.9938283551455243, 1.0096163790585706, 1.0253859709919197, 1.0437182922760257, 1.0598855373245897, 1.0748751829814864, 1.0933604215242667, 1.1103362848225515, 1.1252330878633074, 1.1428680655080825, 1.1601064140122617, 1.1752636542514665]
10	工人	True	animate	inanimate	left	1.17	[0.0, 0.0, 0.0, 0.0, 0.0, 0.0, -3.0, -4.0, -6.0, -7.0, -7.0, -7.0, -7.0, -7.0, -7.0, -7.0, -7.0, -7.0, -7.0, -7.0, -7.0, -7.0, -7.0, -8.0, -10.0, -13.0, -20.0, -23.0, -23.0, -19.0, -9.0, 3.0, 14.0, 28.0, 64.0, 118.0, 181.0, 268.0, 373.0, 467.0, 551.0, 630.0, 713.0, 787.0, 877.0, 892.0, 907.0, 907.0, 901.0, 875.0, 801.0, 674.0, 535.0, 363.0, 178.0, -27.0, -224.0, -394.0, -596.0, -680.0, -732.0, -760.0, -772.0, -773.0, -775.0, -775.0, -777.0, -783.0, -787.0, -787.0, -787.0, -787.0]	[-490.0, -490.0, -490.0, -490.0, -490.0, -490.0, -496.0, -501.0, -517.0, -518.0, -518.0, -518.0, -518.0, -518.0, -518.0, -518.0, -518.0, -518.0, -518.0, -518.0, -518.0, -518.0, -518.0, -519.0, -526.0, -539.0, -539.0, -539.0, -539.0, -539.0, -537.0, -535.0, -534.0, -530.0, -514.0, -480.0, -431.0, -353.0, -258.0, -156.0, -46.0, 57.0, 157.0, 245.0, 335.0, 350.0, 371.0, 375.0, 380.0, 385.0, 385.0, 385.0, 397.0, 415.0, 426.0, 426.0, 426.0, 426.0, 426.0, 426.0, 426.0, 426.0, 426.0, 426.0, 426.0, 426.0, 426.0, 426.0, 426.0, 426.0, 426.0, 426.0]	[0.008304977076477371, 0.01535350680933334, 0.02061072010837961, 0.03471528888621833, 0.0501414996542735, 0.06462392424873542, 0.0831330561049981, 0.09944434375211131, 0.11505555709300097, 0.133265339769423, 0.1499954431928927, 0.16470485433819704, 0.18306755427329335, 0.2001069055404514, 0.21489277530054096, 0.23278887280321214, 0.24992584537540097, 0.2649260723555926, 0.28306007907667663, 0.30002092372160405, 0.3148665267799515, 0.3329722028429387, 0.34991359150444623, 0.36499471445858944, 0.38310755851853173, 0.39944137414568104, 0.4151997020817362, 0.43328762882447336, 0.4499361536290962, 0.4649582259444287, 0.4830277206929168, 0.49950421358516905, 0.5151027975953184, 0.5333118976122933, 0.549627622589469, 0.567320626869332, 0.5833929812943097, 0.6001012394117424, 0.614936261146795, 0.6326937773847021, 0.6498618112673284, 0.6650743474747287, 0.6829264130064985, 0.6999896576016909, 0.7148891913093394, 0.7332501845667139, 0.7498297600832302, 0.7666871807887219, 0.7830541057337541, 0.7992244227934862, 0.8150967560068239, 0.8332041387329809, 0.8499482368206372, 0.8649750877957558, 0.8829176066064974, 0.8992650755681098, 0.9150561714923242, 0.9332051968667656, 0.9499199403071543, 0.9649635165988002, 0.9829370967345312, 0.9993262083444279, 1.0151207175949821, 1.033202500329935, 1.049954107758822, 1.064472713653231, 1.0829258668672992, 1.1000618154357653, 1.1148705545201665, 1.1329915905662347, 1.1497821099765133, 1.1644819637876935]
11	炸弹	False	inanimate	animate	left	1.071	[0.0, 0.0, 0.0, 0.0, 0.0, 0.0, -1.0, -1.0, -1.0, 5.0, 7.0, 7.0, 7.0, 7.0, 7.0, 7.0, 7.0, 7.0, 7.0, 7.0, 7.0, 7.0, 7.0, 5.0, 4.0, 7.0, 18.0, 30.0, 48.0, 66.0, 109.0, 182.0, 268.0, 363.0, 469.0, 618.0, 653.0, 717.0, 726.0, 724.0, 710.0, 683.0, 645.0, 609.0, 587.0, 579.0, 577.0, 576.0, 565.0, 485.0, 372.0, 221.0, 22.0, -186.0, -389.0, -556.0, -681.0, -755.0, -779.0, -785.0, -785.0, -785.0, -785.0, -785.0, -785.0, -785.0]	[-490.0, -490.0, -490.0, -490.0, -490.0, -490.0, -490.0, -493.0, -502.0, -521.0, -526.0, -526.0, -526.0, -526.0, -526.0, -526.0, -526.0, -526.0, -526.0, -526.0, -526.0, -526.0, -526.0, -530.0, -531.0, -536.0, -534.0, -534.0, -534.0, -529.0, -514.0, -482.0, -425.0, -338.0, -230.0, -49.0, 3.0, 117.0, 164.0, 194.0, 215.0, 236.0, 258.0, 278.0, 289.0, 294.0, 296.0, 297.0, 301.0, 310.0, 322.0, 341.0, 368.0, 399.0, 431.0, 455.0, 473.0, 485.0, 493.0, 495.0, 495.0, 495.0, 495.0, 495.0, 495.0, 495.0]	[0.008223398457630537, 0.014751053779036738, 0.019819168519461527, 0.033225369654246606, 0.04950559597637039, 0.06534038254176266, 0.08316889607522171, 0.0992392025218578, 0.11491083182045259, 0.13380669415346347, 0.14927079289918765, 0.16446831045323052, 0.18302830094762612, 0.19993692162097432, 0.21464735675544944, 0.23323840857483447, 0.24951897624123376, 0.2652636508428259, 0.2829634817899205, 0.2999519744189456, 0.31468186553684063, 0.33323059204849415, 0.3494957997172605, 0.3653363889461616, 0.38299116390408017, 0.39926012624346185, 0.41492083288903814, 0.43374160191160627, 0.4495234818314202, 0.4647059807321057, 0.48317551794752944, 0.49991449603112414, 0.5146764724777313, 0.5332132523180917, 0.5493542147305561, 0.5654101851687301, 0.582870400234242, 0.5998735701869009, 0.6146846986084711, 0.632490684161894, 0.6496911446884042, 0.6648292702739127, 0.6827332184329862, 0.6990861487283837, 0.7149045512924204, 0.7332908032112755, 0.7492983043484855, 0.764369528638781, 0.7827513432275737, 0.7999105024355231, 0.8146434655645862, 0.8332345173839713, 0.8493119918130105, 0.8650877277395921, 0.8829592492547818, 0.8998801579291467, 0.9146592010220047, 0.9324119386001257, 0.9496448257705197, 0.9648662366525969, 0.9830715819989564, 0.9990613338013645, 1.0147930377570447, 1.0329424044612097, 1.0498134784866124, 1.0643860150303226]
12	海豚	True	inanimate	animate	right	0.977	[0.0, 0.0, 0.0, 0.0, 0.0, 0.0, 0.0, 0.0, 1.0, 7.0, 9.0, 9.0, 9.0, 9.0, 9.0, 9.0, 9.0, 9.0, 9.0, 9.0, 9.0, 9.0, 2.0, 2.0, 2.0, 17.0, 41.0, 65.0, 82.0, 96.0, 113.0, 143.0, 223.0, 258.0, 361.0, 444.0, 546.0, 662.0, 789.0, 889.0, 959.0, 959.0, 959.0, 959.0, 959.0, 959.0, 959.0, 959.0, 959.0, 959.0, 959.0, 959.0, 959.0, 959.0, 959.0, 926.0, 896.0, 881.0, 879.0, 879.0]	[-490.0, -490.0, -490.0, -490.0, -490.0, -490.0, -490.0, -491.0, -496.0, -504.0, -506.0, -506.0, -506.0, -506.0, -506.0, -506.0, -506.0, -506.0, -506.0, -506.0, -506.0, -506.0, -519.0, -518.0, -518.0, -517.0, -517.0, -517.0, -517.0, -512.0, -498.0, -457.0, -343.0, -294.0, -152.0, -38.0, 70.0, 176.0, 264.0, 329.0, 383.0, 394.0, 403.0, 409.0, 411.0, 411.0, 411.0, 411.0, 411.0, 411.0, 411.0, 411.0, 411.0, 411.0, 411.0, 416.0, 423.0, 428.0, 429.0, 429.0]	[0.010788517145556398, 0.01702774594014045, 0.021984927414450794, 0.03782244463218376, 0.05485872391727753, 0.07012860408576671, 0.0882243814994581, 0.1045257704827236, 0.12015370914014056, 0.13822525189607404, 0.15511270990828052, 0.16968729444488417, 0.18820495963154826, 0.20514907895994838, 0.22002437800983898, 0.23790750485204626, 0.25493764014390763, 0.27008907771960367, 0.2883230950392317, 0.30451867074589245, 0.3201182787597645, 0.3382236134930281, 0.35501345022930764, 0.3696679067215882, 0.3881521212606458, 0.405112283246126, 0.42000260096392594, 0.43858375410491135, 0.4548069778102217, 0.47076703363563865, 0.4883388646412641, 0.505132456033607, 0.5201323416840751, 0.5377635646582348, 0.5548268092534272, 0.5701308227580739, 0.5880852882255567, 0.6044320745277219, 0.6201651438022964, 0.6392671713547315, 0.6547647207626142, 0.6697311557654757, 0.6883205009071389, 0.7051577829552116, 0.7200402500020573, 0.7378175635676598, 0.7548995814868249, 0.7695554033125518, 0.7880341565178242, 0.8045014334202278, 0.8201781827374361, 0.8394338102079928, 0.8547238290484529, 0.8698035866545979, 0.888375182490563, 0.9044857662374852, 0.9201956248580245, 0.937747317206231, 0.9549546043999726, 0.9699483460572083]
13	歌手	True	animate	inanimate	left	1.226	[0.0, 0.0, 0.0, 0.0, 0.0, 0.0, 0.0, 0.0, 0.0, 0.0, 0.0, 0.0, 0.0, 0.0, 0.0, 0.0, 0.0, 0.0, 0.0, 0.0, 0.0, 0.0, 0.0, 0.0, 0.0, 0.0, 0.0, 0.0, 0.0, 0.0, 0.0, 0.0, 6.0, 47.0, 99.0, 184.0, 285.0, 408.0, 545.0, 698.0, 851.0, 959.0, 959.0, 959.0, 959.0, 959.0, 919.0, 824.0, 688.0, 521.0, 312.0, 74.0, -173.0, -413.0, -619.0, -773.0, -881.0, -892.0, -898.0, -898.0, -898.0, -898.0, -898.0, -898.0, -898.0, -898.0, -898.0, -898.0, -898.0, -898.0, -899.0, -900.0, -900.0, -900.0]	[-490.0, -490.0, -490.0, -490.0, -490.0, -492.0, -503.0, -520.0, -523.0, -523.0, -523.0, -523.0, -523.0, -523.0, -523.0, -523.0, -523.0, -523.0, -523.0, -523.0, -523.0, -523.0, -523.0, -523.0, -523.0, -526.0, -528.0, -529.0, -531.0, -531.0, -529.0, -522.0, -506.0, -446.0, -420.0, -393.0, -358.0, -307.0, -225.0, -125.0, -6.0, 111.0, 205.0, 267.0, 313.0, 321.0, 350.0, 379.0, 406.0, 430.0, 444.0, 444.0, 444.0, 444.0, 448.0, 448.0, 448.0, 448.0, 448.0, 448.0, 448.0, 448.0, 448.0, 448.0, 448.0, 448.0, 448.0, 448.0, 448.0, 448.0, 449.0, 449.0, 451.0, 452.0]	[0.007483729510568082, 0.015100578937563114, 0.029826032725395635, 0.048054247396066785, 0.06507858000986744, 0.08021499893220607, 0.09796056851337198, 0.11518185035674833, 0.1302155279990984, 0.14813824949669652, 0.16519296076148748, 0.18016622243158054, 0.19789301868877374, 0.21486683399416506, 0.2298325863230275, 0.24821030492603313, 0.2650697736244183, 0.28005464062152896, 0.2979111434688093, 0.31488120411813725, 0.33012207098363433, 0.3481615284108557, 0.3650766344217118, 0.3801540026906878, 0.3985405959538184, 0.4147907849692274, 0.4297343506477773, 0.44818784519156907, 0.4651104605291039, 0.4802519994409522, 0.4979132597363787, 0.5149795763281872, 0.5301743632153375, 0.5480673887213925, 0.56524736926076, 0.580182060279185, 0.5978562912350753, 0.6149492318218108, 0.6301293413707754, 0.6480506975349272, 0.6651105288037797, 0.6801322597748367, 0.697988762636669, 0.7149270792870084, 0.7297900903504342, 0.7482299315743148, 0.7645664778829087, 0.7801613072224427, 0.7978870794904651, 0.8149957213900052, 0.8296535912231775, 0.8481514590821462, 0.8644620640698122, 0.8801913786737714, 0.8977638923533959, 0.9148855049133999, 0.9297655826230766, 0.9482272691820981, 0.9651502258493565, 0.9802405647933483, 0.9977963531273417, 1.0149599496799055, 1.0296553661464714, 1.0480214794224594, 1.064332425725297, 1.0802358202490723, 1.0985350322152954, 1.114638789309538, 1.1296519869501935, 1.1479723615775583, 1.1649912328575738, 1.1802297103859019, 1.1978899466776056, 1.2149647966143675]
14	饭店	False	inanimate	animate	left	1.909	[0.0, 0.0, 0.0, 0.0, 0.0, 0.0, 0.0, -40.0, -91.0, -93.0, -93.0, -93.0, -93.0, -93.0, -93.0, -93.0, -93.0, -93.0, -93.0, -93.0, -93.0, -93.0, -96.0, -98.0, -99.0, -99.0, -89.0, -81.0, -41.0, 29.0, 160.0, 340.0, 538.0, 730.0, 959.0, 959.0, 959.0, 959.0, 959.0, 959.0, 928.0, 872.0, 785.0, 622.0, 566.0, 449.0, 331.0, 221.0, 103.0, -28.0, -93.0, -122.0, -205.0, -266.0, -334.0, -387.0, -447.0, -543.0, -672.0, -808.0, -933.0, -960.0, -960.0, -960.0, -960.0, -960.0, -960.0, -960.0, -960.0, -960.0, -960.0, -960.0, -960.0, -960.0, -954.0, -940.0, -808.0, -692.0, -558.0, -418.0, -297.0, -186.0, -99.0, -29.0, 1.0, 11.0, 11.0, 8.0, -27.0, -55.0, -75.0, -85.0, -88.0, -88.0, -91.0, -115.0, -179.0, -321.0, -425.0, -470.0, -560.0, -592.0, -616.0, -624.0, -629.0, -633.0, -641.0, -649.0, -656.0, -666.0, -670.0, -673.0, -673.0, -673.0, -673.0]	[-490.0, -490.0, -490.0, -490.0, -490.0, -490.0, -490.0, -502.0, -525.0, -525.0, -525.0, -525.0, -525.0, -525.0, -525.0, -525.0, -525.0, -525.0, -525.0, -525.0, -525.0, -538.0, -539.0, -539.0, -539.0, -533.0, -524.0, -520.0, -502.0, -475.0, -422.0, -348.0, -273.0, -219.0, -145.0, -107.0, -41.0, 35.0, 74.0, 91.0, 152.0, 195.0, 237.0, 290.0, 304.0, 320.0, 334.0, 342.0, 352.0, 367.0, 377.0, 380.0, 393.0, 396.0, 396.0, 399.0, 401.0, 405.0, 405.0, 405.0, 413.0, 415.0, 415.0, 415.0, 415.0, 415.0, 415.0, 415.0, 415.0, 415.0, 415.0, 415.0, 415.0, 415.0, 416.0, 408.0, 365.0, 334.0, 300.0, 260.0, 208.0, 139.0, 54.0, -52.0, -152.0, -303.0, -395.0, -439.0, -539.0, -539.0, -539.0, -539.0, -539.0, -539.0, -539.0, -519.0, -424.0, -224.0, -81.0, -16.0, 139.0, 222.0, 279.0, 315.0, 344.0, 366.0, 384.0, 397.0, 407.0, 421.0, 430.0, 434.0, 437.0, 438.0, 438.0]	[0.008449019675026648, 0.016209911700570956, 0.032068932909169234, 0.0503364008909557, 0.06691495240374934, 0.08163255553517956, 0.10039154326659627, 0.11651509767398238, 0.1320467803889187, 0.14987631792610046, 0.1668712958926335, 0.1821381040790584, 0.20058579597389325, 0.21652878513850737, 0.23199800388829317, 0.249774293450173, 0.2668709886929719, 0.2820254982652841, 0.30000044373446144, 0.3164073046646081, 0.3321195526223164, 0.35030339397781063, 0.36682152951834723, 0.381595111291972, 0.40005270183610264, 0.417049045136082, 0.4318936242052587, 0.4504761426942423, 0.4668126889882842, 0.4816166494128993, 0.500168447921169, 0.5171753725444432, 0.5319602183008101, 0.5541475562786218, 0.566939357726369, 0.5816098568902817, 0.600139468733687, 0.6170429694029735, 0.6318721884890692, 0.6503557203541277, 0.6668939945520833, 0.6820014001568779, 0.7044037780142389, 0.716408123873407, 0.7320804358460009, 0.7495700055587804, 0.7667527167504886, 0.782008602283895, 0.7998773931321921, 0.8163603713619523, 0.8320169820071897, 0.8502817193220835, 0.8667216895701131, 0.8816051806206815, 0.8999873365391977, 0.9170464851340512, 0.9319337308552349, 0.9504978173499694, 0.9667718996788608, 0.982051337196026, 0.9998464000818785, 1.0163635116186924, 1.0320395782619016, 1.0496172119310359, 1.0667743231460918, 1.0820148486818653, 1.099835511558922, 1.116261487142765, 1.132045756399748, 1.150315955033875, 1.166706431977218, 1.1816022110142512, 1.2000389802415157, 1.2162932652572636, 1.2320935771713266, 1.249684864160372, 1.2668034047383117, 1.2816042931517586, 1.3000349183857907, 1.3170397950161714, 1.3319017820613226, 1.3502027006907156, 1.3668051455315435, 1.3820286044065142, 1.3999615658831317, 1.4178634660493117, 1.4320895494456636, 1.4503426814335398, 1.4668836862838361, 1.4815920734254178, 1.500114517271868, 1.516772599410615, 1.5322291888296604, 1.549759035857278, 1.5667799551447388, 1.5815624115784885, 1.600016930126003, 1.616993476098287, 1.6319390897842823, 1.6523689033201663, 1.6668977492226986, 1.6820761521084933, 1.6998425430210773, 1.7164118785294704, 1.7321667931391858, 1.7502850985183613, 1.7665738581854384, 1.7815416585217463, 1.8000344063912053, 1.8170222163462313, 1.831882838072488, 1.8503970899328124, 1.866770841545076, 1.8820629083784297, 1.8998467072815401]
15	麻将	False	inanimate	animate	left	1.147	[0.0, 0.0, 0.0, 0.0, 0.0, -3.0, -13.0, -47.0, -52.0, -52.0, -52.0, -52.0, -52.0, -52.0, -52.0, -52.0, -52.0, -52.0, -53.0, -54.0, -58.0, -61.0, -62.0, -62.0, -57.0, -49.0, -44.0, -36.0, -27.0, -14.0, 4.0, 49.0, 91.0, 138.0, 201.0, 278.0, 356.0, 430.0, 502.0, 584.0, 664.0, 720.0, 761.0, 795.0, 800.0, 802.0, 802.0, 801.0, 788.0, 761.0, 698.0, 592.0, 443.0, 253.0, 43.0, -264.0, -418.0, -546.0, -641.0, -695.0, -727.0, -744.0, -759.0, -767.0, -777.0, -792.0, -806.0, -814.0, -814.0, -814.0]	[-490.0, -490.0, -490.0, -490.0, -490.0, -490.0, -494.0, -524.0, -533.0, -533.0, -533.0, -533.0, -533.0, -533.0, -533.0, -533.0, -533.0, -533.0, -535.0, -539.0, -539.0, -539.0, -539.0, -539.0, -539.0, -539.0, -539.0, -539.0, -538.0, -532.0, -521.0, -505.0, -490.0, -463.0, -420.0, -360.0, -290.0, -216.0, -133.0, -34.0, 58.0, 130.0, 189.0, 259.0, 284.0, 300.0, 310.0, 321.0, 332.0, 345.0, 365.0, 383.0, 404.0, 413.0, 413.0, 413.0, 413.0, 415.0, 415.0, 415.0, 415.0, 415.0, 418.0, 419.0, 420.0, 423.0, 425.0, 428.0, 428.0, 428.0]	[0.015065762956510298, 0.022104394010966644, 0.02844977744098287, 0.04726098912942689, 0.06422661244869232, 0.07911522348877043, 0.0969922063377453, 0.11412303490214981, 0.12906762458442245, 0.1473023245780496, 0.16351394294179045, 0.17912140162661672, 0.19840228775865398, 0.21380665319156833, 0.22888777614571154, 0.24739997999859042, 0.2641949367389316, 0.2789364331838442, 0.2968291173601756, 0.3139865699049551, 0.329204226116417, 0.3473433528270107, 0.36359832050220575, 0.3791439978813287, 0.3975292257964611, 0.41388318009558134, 0.4288830657460494, 0.4472054883663077, 0.4635171173431445, 0.479203423979925, 0.49749990527925547, 0.5137292729777982, 0.5298927633557469, 0.5473724344192306, 0.5635335354745621, 0.5791741034627194, 0.5975729847123148, 0.6137460324243875, 0.6299487761280034, 0.6473830498725874, 0.663444140314823, 0.6792144149076194, 0.6974692535586655, 0.71362625862821, 0.729724213044392, 0.7471526841254672, 0.7641698487423128, 0.7789226091845194, 0.7967033360910136, 0.8139618232526118, 0.8291409088124055, 0.8472042595676612, 0.8633943739405368, 0.8791738645231817, 0.8974853644904215, 0.91357956425054, 0.9298085906048073, 0.9472401336824987, 0.9641753783362219, 0.9789322347933194, 0.9966822417045478, 1.0139980728272349, 1.029140635742806, 1.0472132024879102, 1.0633906875445973, 1.0791725674644113, 1.0975618913798826, 1.113598064504913, 1.129830504200072, 1.147289012587862]
16	香蕉	False	animate	inanimate	right	1.084	[0.0, 0.0, 0.0, 0.0, 0.0, 0.0, 0.0, -5.0, -11.0, -11.0, -11.0, -11.0, -11.0, -11.0, -11.0, -11.0, -11.0, -11.0, -11.0, -11.0, -11.0, -11.0, -11.0, -11.0, -12.0, -15.0, -17.0, -17.0, -13.0, -4.0, 3.0, 48.0, 116.0, 198.0, 298.0, 413.0, 537.0, 668.0, 784.0, 884.0, 959.0, 959.0, 959.0, 959.0, 958.0, 952.0, 947.0, 938.0, 920.0, 894.0, 851.0, 789.0, 726.0, 679.0, 657.0, 648.0, 648.0, 648.0, 650.0, 664.0, 672.0, 678.0, 683.0, 692.0, 706.0, 719.0]	[-490.0, -490.0, -490.0, -490.0, -490.0, -490.0, -490.0, -503.0, -515.0, -519.0, -519.0, -519.0, -519.0, -519.0, -519.0, -519.0, -519.0, -519.0, -519.0, -519.0, -519.0, -519.0, -519.0, -519.0, -522.0, -525.0, -529.0, -530.0, -531.0, -519.0, -506.0, -447.0, -401.0, -361.0, -313.0, -246.0, -160.0, -65.0, 41.0, 137.0, 226.0, 324.0, 343.0, 385.0, 397.0, 404.0, 408.0, 409.0, 411.0, 413.0, 413.0, 413.0, 414.0, 414.0, 414.0, 414.0, 414.0, 414.0, 414.0, 412.0, 412.0, 413.0, 418.0, 427.0, 436.0, 442.0]	[0.01549550138588529, 0.022293833913863637, 0.029378886276390404, 0.04798939409374725, 0.06507311867608223, 0.07982485511456616, 0.09775167261250317, 0.11484017585462425, 0.13008104272012133, 0.14820310278446414, 0.1644601184525527, 0.18007167312316597, 0.1984729437099304, 0.21465691408957355, 0.23059239392750897, 0.24812292361457366, 0.265049976282171, 0.279907184682088, 0.2977578848658595, 0.31485731079010293, 0.33000362836173736, 0.34817040305642877, 0.36439669875835534, 0.3799672934546834, 0.39845082531974185, 0.41479283294756897, 0.4309218486887403, 0.4482769331370946, 0.46511182584799826, 0.47991544494288974, 0.49930862967448775, 0.5148447497194866, 0.5300750352616888, 0.5481496499996865, 0.5644438710005488, 0.5800264123536181, 0.5984768349007936, 0.6145867359882686, 0.6307348663831363, 0.6480513801943744, 0.6650866354611935, 0.6798083345929626, 0.6977358347503468, 0.7148301406705286, 0.7300085435563233, 0.7481514249375323, 0.764471928589046, 0.7800967952498468, 0.7977543008746579, 0.8148806921089999, 0.8300280336843571, 0.8479534858342959, 0.8642862774722744, 0.8800388027448207, 0.8983871666860068, 0.9144724917860003, 0.9305151502339868, 0.9480388532683719, 0.9650311005680123, 0.9798347196483519, 0.9975830198964104, 1.0149401523376582, 1.0300100112945074, 1.0482484659587499, 1.0642464097618358, 1.08002316969214]
17	岛屿	False	animate	inanimate	right	1.086	[0.0, 0.0, 0.0, 0.0, 0.0, 0.0, 0.0, 0.0, 0.0, 0.0, 2.0, 5.0, 5.0, 6.0, 4.0, 0.0, -7.0, -10.0, -12.0, -15.0, -15.0, -16.0, -16.0, -16.0, -16.0, -16.0, -16.0, -16.0, -19.0, -19.0, -19.0, -19.0, -22.0, -25.0, -26.0, -26.0, -26.0, -26.0, -26.0, -26.0, -19.0, 0.0, 47.0, 107.0, 178.0, 267.0, 370.0, 542.0, 605.0, 786.0, 916.0, 959.0, 959.0, 959.0, 959.0, 959.0, 958.0, 951.0, 934.0, 923.0, 916.0, 906.0, 898.0, 894.0, 894.0, 894.0]	[-490.0, -490.0, -490.0, -490.0, -490.0, -490.0, -490.0, -490.0, -490.0, -490.0, -489.0, -487.0, -487.0, -487.0, -480.0, -475.0, -471.0, -467.0, -464.0, -463.0, -463.0, -463.0, -463.0, -463.0, -463.0, -463.0, -463.0, -463.0, -463.0, -463.0, -463.0, -463.0, -465.0, -469.0, -469.0, -469.0, -469.0, -469.0, -472.0, -474.0, -474.0, -474.0, -451.0, -422.0, -399.0, -374.0, -324.0, -214.0, -167.0, -9.0, 112.0, 220.0, 307.0, 375.0, 418.0, 439.0, 451.0, 459.0, 469.0, 473.0, 475.0, 478.0, 481.0, 483.0, 484.0, 484.0]	[0.0022831774986116216, 0.007001425750786439, 0.01918838484562002, 0.03733502088289242, 0.05411734829249326, 0.06930599118641112, 0.0875983764854027, 0.10409330137190409, 0.11891228044987656, 0.1375163029297255, 0.15434505164739676, 0.16917495337838773, 0.18758100262493826, 0.20406500485842116, 0.21932976503740065, 0.23729139851639047, 0.25380339004914276, 0.2693808114127023, 0.28760800207965076, 0.30409712430264335, 0.3188126794411801, 0.3372330646670889, 0.3543529705784749, 0.3691555656550918, 0.38742064431426115, 0.404062683795928, 0.419323006644845, 0.4372597227920778, 0.45369423170632217, 0.46931807437795214, 0.48762581967457663, 0.5042081258434337, 0.5188656543468824, 0.5374287168378942, 0.5536751511826878, 0.5693396124988794, 0.5876241471414687, 0.6040849387063645, 0.618861933806329, 0.6372843670396833, 0.6541342784184963, 0.6696727878006641, 0.6870241175784031, 0.7041214954952011, 0.718788581318222, 0.7373308224923676, 0.7543046377977589, 0.7691516062041046, 0.7877518740133382, 0.8040737429837463, 0.8193395271664485, 0.837290237977868, 0.8536800322472118, 0.869427778859972, 0.8875959188881097, 0.9040608064533444, 0.9188132255658275, 0.9373411307460628, 0.9543105087359436, 0.9691765917814337, 0.9876314516732236, 1.0040591339202365, 1.0193126301164739, 1.037331266226829, 1.053884559078142, 1.0694411591102835]
18	轮船	False	inanimate	animate	left	1.947	[0.0, 0.0, 0.0, 0.0, 0.0, 0.0, 0.0, 0.0, 0.0, 0.0, 4.0, 5.0, 6.0, 6.0, 6.0, 6.0, 6.0, 6.0, 6.0, 6.0, 6.0, 6.0, 6.0, 6.0, 6.0, 6.0, 6.0, 6.0, 6.0, 9.0, 14.0, 52.0, 99.0, 158.0, 274.0, 384.0, 477.0, 560.0, 634.0, 711.0, 802.0, 836.0, 845.0, 852.0, 834.0, 802.0, 758.0, 703.0, 664.0, 648.0, 646.0, 646.0, 646.0, 646.0, 646.0, 646.0, 646.0, 646.0, 646.0, 646.0, 646.0, 646.0, 646.0, 646.0, 646.0, 646.0, 654.0, 692.0, 711.0, 725.0, 735.0, 741.0, 746.0, 747.0, 747.0, 747.0, 747.0, 748.0, 748.0, 749.0, 749.0, 750.0, 750.0, 751.0, 751.0, 751.0, 751.0, 751.0, 751.0, 751.0, 751.0, 751.0, 723.0, 627.0, 485.0, 308.0, 91.0, -235.0, -326.0, -475.0, -576.0, -647.0, -655.0, -665.0, -665.0, -666.0, -670.0, -680.0, -697.0, -715.0, -730.0, -736.0, -736.0, -736.0, -736.0, -734.0, -734.0]	[-490.0, -490.0, -490.0, -490.0, -490.0, -490.0, -490.0, -491.0, -495.0, -501.0, -503.0, -503.0, -503.0, -503.0, -503.0, -503.0, -503.0, -503.0, -503.0, -503.0, -503.0, -503.0, -503.0, -503.0, -503.0, -503.0, -503.0, -503.0, -505.0, -508.0, -508.0, -508.0, -508.0, -494.0, -445.0, -398.0, -363.0, -317.0, -257.0, -183.0, -52.0, 31.0, 68.0, 157.0, 208.0, 254.0, 301.0, 342.0, 371.0, 383.0, 386.0, 386.0, 386.0, 387.0, 387.0, 387.0, 387.0, 387.0, 387.0, 387.0, 387.0, 387.0, 387.0, 387.0, 387.0, 387.0, 388.0, 387.0, 387.0, 390.0, 395.0, 398.0, 403.0, 407.0, 408.0, 409.0, 410.0, 412.0, 413.0, 416.0, 417.0, 419.0, 420.0, 421.0, 421.0, 421.0, 421.0, 421.0, 421.0, 421.0, 421.0, 421.0, 422.0, 415.0, 388.0, 341.0, 295.0, 243.0, 243.0, 244.0, 262.0, 287.0, 292.0, 305.0, 315.0, 326.0, 336.0, 352.0, 368.0, 383.0, 395.0, 401.0, 407.0, 419.0, 420.0, 426.0, 426.0]	[0.009531728443107568, 0.017637025623116642, 0.03445928901783191, 0.05277693296375219, 0.06902541531599127, 0.08445572208438534, 0.10239960622857325, 0.11877165117766708, 0.13438696051889565, 0.15276672710024286, 0.16899711880250834, 0.18434926026384346, 0.20246005633089226, 0.21936867700424045, 0.23439450397563633, 0.2520960415859008, 0.2692135581601178, 0.28435543840168975, 0.3023334558674833, 0.3198714948812267, 0.33445393008878455, 0.3521424970240332, 0.3691927709587617, 0.38416364329168573, 0.4026584391685901, 0.4187782389053609, 0.4344778575323289, 0.4527692188421497, 0.469096549146343, 0.48404011482489295, 0.5023031454766169, 0.5194097393832635, 0.5343160997581435, 0.55511796643259, 0.5692317512148293, 0.5844780793995596, 0.6023786142322933, 0.6196743067121133, 0.6344011258479441, 0.6527331057877745, 0.6689440414920682, 0.6840453030890785, 0.7022223177918931, 0.7192934130434878, 0.7342666747135809, 0.7520149749616394, 0.7691976861678995, 0.7843306917493464, 0.8022598985699005, 0.8196764229796827, 0.8343957327742828, 0.8527656007063342, 0.8688669684634078, 0.8839736913942033, 0.9022800713573815, 0.9193259079620475, 0.9344322895631194, 0.95191776327556, 0.9691195891355164, 0.9842631760548102, 1.002101588252117, 1.0192825927806552, 1.034445635683369, 1.0527049116790295, 1.0688533834036207, 1.0839276796905324, 1.1023794675711542, 1.1193065202387515, 1.1342862672318006, 1.1519557195279049, 1.1692933959857328, 1.1841615270386683, 1.2026918215415208, 1.2186078453960363, 1.2343590053351363, 1.2526790386182256, 1.2688722249877173, 1.2840202492370736, 1.3023293598671444, 1.319402844455908, 1.3342293328605592, 1.3535634669678984, 1.3693627548782388, 1.384394725842867, 1.4021303967601852, 1.4196155291429022, 1.4343693135888316, 1.4519012086238945, 1.4690856264787726, 1.4843244453513762, 1.502336937453947, 1.5187758837128058, 1.5342963024304481, 1.552052453334909, 1.5691307165980106, 1.5840220583049813, 1.6024827208457282, 1.6187264245381812, 1.6343577765364898, 1.6520514634758001, 1.6691720520466333, 1.6843531855993206, 1.7024776349862805, 1.718639418715611, 1.734365661322954, 1.752362793442444, 1.7692335261381231, 1.7839279186155181, 1.8025701704027597, 1.8193176818313077, 1.8341219835856464, 1.852033782415674, 1.8692267336155055, 1.8843518885405501, 1.9026282311824616, 1.9186261749855476, 1.934390646914835]
19	火车	False	inanimate	animate	left	1.415	[0.0, 0.0, 0.0, 0.0, 0.0, 0.0, 0.0, 0.0, 0.0, 2.0, 6.0, 7.0, 7.0, 7.0, 7.0, 7.0, 7.0, 7.0, 7.0, 7.0, 7.0, 7.0, 7.0, 7.0, 6.0, 4.0, 4.0, 4.0, 4.0, 4.0, 4.0, 10.0, 13.0, 19.0, 25.0, 34.0, 49.0, 72.0, 100.0, 149.0, 274.0, 370.0, 412.0, 518.0, 579.0, 618.0, 638.0, 642.0, 642.0, 642.0, 642.0, 642.0, 642.0, 642.0, 642.0, 642.0, 642.0, 642.0, 642.0, 642.0, 642.0, 641.0, 575.0, 460.0, 248.0, 103.0, 32.0, -172.0, -276.0, -339.0, -373.0, -392.0, -400.0, -402.0, -407.0, -424.0, -449.0, -509.0, -535.0, -637.0, -697.0, -746.0, -781.0, -801.0, -802.0, -802.0]	[-490.0, -490.0, -490.0, -490.0, -490.0, -490.0, -490.0, -490.0, -491.0, -491.0, -491.0, -491.0, -491.0, -491.0, -491.0, -491.0, -491.0, -491.0, -491.0, -491.0, -491.0, -491.0, -491.0, -491.0, -501.0, -506.0, -506.0, -506.0, -508.0, -514.0, -515.0, -518.0, -518.0, -518.0, -518.0, -515.0, -509.0, -496.0, -478.0, -443.0, -340.0, -258.0, -222.0, -132.0, -87.0, -59.0, -49.0, -47.0, -47.0, -47.0, -47.0, -47.0, -47.0, -47.0, -47.0, -47.0, -47.0, -47.0, -47.0, -47.0, -47.0, -46.0, -23.0, 27.0, 120.0, 183.0, 213.0, 303.0, 347.0, 375.0, 387.0, 390.0, 392.0, 392.0, 392.0, 392.0, 392.0, 392.0, 396.0, 410.0, 422.0, 435.0, 450.0, 459.0, 460.0, 460.0]	[0.015870285205892287, 0.023404190680594184, 0.030182725880877115, 0.0490936068672454, 0.06583599829173181, 0.08062562272243667, 0.0992456878448138, 0.1157194500847254, 0.1304452452022815, 0.14902161969803274, 0.16529672603064682, 0.18086732072697487, 0.19860777030407917, 0.21565190024557523, 0.2304558606701903, 0.24888546190049965, 0.26522098420537077, 0.28085165352968033, 0.29864637508580927, 0.3156208730651997, 0.33075012399058323, 0.3490687919402262, 0.36521623967564665, 0.3809660342813004, 0.39919595561514143, 0.4154468272899976, 0.4309535926877288, 0.4489213701453991, 0.4658282841555774, 0.480589919272461, 0.49863040070340503, 0.515613431998645, 0.5307368802605197, 0.549065788203734, 0.5652316679334035, 0.5808906679158099, 0.5992103598691756, 0.6154619142180309, 0.6311908874922665, 0.6488736517785583, 0.6658198190998519, 0.6805889635288622, 0.6984584370511584, 0.7155169029865647, 0.7303007247537607, 0.7487538779678289, 0.7651033949368866, 0.7808371468709083, 0.7985065991670126, 0.8155558490980184, 0.8307318626611959, 0.8488228614005493, 0.8653157382941572, 0.880724541071686, 0.900077448488446, 0.9152763313759351, 0.9303874916367931, 0.9489826394565171, 0.9658325508207781, 0.9806115939281881, 0.9985070087568602, 1.0155941466800869, 1.0307175949419616, 1.04872564971447, 1.0676744186785072, 1.0806706786970608, 1.0984855389106087, 1.115612612804398, 1.1307807757111732, 1.1490438063483452, 1.1651492701057578, 1.1808874593843939, 1.1988613808498485, 1.21570446556143, 1.230365748720942, 1.2488189019350102, 1.2658005679113558, 1.2805932643386768, 1.2983698952302802, 1.315515059788595, 1.3302725988905877, 1.3488479493826162, 1.3658381486893632, 1.3806386957730865, 1.3983583240333246, 1.4156250031956006]
20	蝴蝶	True	animate	inanimate	left	1.458	[0.0, 0.0, 0.0, 0.0, 0.0, 0.0, 2.0, 20.0, 33.0, 33.0, 33.0, 33.0, 33.0, 33.0, 33.0, 33.0, 33.0, 33.0, 33.0, 33.0, 33.0, 33.0, 33.0, 31.0, 29.0, 24.0, 24.0, 24.0, 37.0, 55.0, 77.0, 101.0, 126.0, 164.0, 217.0, 334.0, 375.0, 506.0, 591.0, 632.0, 712.0, 736.0, 752.0, 758.0, 761.0, 761.0, 761.0, 761.0, 761.0, 761.0, 761.0, 761.0, 758.0, 743.0, 710.0, 656.0, 583.0, 485.0, 380.0, 290.0, 243.0, 228.0, 227.0, 227.0, 227.0, 227.0, 226.0, 208.0, 148.0, 35.0, -106.0, -254.0, -392.0, -561.0, -635.0, -657.0, -689.0, -695.0, -702.0, -713.0, -725.0, -736.0, -745.0, -755.0, -765.0, -770.0, -772.0, -772.0]	[-490.0, -490.0, -490.0, -490.0, -490.0, -490.0, -486.0, -483.0, -483.0, -483.0, -483.0, -483.0, -483.0, -483.0, -483.0, -483.0, -483.0, -483.0, -483.0, -483.0, -483.0, -483.0, -483.0, -487.0, -488.0, -491.0, -494.0, -494.0, -494.0, -490.0, -484.0, -471.0, -461.0, -442.0, -414.0, -334.0, -303.0, -183.0, -99.0, -52.0, 51.0, 100.0, 142.0, 171.0, 201.0, 231.0, 257.0, 276.0, 292.0, 302.0, 315.0, 322.0, 339.0, 353.0, 370.0, 391.0, 411.0, 428.0, 442.0, 455.0, 462.0, 465.0, 465.0, 465.0, 465.0, 465.0, 466.0, 469.0, 480.0, 494.0, 515.0, 534.0, 540.0, 540.0, 540.0, 540.0, 540.0, 539.0, 536.0, 531.0, 525.0, 521.0, 517.0, 511.0, 503.0, 500.0, 498.0, 498.0]	[0.007947259931825101, 0.01602286113484297, 0.031087600087630562, 0.049536998631083407, 0.06571687302493956, 0.08065531869942788, 0.09936413045215886, 0.1161444098688662, 0.13093676496646367, 0.14890624908730388, 0.16596300835954025, 0.18111205659806728, 0.19933924726501573, 0.21552936165244319, 0.23111360966868233, 0.24953536024258938, 0.26575551193673164, 0.2816244318091776, 0.29923312678874936, 0.31610420082870405, 0.3309231799066765, 0.34889949069474824, 0.36583883136336226, 0.38114216219400987, 0.39901436636864673, 0.4170108158286894, 0.4311068512761267, 0.449522799171973, 0.4657678681978723, 0.48155247878457885, 0.49929531769885216, 0.5165070422081044, 0.5309730828157626, 0.5489425669366028, 0.5658791769383242, 0.5810398305038689, 0.5990994265885092, 0.6156380421307404, 0.630997010259307, 0.6495430061040679, 0.6655522139044479, 0.681575757698738, 0.6992530606512446, 0.716149393338128, 0.7309868043957977, 0.7488067846134072, 0.7658519385440741, 0.7805982136633247, 0.7991220228432212, 0.8161415767972358, 0.8310250678478042, 0.8501052500796504, 0.8659506179683376, 0.8811092235409888, 0.8992002222803421, 0.9154418779653497, 0.9312240992148872, 0.949463919212576, 0.9655328603112139, 0.9816970333777135, 0.9991698777594138, 1.015353848139057, 1.0311207094055135, 1.0495540652918862, 1.065556105095311, 1.0813598303502658, 1.0991330479155295, 1.1161222232185537, 1.1309609996096697, 1.1487120305246208, 1.165790635117446, 1.181084749958245, 1.1991160153847886, 1.2170636541995918, 1.2310552417038707, 1.248782720620511, 1.2658920451940503, 1.2811059467348969, 1.2993508867366472, 1.3153539505437948, 1.3311546037875814, 1.3494794157304568, 1.3655015941913007, 1.381674983247649, 1.3992263342661317, 1.4160984322952572, 1.4308894220448565, 1.4486926769313868]
21	警察	True	inanimate	animate	left	1.946	[0.0, 0.0, 0.0, 0.0, 0.0, 0.0, 0.0, 0.0, 0.0, 0.0, -2.0, -2.0, -2.0, -2.0, -2.0, -2.0, -2.0, -2.0, -2.0, -2.0, -2.0, -2.0, -2.0, -5.0, -5.0, -4.0, -1.0, 0.0, 1.0, 2.0, 4.0, 6.0, 6.0, 7.0, 8.0, 9.0, 13.0, 15.0, 15.0, 15.0, 15.0, 15.0, 15.0, 15.0, 15.0, 15.0, 15.0, 15.0, 15.0, 15.0, 15.0, 15.0, 11.0, 11.0, 8.0, 4.0, 1.0, -7.0, -15.0, -24.0, -28.0, -30.0, -35.0, -37.0, -46.0, -48.0, -48.0, -41.0, -23.0, 11.0, 58.0, 109.0, 153.0, 200.0, 253.0, 265.0, 288.0, 296.0, 298.0, 299.0, 299.0, 299.0, 299.0, 299.0, 299.0, 299.0, 299.0, 299.0, 299.0, 299.0, 274.0, 136.0, -36.0, -182.0, -323.0, -453.0, -546.0, -602.0, -623.0, -623.0, -623.0, -623.0, -623.0, -626.0, -632.0, -639.0, -645.0, -652.0, -657.0, -663.0, -680.0, -688.0, -720.0, -741.0, -755.0, -760.0, -760.0, -760.0]	[-490.0, -490.0, -490.0, -490.0, -490.0, -490.0, -490.0, -490.0, -490.0, -490.0, -497.0, -497.0, -497.0, -497.0, -497.0, -497.0, -497.0, -497.0, -497.0, -497.0, -497.0, -497.0, -497.0, -500.0, -503.0, -504.0, -503.0, -502.0, -502.0, -502.0, -507.0, -510.0, -510.0, -510.0, -510.0, -510.0, -510.0, -510.0, -508.0, -507.0, -507.0, -507.0, -507.0, -507.0, -507.0, -507.0, -507.0, -507.0, -505.0, -504.0, -499.0, -497.0, -491.0, -488.0, -485.0, -478.0, -469.0, -452.0, -430.0, -411.0, -398.0, -387.0, -365.0, -356.0, -324.0, -307.0, -294.0, -278.0, -259.0, -231.0, -204.0, -175.0, -145.0, -110.0, -63.0, -51.0, -29.0, -18.0, -15.0, -15.0, -15.0, -15.0, -15.0, -15.0, -15.0, -15.0, -15.0, -15.0, -15.0, -15.0, -15.0, -15.0, 5.0, 46.0, 93.0, 164.0, 228.0, 275.0, 306.0, 311.0, 322.0, 328.0, 334.0, 342.0, 350.0, 358.0, 363.0, 366.0, 370.0, 374.0, 384.0, 387.0, 401.0, 411.0, 421.0, 425.0, 425.0, 425.0]	[0.012241572389029898, 0.017556471007992513, 0.022330015228362754, 0.040927893700427376, 0.05722040802356787, 0.07271761610172689, 0.09060279093682766, 0.10754622759122867, 0.1224809186096536, 0.1408272345579462, 0.1572945114603499, 0.17272106355812866, 0.1905157851142576, 0.20754045907233376, 0.22233486216282472, 0.24079006336978637, 0.2572051163006108, 0.27275659634324256, 0.2903564166626893, 0.3074957785574952, 0.3221754937112564, 0.34054979895881843, 0.35740892632748, 0.37294163304613903, 0.3904376880818745, 0.4074910340277711, 0.4227779808570631, 0.44119836609752383, 0.4572021125786705, 0.47261432868253905, 0.49094016462913714, 0.5076299907523207, 0.5222042339592008, 0.5407485231262399, 0.5574421039200388, 0.5728990346688079, 0.590393724371097, 0.6075470809300896, 0.6226910091791069, 0.6406369413161883, 0.6571315248729661, 0.672759463544935, 0.6903732785285683, 0.7074372057832079, 0.7226500833348837, 0.7406724741013022, 0.7570940123550827, 0.7727154656895436, 0.7904149553069146, 0.807518477216945, 0.8227043894294184, 0.8406376922503114, 0.8572408197505865, 0.8727438304777024, 0.8909505411575083, 0.9076905432593776, 0.9222323598078219, 0.940770163651905, 0.9576398723438615, 0.9725534007156966, 0.9911410391941899, 1.0074734895024449, 1.0227235723577905, 1.040604992536828, 1.0570569094415987, 1.0727234187652357, 1.0910697346989764, 1.1071540357952472, 1.1250405759783462, 1.1409299758379348, 1.1577239085745532, 1.1725541516498197, 1.190991944866255, 1.2075114457402378, 1.222701453967602, 1.2405914074770408, 1.2571812229871284, 1.2727238283550832, 1.291057173642912, 1.30726776800293, 1.322324997629039, 1.3408300334849628, 1.3577000835211948, 1.372545003920095, 1.391006349134841, 1.4075302873388864, 1.4226400822662981, 1.4405805530841462, 1.4570648966473527, 1.4727324299601605, 1.490917636649101, 1.5073180122417398, 1.5222277859429596, 1.5407891417708015, 1.5569795974879526, 1.5727147147699725, 1.5902524124539923, 1.6074238596629584, 1.6221523854474071, 1.6406464986503124, 1.6569291143096052, 1.6726792502449825, 1.6910153261997038, 1.7073481178376824, 1.7222558435314568, 1.7409172099723946, 1.7577186520356918, 1.7725553804484662, 1.7909795203449903, 1.8074461145733949, 1.822716677430435, 1.840497745652101, 1.856953417227487, 1.8726827318459982, 1.8908730585390003, 1.9073031301231822, 1.9222617144550895, 1.9409340035635978]
22	杯子	False	inanimate	animate	left	1.247	[0.0, 0.0, 0.0, 0.0, 0.0, 0.0, 0.0, -4.0, -8.0, -8.0, -8.0, -8.0, -8.0, -8.0, -8.0, -8.0, -8.0, -8.0, -8.0, -8.0, -8.0, -9.0, -12.0, -14.0, -14.0, -13.0, -12.0, -8.0, -1.0, 1.0, 6.0, 10.0, 24.0, 25.0, 42.0, 92.0, 143.0, 200.0, 262.0, 313.0, 330.0, 318.0, 270.0, 178.0, -33.0, -107.0, -311.0, -431.0, -475.0, -579.0, -616.0, -633.0, -642.0, -645.0, -645.0, -646.0, -647.0, -648.0, -648.0, -648.0, -648.0, -648.0, -648.0, -648.0, -648.0, -648.0, -648.0, -648.0, -648.0, -648.0, -681.0, -756.0, -799.0, -842.0, -843.0, -844.0]	[-490.0, -490.0, -490.0, -490.0, -490.0, -490.0, -490.0, -493.0, -503.0, -514.0, -514.0, -514.0, -514.0, -514.0, -514.0, -514.0, -514.0, -514.0, -514.0, -514.0, -514.0, -517.0, -522.0, -529.0, -530.0, -533.0, -533.0, -533.0, -533.0, -533.0, -530.0, -526.0, -507.0, -506.0, -499.0, -477.0, -456.0, -418.0, -363.0, -290.0, -199.0, -107.0, -29.0, 48.0, 167.0, 200.0, 277.0, 318.0, 335.0, 378.0, 394.0, 401.0, 406.0, 408.0, 408.0, 410.0, 412.0, 414.0, 414.0, 414.0, 414.0, 414.0, 414.0, 414.0, 414.0, 414.0, 414.0, 414.0, 414.0, 414.0, 420.0, 434.0, 443.0, 456.0, 456.0, 457.0]	[0.014390605967491865, 0.020766368033946492, 0.027093319469713606, 0.045949928477057256, 0.06278823451430071, 0.0776307655905839, 0.09547532178112306, 0.11251364905911032, 0.12720531086961273, 0.1456707520846976, 0.16267767670797184, 0.17724236258072779, 0.1954217666061595, 0.21243824856355786, 0.2277808327053208, 0.24559774092631415, 0.2624121536500752, 0.2772813087067334, 0.2958662165183341, 0.3121580481820274, 0.32750268031668384, 0.3459923561895266, 0.36233265715418383, 0.3802106640068814, 0.395913013300742, 0.4127987646497786, 0.42756927442678716, 0.4454169026139425, 0.46236204594606534, 0.4777756273833802, 0.4957307755248621, 0.5127233641542261, 0.5275437085656449, 0.5457886485528434, 0.56239860272035, 0.5780675013666041, 0.5953283778653713, 0.612198769216775, 0.6276662813033909, 0.6469741327455267, 0.6625293674587738, 0.6777958343009232, 0.6959793343266938, 0.7123663979436969, 0.7276499314466491, 0.7460645140236011, 0.7621457431232557, 0.777204338068259, 0.7954137794149574, 0.8125483626499772, 0.8278107334917877, 0.8456310550391208, 0.8628424382332014, 0.8788482326926896, 0.8958476479892852, 0.9123210688994732, 0.9279022449190961, 0.9471193017379846, 0.9620396567770513, 0.977403403565404, 0.9958118421491235, 1.0121685271005845, 1.0272704713715939, 1.0457243072596611, 1.0625312106567435, 1.0778976881119888, 1.0983967922948068, 1.1123788224649616, 1.1276012573362095, 1.1454604908649344, 1.1642901345476275, 1.1774935837893281, 1.1957648064417299, 1.212149480721564, 1.2305507512937766, 1.2458813887787983]
23	太阳	False	inanimate	animate	left	1.226	[0.0, 0.0, 0.0, 0.0, 0.0, 0.0, -7.0, -7.0, -7.0, -7.0, -7.0, -7.0, -7.0, -7.0, -7.0, -7.0, -7.0, -7.0, -7.0, -7.0, -7.0, -7.0, -7.0, -7.0, -7.0, -6.0, 3.0, 6.0, 15.0, 22.0, 30.0, 49.0, 56.0, 61.0, 99.0, 138.0, 202.0, 283.0, 385.0, 489.0, 597.0, 681.0, 749.0, 834.0, 862.0, 863.0, 843.0, 794.0, 727.0, 646.0, 550.0, 433.0, 296.0, 51.0, -38.0, -323.0, -494.0, -618.0, -723.0, -797.0, -844.0, -869.0, -882.0, -895.0, -900.0, -909.0, -910.0, -918.0, -920.0, -922.0, -925.0, -927.0, -930.0, -930.0, -930.0]	[-490.0, -490.0, -490.0, -490.0, -490.0, -490.0, -499.0, -502.0, -502.0, -502.0, -502.0, -502.0, -502.0, -502.0, -502.0, -502.0, -502.0, -502.0, -502.0, -502.0, -502.0, -502.0, -502.0, -502.0, -502.0, -508.0, -520.0, -525.0, -526.0, -526.0, -528.0, -534.0, -534.0, -534.0, -526.0, -506.0, -470.0, -432.0, -390.0, -329.0, -259.0, -181.0, -118.0, -23.0, 39.0, 62.0, 137.0, 198.0, 256.0, 306.0, 345.0, 387.0, 418.0, 431.0, 431.0, 410.0, 386.0, 370.0, 356.0, 352.0, 352.0, 352.0, 354.0, 360.0, 366.0, 380.0, 386.0, 404.0, 408.0, 409.0, 413.0, 415.0, 419.0, 419.0, 419.0]	[0.013661177014000714, 0.0189289716508938, 0.02562456288433168, 0.04423063335707411, 0.060549430330866016, 0.07616166767547838, 0.09383760529453866, 0.1110503538075136, 0.12565531699510757, 0.14415659819496796, 0.16099695223965682, 0.17589034195407294, 0.19628909416496754, 0.2109114653430879, 0.2255601191864116, 0.24398528308665846, 0.2610038130369503, 0.27598902136378456, 0.2938042229070561, 0.31084084352187347, 0.32588510248751845, 0.34425258108240087, 0.3604740981099894, 0.3760798501170939, 0.39453675800177734, 0.4107729523529997, 0.4260742351907538, 0.4441235912818229, 0.4610571292723762, 0.47589624700776767, 0.49519795445667114, 0.5111098823108478, 0.5256093735515606, 0.5441505907365354, 0.5610462407494197, 0.5760222330864053, 0.5939708958903793, 0.6109255965420743, 0.6256165756931296, 0.6440820168936625, 0.6603642912232317, 0.6760809765110025, 0.694428999122465, 0.7106624628067948, 0.7260541989235207, 0.7440724937041523, 0.7603472587070428, 0.7760581413313048, 0.7944505372433923, 0.8106037876423215, 0.826160387674463, 0.8440940318250796, 0.8609934365085792, 0.875874196892255, 0.8935876811592607, 0.9107806323445402, 0.9259044219361385, 0.9442043165763607, 0.9603340149769792, 0.9760930255724816, 0.994483032161952, 1.0105949812423205, 1.0262819705531, 1.0440824947727378, 1.0618178243457805, 1.0760111397539731, 1.0938195146300131, 1.1108684232458472, 1.125697642317391, 1.1440688755683368, 1.1604566218447872, 1.1761275684984867, 1.1937041781638982, 1.2108530973782763, 1.2256857297907118]
24	苍蝇	True	animate	inanimate	right	0.899	[0.0, 0.0, 0.0, 0.0, 0.0, 0.0, 0.0, -2.0, -4.0, -4.0, -4.0, -4.0, -4.0, -4.0, -4.0, -4.0, -4.0, -4.0, -4.0, -4.0, -4.0, -4.0, -4.0, -4.0, -4.0, 2.0, 6.0, 13.0, 19.0, 19.0, 19.0, 20.0, 25.0, 29.0, 41.0, 62.0, 117.0, 215.0, 409.0, 471.0, 628.0, 714.0, 786.0, 843.0, 872.0, 880.0, 880.0, 878.0, 872.0, 865.0, 860.0, 859.0, 859.0, 859.0, 859.0]	[-490.0, -490.0, -490.0, -490.0, -490.0, -490.0, -490.0, -490.0, -490.0, -490.0, -490.0, -490.0, -490.0, -490.0, -490.0, -490.0, -490.0, -490.0, -490.0, -490.0, -490.0, -490.0, -490.0, -490.0, -490.0, -496.0, -502.0, -502.0, -505.0, -511.0, -513.0, -515.0, -517.0, -518.0, -521.0, -521.0, -517.0, -481.0, -381.0, -338.0, -206.0, -99.0, 6.0, 105.0, 177.0, 229.0, 270.0, 307.0, 340.0, 365.0, 381.0, 391.0, 405.0, 408.0, 408.0]	[0.01176677797047887, 0.016790519395726733, 0.020268704276531935, 0.03908093998325057, 0.05577725142939016, 0.07068429446371738, 0.0886210106255021, 0.10567845255718566, 0.1208329621294979, 0.13869048898050096, 0.15611896006157622, 0.17082393386226613, 0.1884944101475412, 0.20550474811170716, 0.22073025497957133, 0.23870349378557876, 0.25585582632629666, 0.2707703786873026, 0.28920817191828974, 0.3053918009682093, 0.3205101292260224, 0.3389066211384488, 0.35581558315607253, 0.37069668486947194, 0.38988745903770905, 0.40579153623548336, 0.4207975658791838, 0.4386506554001244, 0.4560415798332542, 0.47081584426632617, 0.4891747895308072, 0.5053908452391624, 0.5204296428710222, 0.5388797240884742, 0.5557347554567968, 0.5707947157497983, 0.5885068346833577, 0.6055141006363556, 0.6207686208217638, 0.6386264890170423, 0.6561222027230542, 0.6707500352349598, 0.6891844151250552, 0.7053929615067318, 0.7204996844375273, 0.7389115363330347, 0.7556931810831884, 0.7707272000552621, 0.7884280549915275, 0.8055192889005411, 0.8208120384078939, 0.8385442959988723, 0.8561355829879176, 0.8707354261714499, 0.8892401206976501]
25	家庭	True	animate	inanimate	left	1.215	[0.0, 0.0, 0.0, 0.0, 0.0, 0.0, -4.0, -6.0, -3.0, -3.0, -3.0, -3.0, -3.0, -3.0, -3.0, -3.0, -3.0, -3.0, -3.0, -3.0, -3.0, -3.0, -3.0, -3.0, -3.0, -1.0, 0.0, 3.0, 10.0, 12.0, 18.0, 21.0, 25.0, 32.0, 52.0, 94.0, 141.0, 220.0, 284.0, 326.0, 460.0, 528.0, 592.0, 657.0, 702.0, 716.0, 713.0, 686.0, 623.0, 472.0, 331.0, 249.0, -6.0, -182.0, -339.0, -469.0, -576.0, -654.0, -693.0, -714.0, -722.0, -729.0, -733.0, -743.0, -759.0, -777.0, -793.0, -803.0, -807.0, -810.0, -814.0, -820.0, -820.0, -820.0]	[-490.0, -490.0, -490.0, -490.0, -490.0, -490.0, -493.0, -500.0, -519.0, -521.0, -521.0, -521.0, -521.0, -521.0, -521.0, -521.0, -521.0, -521.0, -521.0, -521.0, -521.0, -521.0, -521.0, -521.0, -521.0, -522.0, -523.0, -523.0, -519.0, -518.0, -521.0, -521.0, -514.0, -500.0, -480.0, -448.0, -400.0, -325.0, -270.0, -234.0, -128.0, -55.0, 25.0, 110.0, 173.0, 212.0, 238.0, 272.0, 315.0, 376.0, 417.0, 432.0, 467.0, 493.0, 498.0, 500.0, 504.0, 504.0, 504.0, 504.0, 504.0, 504.0, 504.0, 504.0, 504.0, 504.0, 504.0, 504.0, 504.0, 503.0, 501.0, 492.0, 490.0, 489.0]	[0.011572559393243864, 0.017406625745934434, 0.03887306808610447, 0.042054634453961626, 0.05649917107075453, 0.07217080036934931, 0.0898774579691235, 0.10714447846112307, 0.12167059369676281, 0.1400141789636109, 0.15718255417596083, 0.17205955990357324, 0.19007205200614408, 0.207030848658178, 0.2216883771470748, 0.23990498649072833, 0.25788744128658436, 0.27211181800521445, 0.2900038195075467, 0.3070619441132294, 0.3217771579074906, 0.3400869511970086, 0.3565648094372591, 0.3721190201322315, 0.38991066969174426, 0.4068855090008583, 0.4217328187369276, 0.4401617372932378, 0.4565781555575086, 0.4721374862565426, 0.48989943982451223, 0.5069876017514616, 0.5221335779933725, 0.5399965661781607, 0.5568550108873751, 0.5720910990785342, 0.5904053296981147, 0.6067271986830747, 0.6216700817021774, 0.6401372295804322, 0.6571291355357971, 0.6719740559346974, 0.690634739716188, 0.7069842566852458, 0.7221391075872816, 0.7398788745049387, 0.7567868125188397, 0.7721024313359521, 0.7904105179623002, 0.8066245256632101, 0.8216554726386676, 0.8401536818273598, 0.8567540786607424, 0.8722700600628741, 0.8896422111574793, 0.9068969436630141, 0.9221204025379848, 0.93984242012084, 0.9566844808286987, 0.9720728036190849, 0.9896548746182816, 1.0068508978147293, 1.0220924473396735, 1.0398581555782584, 1.056870541535318, 1.072107312400476, 1.0904389510251349, 1.1068239666346926, 1.1216081297316123, 1.1400483122852165, 1.1567746610526228, 1.1720465892431093, 1.1901218866551062, 1.2067847474536393]
26	老虎	True	animate	inanimate	left	1.332	[0.0, 0.0, 0.0, 0.0, 0.0, 0.0, -1.0, -8.0, -16.0, -16.0, -16.0, -16.0, -16.0, -16.0, -16.0, -16.0, -16.0, -16.0, -16.0, -16.0, -16.0, -16.0, -16.0, -19.0, -20.0, -19.0, -14.0, -9.0, -2.0, 2.0, 4.0, 14.0, 25.0, 30.0, 44.0, 56.0, 79.0, 120.0, 180.0, 237.0, 259.0, 262.0, 262.0, 262.0, 262.0, 262.0, 262.0, 262.0, 262.0, 262.0, 262.0, 266.0, 306.0, 393.0, 475.0, 590.0, 667.0, 689.0, 721.0, 712.0, 665.0, 578.0, 458.0, 299.0, 114.0, -83.0, -249.0, -481.0, -584.0, -649.0, -679.0, -688.0, -691.0, -691.0, -691.0, -691.0, -691.0, -691.0, -691.0, -691.0, -691.0]	[-490.0, -490.0, -490.0, -490.0, -490.0, -490.0, -494.0, -500.0, -509.0, -509.0, -509.0, -509.0, -509.0, -509.0, -509.0, -509.0, -509.0, -509.0, -509.0, -509.0, -509.0, -509.0, -517.0, -523.0, -527.0, -531.0, -529.0, -520.0, -518.0, -518.0, -518.0, -511.0, -506.0, -503.0, -490.0, -464.0, -418.0, -365.0, -313.0, -277.0, -266.0, -265.0, -265.0, -265.0, -265.0, -265.0, -265.0, -265.0, -265.0, -265.0, -265.0, -262.0, -256.0, -245.0, -219.0, -115.0, -4.0, 43.0, 152.0, 209.0, 263.0, 307.0, 349.0, 385.0, 407.0, 430.0, 441.0, 441.0, 441.0, 441.0, 441.0, 441.0, 442.0, 442.0, 442.0, 442.0, 442.0, 445.0, 447.0, 447.0, 447.0]	[0.014886904376908205, 0.022020426054950804, 0.028085574944270775, 0.046931602628319524, 0.0637695673503913, 0.07846088783117011, 0.09655188655597158, 0.11376326975005213, 0.12830815830966458, 0.14693300210637972, 0.16376140947977547, 0.1784800366149284, 0.19653348870633636, 0.21350423201511148, 0.22871062422927935, 0.24692347890231758, 0.26313748660322744, 0.27881321191671304, 0.2969120613124687, 0.3134363408462377, 0.32837717587244697, 0.3469532090239227, 0.3631436647265218, 0.3787634113978129, 0.39642569569696207, 0.41353740959311835, 0.4286775831860723, 0.4467716539220419, 0.4636044986255001, 0.47870064023300074, 0.4969520655577071, 0.5133759931486566, 0.528228081544512, 0.5468095760297729, 0.5635386554640718, 0.5788976236071903, 0.5964387346175499, 0.6135535205248743, 0.628669800789794, 0.6467423675348982, 0.6637482681544498, 0.6787437164748553, 0.6964432060776744, 0.7135453626542585, 0.7285176003351808, 0.7467847269726917, 0.7636189370241482, 0.7786679746495793, 0.7964855655300198, 0.8135976207704516, 0.8286128664185526, 0.8467799824429676, 0.863787589740241, 0.8786990701046307, 0.8969474234327208, 0.9133665723493323, 0.9282176367560169, 0.9468008379044477, 0.9634561893763021, 0.978870453487616, 0.9963299858791288, 1.013506211747881, 1.028628636006033, 1.0466131387947826, 1.063257908943342, 1.0787650156707969, 1.0975765687035164, 1.1131939260376384, 1.1309903542569373, 1.1468657594668912, 1.162979073880706, 1.1786954178387532, 1.1963737447804306, 1.2135076453414513, 1.2282668911211658, 1.2467026363447076, 1.2634422971168533, 1.2789149291929789, 1.2963014162960462, 1.313422346196603, 1.3287396716768853]
27	毛驴	True	inanimate	animate	right	1.311	[0.0, 0.0, 0.0, 0.0, 0.0, 0.0, 0.0, -4.0, -10.0, -12.0, -12.0, -12.0, -12.0, -12.0, -12.0, -12.0, -12.0, -12.0, -12.0, -12.0, -12.0, -12.0, -12.0, -12.0, -12.0, -11.0, -6.0, -3.0, 5.0, 13.0, 20.0, 24.0, 28.0, 33.0, 47.0, 57.0, 68.0, 88.0, 117.0, 155.0, 189.0, 217.0, 235.0, 247.0, 258.0, 258.0, 229.0, 176.0, 78.0, -43.0, -169.0, -297.0, -421.0, -521.0, -589.0, -636.0, -659.0, -662.0, -650.0, -581.0, -523.0, -274.0, -47.0, 204.0, 449.0, 644.0, 791.0, 867.0, 893.0, 898.0, 889.0, 869.0, 859.0, 843.0, 839.0, 839.0, 839.0, 839.0, 839.0, 839.0]	[-490.0, -490.0, -490.0, -490.0, -490.0, -490.0, -491.0, -502.0, -509.0, -525.0, -525.0, -525.0, -525.0, -525.0, -525.0, -525.0, -525.0, -525.0, -525.0, -525.0, -525.0, -525.0, -526.0, -532.0, -534.0, -535.0, -539.0, -539.0, -539.0, -539.0, -539.0, -539.0, -537.0, -535.0, -526.0, -517.0, -507.0, -489.0, -467.0, -432.0, -385.0, -320.0, -232.0, -140.0, -56.0, -2.0, 73.0, 140.0, 205.0, 261.0, 309.0, 351.0, 389.0, 418.0, 439.0, 453.0, 457.0, 458.0, 458.0, 451.0, 443.0, 411.0, 379.0, 372.0, 372.0, 368.0, 373.0, 396.0, 410.0, 417.0, 432.0, 443.0, 449.0, 458.0, 461.0, 461.0, 461.0, 461.0, 461.0, 461.0]	[0.007949649254442193, 0.014368419302627444, 0.019877536469721235, 0.03294547645782586, 0.04940217202238273, 0.06432184438745026, 0.08259955236280803, 0.09882857871707529, 0.11441043741069734, 0.13283935596700758, 0.1491854596097255, 0.1640232120116707, 0.18249411454598885, 0.1994768045260571, 0.21432718624419067, 0.2335039657627931, 0.24930325367313344, 0.2639269901847001, 0.2824019887339091, 0.29946216133248527, 0.3144357643323019, 0.33269981897319667, 0.34932888779439963, 0.3640857442369452, 0.3825057881476823, 0.39887612643360626, 0.41438118515361566, 0.4322243760252604, 0.4492459779721685, 0.4639707491005538, 0.4824788569530938, 0.4987502086296445, 0.5144587019167375, 0.5328319831751287, 0.5490490628726548, 0.5646609588729916, 0.5825208750757156, 0.5994096984213684, 0.6144498613866745, 0.6321353563398588, 0.6492579929035855, 0.6642868918715976, 0.6825816665077582, 0.6987629062205087, 0.7144055222161114, 0.7327975767984753, 0.7489921285014134, 0.7646709258115152, 0.7823953327315394, 0.7993442307197256, 0.8142758497415343, 0.8320470193139045, 0.8492860504775308, 0.864297882799292, 0.8824946948152501, 0.8986557958705816, 0.9144154891400831, 0.9327665837481618, 0.9488867248292081, 0.9644982794998214, 0.9824394329771167, 0.9993593176477589, 1.0142844513320597, 1.0320037382625742, 1.0492837294150377, 1.0642924897401826, 1.0826050136965932, 1.0987913733988535, 1.1144158987444825, 1.1327847426728113, 1.1490253743540961, 1.1646072330331663, 1.1824040025967406, 1.1993225219339365, 1.2142780342692276, 1.2320294065139024, 1.2493360216612928, 1.2644256779312855, 1.282156228859094, 1.300131515657995]
28	蜻蜓	True	animate	inanimate	left	1.904	[0.0, 0.0, 0.0, 0.0, 0.0, 0.0, 0.0, 0.0, 0.0, -3.0, -6.0, -7.0, -4.0, -1.0, -1.0, -1.0, -1.0, -1.0, -1.0, -1.0, -1.0, -1.0, -1.0, -1.0, -1.0, -1.0, -1.0, -1.0, -1.0, -1.0, -1.0, -1.0, 0.0, 7.0, 17.0, 32.0, 62.0, 150.0, 260.0, 326.0, 549.0, 689.0, 807.0, 908.0, 959.0, 959.0, 959.0, 952.0, 936.0, 903.0, 871.0, 849.0, 738.0, 621.0, 460.0, 247.0, 17.0, -220.0, -457.0, -657.0, -816.0, -948.0, -960.0, -960.0, -960.0, -960.0, -960.0, -960.0, -960.0, -960.0, -960.0, -960.0, -960.0, -960.0, -960.0, -960.0, -960.0, -960.0, -960.0, -921.0, -787.0, -582.0, -355.0, -172.0, -57.0, 30.0, 41.0, 41.0, 28.0, 18.0, 14.0, 14.0, 14.0, 14.0, 14.0, 14.0, 14.0, -19.0, -112.0, -176.0, -388.0, -515.0, -622.0, -695.0, -727.0, -733.0, -733.0, -733.0, -733.0, -734.0, -738.0, -739.0, -742.0, -742.0, -742.0]	[-490.0, -490.0, -490.0, -490.0, -490.0, -490.0, -490.0, -490.0, -490.0, -488.0, -473.0, -461.0, -452.0, -445.0, -445.0, -445.0, -445.0, -445.0, -445.0, -445.0, -445.0, -445.0, -445.0, -445.0, -445.0, -445.0, -445.0, -445.0, -445.0, -445.0, -446.0, -446.0, -438.0, -431.0, -430.0, -425.0, -413.0, -370.0, -299.0, -251.0, -72.0, 50.0, 155.0, 252.0, 321.0, 356.0, 370.0, 381.0, 390.0, 402.0, 408.0, 410.0, 418.0, 418.0, 418.0, 418.0, 418.0, 418.0, 418.0, 418.0, 418.0, 429.0, 434.0, 435.0, 435.0, 435.0, 435.0, 435.0, 435.0, 435.0, 435.0, 435.0, 435.0, 435.0, 435.0, 435.0, 435.0, 435.0, 433.0, 402.0, 331.0, 229.0, 110.0, -14.0, -124.0, -253.0, -309.0, -336.0, -400.0, -418.0, -425.0, -425.0, -425.0, -425.0, -425.0, -425.0, -425.0, -393.0, -286.0, -214.0, 12.0, 152.0, 263.0, 351.0, 400.0, 421.0, 426.0, 429.0, 432.0, 436.0, 439.0, 440.0, 441.0, 441.0, 441.0]	[0.011636047362117097, 0.016156322380993515, 0.021549727622186765, 0.039828118271543644, 0.05683709088771138, 0.07208785641705617, 0.09034337774210144, 0.10656455342541449, 0.12219488143455237, 0.14026505884248763, 0.15700847427069675, 0.17162333612213843, 0.19015601996215992, 0.20708887529326603, 0.2218795237276936, 0.23995311447652057, 0.25687948447011877, 0.27209031401434913, 0.29008710480411537, 0.30674894159892574, 0.3221212217322318, 0.3405320496385684, 0.35664980138244573, 0.37438786163693294, 0.3903455281397328, 0.40717427685740404, 0.42189938931551296, 0.43984190812625457, 0.4568467847566353, 0.47209925694915, 0.4900786397338379, 0.5064424926968059, 0.5221485966467299, 0.5402354993857443, 0.5569976881379262, 0.5716538513079286, 0.5901186098490143, 0.6070248411997454, 0.6218840975925559, 0.6397675657644868, 0.6569376476400066, 0.672110589206568, 0.6899821107217576, 0.7065074142592493, 0.7222060088824946, 0.7402857436391059, 0.7568912604619982, 0.7716819088964257, 0.7902053767465986, 0.8070658694341546, 0.8218718778662151, 0.8399096286302665, 0.8567759239958832, 0.8721106574666919, 0.8899661363248015, 0.90629892796278, 0.9221262052014936, 0.9396215775777819, 0.9567821021191776, 0.9720134116505506, 0.9900542344112182, 1.0064675806788728, 1.0219463567482308, 1.0396257077081827, 1.0568548402225133, 1.0720916110876715, 1.0899491379386745, 1.1062798815837596, 1.1221399267960805, 1.140206690877676, 1.1569234823109582, 1.1716547387768514, 1.189929374741041, 1.2071216432814253, 1.221908195715514, 1.2399281971447635, 1.2568723164731637, 1.2716854928876273, 1.2902219313982641, 1.3071329414087813, 1.3220375951059395, 1.3413922092004213, 1.3569017052650452, 1.3721179961285088, 1.3900260403024731, 1.407376687420765, 1.4220901945518563, 1.4402511665830389, 1.4569843420176767, 1.4716572305042064, 1.4901233543787384, 1.506808401842136, 1.5222752312547527, 1.5400081715051783, 1.5569539974967483, 1.572052528441418, 1.5901117831817828, 1.6066514227131847, 1.6219841082056519, 1.6404515974136302, 1.6566314717929345, 1.6717310267267749, 1.6901797426253324, 1.70717267258442, 1.72193567303475, 1.7400396424200153, 1.7567386845475994, 1.7720894606754882, 1.7900411954906303, 1.8081724715448217, 1.8219636964786332, 1.8405032069858862, 1.8565735134325223, 1.8716894523531664, 1.8902443228580523]
29	牙齿	False	animate	inanimate	right	0.999	[0.0, 0.0, 0.0, 0.0, 0.0, 0.0, 0.0, 0.0, 0.0, 3.0, 15.0, 20.0, 20.0, 20.0, 20.0, 20.0, 20.0, 20.0, 20.0, 20.0, 20.0, 20.0, 20.0, 20.0, 20.0, 20.0, 20.0, 20.0, 20.0, 20.0, 20.0, 24.0, 32.0, 40.0, 44.0, 49.0, 62.0, 80.0, 102.0, 132.0, 194.0, 249.0, 275.0, 373.0, 444.0, 527.0, 594.0, 658.0, 718.0, 786.0, 874.0, 894.0, 918.0, 931.0, 932.0, 934.0, 934.0, 934.0, 934.0, 934.0, 934.0]	[-490.0, -490.0, -490.0, -490.0, -490.0, -490.0, -490.0, -490.0, -490.0, -490.0, -493.0, -494.0, -494.0, -494.0, -494.0, -494.0, -494.0, -494.0, -494.0, -494.0, -494.0, -494.0, -494.0, -494.0, -494.0, -494.0, -494.0, -494.0, -494.0, -494.0, -494.0, -495.0, -495.0, -495.0, -494.0, -489.0, -482.0, -474.0, -466.0, -456.0, -432.0, -412.0, -401.0, -330.0, -251.0, -147.0, -29.0, 95.0, 210.0, 288.0, 353.0, 368.0, 394.0, 422.0, 426.0, 435.0, 437.0, 439.0, 441.0, 441.0, 441.0]	[0.013978616843814962, 0.020505930835497566, 0.02599456801544875, 0.04428661198471673, 0.06125974463066086, 0.0759971450897865, 0.0945544049172895, 0.1108199539303314, 0.1265407352038892, 0.14461398462299258, 0.16146116533491295, 0.1760572538623819, 0.19453600706765428, 0.21139581709576305, 0.2264045774063561, 0.24422728829085827, 0.26135129018803127, 0.27635288250166923, 0.29475039841781836, 0.3108876061596675, 0.32655855279881507, 0.34461780755373184, 0.3614564549352508, 0.37600817014754284, 0.3944746353663504, 0.41086511229514144, 0.4265893069241429, 0.44491377753729466, 0.4611329052277142, 0.4763669454259798, 0.49458867477369495, 0.5114082074869657, 0.5263411918422207, 0.5442222706915345, 0.5616046617942629, 0.576394968884415, 0.5946784795232816, 0.6108808818971738, 0.6265009698981885, 0.6449107738008024, 0.6610728988598567, 0.6767049335176125, 0.6945197937311605, 0.711443433072418, 0.7263405774428975, 0.7456951915373793, 0.7614405488129705, 0.7759666640340583, 0.7943344839586644, 0.8113970458944095, 0.8263382222503424, 0.8442193010851042, 0.861246705710073, 0.876431252603652, 0.8946325019496726, 0.9109813362447312, 0.926528720287024, 0.9448845935548889, 0.9611317105591297, 0.9765210573532386, 0.9945820187713252]
30	青蛙	True	inanimate	animate	right	1.134	[0.0, 0.0, 0.0, 0.0, 0.0, 0.0, 0.0, 0.0, -5.0, -9.0, -9.0, -9.0, -9.0, -9.0, -9.0, -9.0, -9.0, -9.0, -9.0, -9.0, -9.0, -9.0, -9.0, -10.0, 0.0, 6.0, 13.0, 19.0, 22.0, 29.0, 39.0, 42.0, 50.0, 57.0, 78.0, 88.0, 95.0, 102.0, 109.0, 112.0, 112.0, 108.0, 88.0, 28.0, 1.0, -51.0, -92.0, -92.0, -65.0, 6.0, 116.0, 251.0, 405.0, 570.0, 697.0, 780.0, 815.0, 828.0, 833.0, 833.0, 835.0, 837.0, 842.0, 848.0, 850.0, 850.0]	[-490.0, -490.0, -490.0, -490.0, -490.0, -490.0, -490.0, -490.0, -490.0, -494.0, -494.0, -494.0, -494.0, -494.0, -494.0, -494.0, -494.0, -494.0, -494.0, -494.0, -494.0, -494.0, -494.0, -496.0, -509.0, -519.0, -525.0, -528.0, -528.0, -528.0, -522.0, -520.0, -518.0, -518.0, -516.0, -513.0, -509.0, -498.0, -481.0, -456.0, -415.0, -359.0, -301.0, -170.0, -127.0, -31.0, 67.0, 89.0, 105.0, 128.0, 158.0, 196.0, 239.0, 285.0, 323.0, 345.0, 360.0, 367.0, 370.0, 374.0, 379.0, 386.0, 394.0, 401.0, 405.0, 405.0]	[0.013082958626910113, 0.020540064142551273, 0.02638402915908955, 0.043402900439105, 0.06007429456803948, 0.07546671335876454, 0.09296413372794632, 0.1100253303302452, 0.12523991454509087, 0.14317458268487826, 0.1599398434336763, 0.1752196222805651, 0.1935952928761253, 0.20992740184010472, 0.22493138349091168, 0.24340467537695076, 0.25967397904605605, 0.27521624308428727, 0.2929833166563185, 0.3100759158987785, 0.3249853482702747, 0.34342792016104795, 0.3595937998761656, 0.37520296522416174, 0.3936083317967132, 0.4099291767779505, 0.4248102784913499, 0.44342761296138633, 0.45957915669714566, 0.47522450334508903, 0.49343872335157357, 0.5098554829455679, 0.5247096193488687, 0.5432371831848286, 0.5600515959085897, 0.5753620947361924, 0.5929451897391118, 0.6099913676735014, 0.6252093652146868, 0.6432467746490147, 0.6600987340207212, 0.6751883903052658, 0.6934309409552952, 0.7097661219304428, 0.7246871596289566, 0.743192536814604, 0.7599229815823492, 0.7753379283531103, 0.7928083834121935, 0.8099869986181147, 0.8251804201718187, 0.8431488803034881, 0.8600185889954446, 0.8752123518788721, 0.8928186575358268, 0.9099815714143915, 0.9246677718911087, 0.9432185463956557, 0.9601985057088314, 0.975064930098597, 0.9940468083805172, 1.0101792374480283, 1.0247684993082657, 1.0432687565044034, 1.0593994789087446, 1.0752001321525313]
31	母猪	True	animate	inanimate	left	1.699	[0.0, 0.0, 0.0, 0.0, 0.0, -2.0, -24.0, -52.0, -52.0, -52.0, -52.0, -52.0, -52.0, -52.0, -52.0, -52.0, -52.0, -52.0, -52.0, -52.0, -52.0, -52.0, -52.0, -52.0, -52.0, -52.0, -52.0, -52.0, -52.0, -52.0, -52.0, -52.0, -49.0, -49.0, -49.0, -49.0, -49.0, -48.0, -44.0, -32.0, -5.0, 56.0, 158.0, 293.0, 446.0, 620.0, 848.0, 959.0, 959.0, 959.0, 959.0, 943.0, 877.0, 755.0, 580.0, 363.0, 125.0, -106.0, -347.0, -647.0, -734.0, -902.0, -960.0, -960.0, -960.0, -960.0, -960.0, -960.0, -960.0, -960.0, -960.0, -960.0, -960.0, -960.0, -960.0, -960.0, -960.0, -960.0, -960.0, -960.0, -960.0, -958.0, -931.0, -878.0, -858.0, -789.0, -759.0, -759.0, -759.0, -759.0, -759.0, -759.0, -759.0, -759.0, -758.0, -778.0, -789.0, -816.0, -828.0, -831.0, -831.0, -831.0, -831.0]	[-490.0, -490.0, -490.0, -490.0, -490.0, -492.0, -498.0, -513.0, -513.0, -513.0, -513.0, -513.0, -513.0, -513.0, -513.0, -513.0, -513.0, -513.0, -513.0, -513.0, -513.0, -513.0, -513.0, -513.0, -513.0, -513.0, -513.0, -513.0, -513.0, -517.0, -517.0, -518.0, -521.0, -522.0, -522.0, -522.0, -522.0, -522.0, -515.0, -497.0, -464.0, -401.0, -320.0, -231.0, -140.0, -29.0, 136.0, 237.0, 278.0, 348.0, 363.0, 377.0, 399.0, 417.0, 441.0, 455.0, 455.0, 455.0, 451.0, 440.0, 440.0, 425.0, 417.0, 412.0, 411.0, 410.0, 410.0, 409.0, 409.0, 409.0, 409.0, 409.0, 409.0, 409.0, 409.0, 409.0, 409.0, 409.0, 409.0, 409.0, 409.0, 406.0, 392.0, 375.0, 374.0, 374.0, 381.0, 381.0, 381.0, 381.0, 381.0, 381.0, 381.0, 381.0, 382.0, 409.0, 421.0, 442.0, 451.0, 454.0, 454.0, 455.0, 455.0]	[0.01207943914050702, 0.01745714305434376, 0.021870239463169128, 0.04079818711034022, 0.05772660511138383, 0.07282172271516174, 0.0902798897732282, 0.10736805168562569, 0.12252870526572224, 0.14065759198274463, 0.15714603153173812, 0.17244936236238573, 0.1903164465475129, 0.20745102978253271, 0.22198021701478865, 0.24048457019671332, 0.2575938947702525, 0.27235928454319946, 0.2904144432977773, 0.3074650585767813, 0.3227154827618506, 0.3408549508167198, 0.3571321051422274, 0.37253988391603343, 0.3908230532251764, 0.4075313113426091, 0.4221434425271582, 0.4405511984368786, 0.45731987251201645, 0.47281127791211475, 0.490295386291109, 0.5073381508991588, 0.5224831031518988, 0.5407277018093737, 0.5585579220060026, 0.5724819255556213, 0.5905220656422898, 0.6073620783572551, 0.6226203532132786, 0.6405789146811003, 0.6570400475902716, 0.6726263436139561, 0.6907060783560155, 0.7074730457679834, 0.7221548089146381, 0.7404973701923154, 0.7575578841206152, 0.7723731085425243, 0.7904845872690203, 0.8073478106380207, 0.8225989174970891, 0.8405769349483307, 0.8568209799705073, 0.8726124172244454, 0.8906767919688718, 0.9074679940385977, 0.9221275705349399, 0.9404738864686806, 0.9577033603127347, 0.9723844407999422, 0.9904580315487692, 1.0072536709485576, 1.0225481271190802, 1.0404722139355727, 1.0567927175870864, 1.0726316001382656, 1.0907082628837088, 1.107371806356241, 1.1221563107828842, 1.1405237893777667, 1.1576484739489388, 1.172486226350884, 1.1925566160789458, 1.207456491116318, 1.2222259768750519, 1.2406255407986464, 1.2568842631299049, 1.2725859297643183, 1.2909226883784868, 1.3070609201095067, 1.3221294137329096, 1.3406996442208765, 1.3568576732795918, 1.3725907425687183, 1.3901837362209335, 1.4073493807663908, 1.4225424609903712, 1.4405580250895582, 1.4569645446899813, 1.4723108835023595, 1.4901339357165853, 1.5073285935795866, 1.522546591120772, 1.5402843100309838, 1.557674210460391, 1.572567600174807, 1.5908971907920204, 1.6070524891838431, 1.6221472654578974, 1.6405314693693072, 1.6567819997289917, 1.6726270262734033, 1.6909026862558676]
32	新娘	True	inanimate	animate	right	0.98	[0.0, 0.0, 0.0, 0.0, 0.0, 0.0, 0.0, -1.0, -1.0, -1.0, -1.0, -1.0, -1.0, -1.0, -1.0, -1.0, -1.0, -1.0, -1.0, -1.0, -1.0, -1.0, -1.0, 1.0, 1.0, 6.0, 12.0, 20.0, 27.0, 38.0, 52.0, 78.0, 128.0, 196.0, 276.0, 379.0, 411.0, 508.0, 557.0, 578.0, 607.0, 611.0, 585.0, 527.0, 458.0, 400.0, 375.0, 371.0, 389.0, 498.0, 603.0, 663.0, 814.0, 882.0, 904.0, 910.0, 911.0, 911.0, 911.0, 911.0]	[-490.0, -490.0, -490.0, -490.0, -490.0, -490.0, -493.0, -495.0, -495.0, -495.0, -495.0, -495.0, -495.0, -495.0, -495.0, -495.0, -495.0, -495.0, -495.0, -495.0, -495.0, -495.0, -495.0, -499.0, -499.0, -504.0, -507.0, -508.0, -508.0, -504.0, -499.0, -490.0, -471.0, -452.0, -424.0, -354.0, -322.0, -201.0, -111.0, -71.0, 42.0, 108.0, 175.0, 254.0, 326.0, 374.0, 402.0, 415.0, 423.0, 427.0, 427.0, 427.0, 427.0, 434.0, 440.0, 444.0, 444.0, 445.0, 445.0, 445.0]	[0.015159629576373845, 0.020242762970156036, 0.028020721656503156, 0.04691078131145332, 0.06412626050587278, 0.07851925579598173, 0.09646723594050854, 0.11356427252758294, 0.1286040941486135, 0.14693163677293342, 0.1636351162160281, 0.17852065525949, 0.19646658741112333, 0.21359570931235794, 0.2282051098300144, 0.24661559640662745, 0.26418333141191397, 0.27862479601753876, 0.29860746311896946, 0.31368039405788295, 0.32870075971004553, 0.3469781263411278, 0.36359320051269606, 0.37846781688858755, 0.39637039972876664, 0.4135875855718041, 0.42822838874417357, 0.4468006672395859, 0.46407007706875447, 0.47867265091917943, 0.4965762577485293, 0.5136002490326064, 0.528658502662438, 0.5469368932972429, 0.5635901967762038, 0.5785801837628242, 0.5963462333456846, 0.6133821712865029, 0.6282165103475563, 0.6467812795162899, 0.6641117879771627, 0.6786518978624372, 0.696428187424317, 0.713465149368858, 0.7286968002445064, 0.7464089191780658, 0.762871758750407, 0.7786751426465344, 0.7966429201187566, 0.8135781647870317, 0.8280995013483334, 0.8468468837527325, 0.8645593440160155, 0.8785874541645171, 0.8965466983063379, 0.9136037989082979, 0.9287467031535925, 0.9465472273732303, 0.9630824295745697, 0.9786663362610852]
33	西瓜	False	animate	inanimate	left	1.475	[0.0, 0.0, 0.0, 0.0, 0.0, 0.0, 0.0, 0.0, 8.0, 15.0, 18.0, 18.0, 18.0, 18.0, 18.0, 18.0, 18.0, 18.0, 18.0, 18.0, 18.0, 18.0, 18.0, 18.0, 18.0, 20.0, 24.0, 28.0, 34.0, 48.0, 71.0, 152.0, 234.0, 316.0, 408.0, 506.0, 599.0, 672.0, 723.0, 755.0, 771.0, 773.0, 750.0, 693.0, 532.0, 396.0, 233.0, 25.0, -194.0, -418.0, -605.0, -761.0, -865.0, -932.0, -960.0, -960.0, -960.0, -960.0, -960.0, -960.0, -960.0, -960.0, -960.0, -960.0, -960.0, -960.0, -960.0, -960.0, -960.0, -960.0, -958.0, -927.0, -862.0, -792.0, -751.0, -736.0, -736.0, -736.0, -736.0, -736.0, -736.0, -736.0, -736.0, -736.0, -752.0, -765.0, -770.0, -771.0, -771.0]	[-490.0, -490.0, -490.0, -490.0, -490.0, -490.0, -490.0, -490.0, -499.0, -500.0, -498.0, -498.0, -498.0, -498.0, -498.0, -498.0, -498.0, -498.0, -498.0, -498.0, -498.0, -498.0, -498.0, -498.0, -498.0, -499.0, -505.0, -510.0, -509.0, -503.0, -493.0, -447.0, -405.0, -347.0, -258.0, -150.0, -40.0, 71.0, 161.0, 229.0, 281.0, 320.0, 374.0, 428.0, 503.0, 540.0, 540.0, 540.0, 540.0, 528.0, 503.0, 480.0, 464.0, 456.0, 453.0, 453.0, 453.0, 453.0, 453.0, 453.0, 456.0, 460.0, 465.0, 468.0, 468.0, 468.0, 468.0, 468.0, 468.0, 468.0, 469.0, 460.0, 452.0, 443.0, 443.0, 443.0, 443.0, 443.0, 443.0, 443.0, 443.0, 443.0, 443.0, 444.0, 451.0, 457.0, 459.0, 459.0, 459.0]	[0.004269053795724176, 0.010820261100889184, 0.01963075259118341, 0.03843240696005523, 0.05458497469953727, 0.07020096670021303, 0.08884219448373187, 0.10530401006690226, 0.11975946932216175, 0.13844029176107142, 0.15459695548634045, 0.17021499549446162, 0.18900879920693114, 0.20536855616956018, 0.21973902346508112, 0.23832597928412724, 0.254566610979964, 0.2702157122985227, 0.2889794786897255, 0.3073172612930648, 0.3196922949573491, 0.3385065786569612, 0.354552991775563, 0.3702451010758523, 0.38906621144269593, 0.405454981722869, 0.4197913157113362, 0.43842298617528286, 0.45454517524922267, 0.47018574323737994, 0.48899558960692957, 0.5053174585918896, 0.5197401498735417, 0.5384114149783272, 0.5550169318157714, 0.5703253826359287, 0.588460754690459, 0.6047669223335106, 0.6200869784952374, 0.6382861798483646, 0.6544448915665271, 0.6701967341650743, 0.687631349239382, 0.7049082683952292, 0.7202191085525556, 0.7380059794522822, 0.7562693514337298, 0.7701667309884215, 0.7885157775890548, 0.8046645906579215, 0.81967539897596, 0.838192381488625, 0.8543961491959635, 0.8702196717640618, 0.8877652201044839, 0.9049919632816454, 0.9203249901038362, 0.9380108263867442, 0.9558912225620588, 0.9702558872086229, 0.9885045818664366, 1.0046595389285358, 1.0195966192841297, 1.0381330577802146, 1.054334436164936, 1.070221105357632, 1.0885230479907477, 1.1046541117248125, 1.1197154373512603, 1.1380153319769306, 1.154394886267255, 1.170196222170489, 1.1890729698352516, 1.2053535375016509, 1.2197741807904094, 1.23847377653874, 1.254452264358406, 1.2702177602914162, 1.2883988709800178, 1.304652131992043, 1.3228588426718488, 1.3384284133644542, 1.3544089491915656, 1.3702177944214782, 1.387655481492402, 1.4050129552779254, 1.420151080863434, 1.4380031463806517, 1.4544632552861003]
34	乐队	True	inanimate	animate	right	0.922	[0.0, 0.0, 0.0, 0.0, 0.0, -1.0, -3.0, -5.0, -5.0, -5.0, -5.0, -5.0, -5.0, -5.0, -5.0, -5.0, -5.0, -5.0, -5.0, -5.0, -7.0, -11.0, -11.0, -11.0, -3.0, 12.0, 30.0, 59.0, 107.0, 160.0, 199.0, 309.0, 379.0, 414.0, 511.0, 562.0, 591.0, 598.0, 589.0, 550.0, 491.0, 410.0, 401.0, 401.0, 433.0, 495.0, 573.0, 652.0, 714.0, 753.0, 772.0, 778.0, 778.0, 778.0, 778.0, 778.0]	[-490.0, -490.0, -490.0, -490.0, -490.0, -493.0, -494.0, -501.0, -501.0, -501.0, -501.0, -501.0, -501.0, -501.0, -501.0, -501.0, -501.0, -501.0, -501.0, -501.0, -502.0, -507.0, -507.0, -509.0, -513.0, -513.0, -503.0, -491.0, -474.0, -453.0, -436.0, -383.0, -324.0, -285.0, -142.0, -36.0, 61.0, 139.0, 202.0, 279.0, 353.0, 428.0, 439.0, 460.0, 472.0, 485.0, 494.0, 494.0, 494.0, 494.0, 494.0, 494.0, 494.0, 494.0, 494.0, 494.0]	[0.0007935995818115771, 0.005687634402420372, 0.01690930333279539, 0.03491906476847362, 0.05408389763033483, 0.06677261646836996, 0.08495577514986508, 0.10183504117594566, 0.11672467621974647, 0.13505597350012977, 0.1515908343717456, 0.16696209050132893, 0.18481244935537688, 0.20183985398034565, 0.21666668371472042, 0.2349645303474972, 0.25140142859891057, 0.2669590526347747, 0.28474592353450134, 0.3018101921188645, 0.31657182723574806, 0.3350263457832625, 0.3519134624657454, 0.366820164170349, 0.3846589177119313, 0.4018013515888015, 0.41683127456053626, 0.4351789558422752, 0.45186946462490596, 0.4667782143224031, 0.48464222651091404, 0.5016767991328379, 0.5164295595750446, 0.5348618914722465, 0.5522517919016536, 0.5668178431078559, 0.5861929371894803, 0.6017891318624606, 0.6164923990145326, 0.6350336161849555, 0.6523689033056144, 0.6669069651979953, 0.6846859854267677, 0.7017683446756564, 0.7169767848972697, 0.7346417998487595, 0.751163348715636, 0.766945911309449, 0.7849317794316448, 0.8018680480890907, 0.8163306753558572, 0.834751060596318, 0.8518521931691794, 0.8668500308267539, 0.8844798884674674, 0.9016588450031122]
35	坦克	False	animate	inanimate	right	0.976	[0.0, 0.0, 0.0, 0.0, 0.0, 0.0, 0.0, -1.0, 6.0, 14.0, 14.0, 14.0, 14.0, 14.0, 14.0, 14.0, 14.0, 14.0, 14.0, 14.0, 14.0, 13.0, 12.0, 11.0, 11.0, 17.0, 21.0, 24.0, 37.0, 68.0, 87.0, 186.0, 258.0, 328.0, 383.0, 427.0, 457.0, 459.0, 452.0, 423.0, 347.0, 261.0, 163.0, 76.0, 22.0, 11.0, 15.0, 76.0, 196.0, 347.0, 520.0, 666.0, 815.0, 852.0, 860.0, 863.0, 863.0, 863.0, 863.0, 863.0]	[-490.0, -490.0, -490.0, -490.0, -490.0, -490.0, -490.0, -490.0, -488.0, -488.0, -488.0, -488.0, -488.0, -488.0, -488.0, -488.0, -488.0, -488.0, -488.0, -488.0, -488.0, -491.0, -495.0, -499.0, -499.0, -501.0, -496.0, -494.0, -494.0, -484.0, -473.0, -413.0, -375.0, -327.0, -264.0, -179.0, -82.0, 16.0, 115.0, 192.0, 282.0, 337.0, 387.0, 428.0, 452.0, 459.0, 461.0, 461.0, 454.0, 439.0, 439.0, 437.0, 437.0, 438.0, 439.0, 441.0, 442.0, 444.0, 445.0, 445.0]	[0.008830630162265152, 0.014540792559273541, 0.01945223538496066, 0.03439409440034069, 0.050775355339283124, 0.0657841156644281, 0.08408537562354468, 0.10041714325780049, 0.11604098592943046, 0.13389066212403122, 0.15086857342976145, 0.16556262457743287, 0.18411374041170347, 0.20041444673552178, 0.21609051337873098, 0.23443068531923927, 0.25071842098259367, 0.2656903173046885, 0.2840212732553482, 0.30042779285577126, 0.31612604614929296, 0.33444642077665776, 0.3506856871244963, 0.36583849003363866, 0.3842209872818785, 0.40186449825705495, 0.41595950970076956, 0.4339310418436071, 0.4509116838162299, 0.4658989401359577, 0.4843237627064809, 0.5004118184588151, 0.5161035864293808, 0.5344345423800405, 0.5506707367312629, 0.5657573210046394, 0.5841374289302621, 0.6003302739700302, 0.6160582232550951, 0.634962960248231, 0.6531625029310817, 0.6656542725249892, 0.6841395110677695, 0.7002664788014954, 0.7160968280368252, 0.7349199863965623, 0.7512906660122098, 0.7656508933287114, 0.784244675814989, 0.8009611259185476, 0.8162470487586688, 0.8343175675108796, 0.8505506898654858, 0.8656546821293887, 0.8839170301071135, 0.9003116030507954, 0.9161091842979658, 0.9344268282438861, 0.9505807613168145, 0.9657687215367332]
