trialIndex	stimulus	isAnimate	left_option	right_option	response	response_time	xTrajectory	yTrajectory	tTrajectory
0	电视	False	animate	inanimate	right	1.542	[0.0, 0.0, 0.0, 0.0, 0.0, 0.0, 0.0, 0.0, 0.0, 0.0, 0.0, 0.0, 0.0, 0.0, 0.0, 0.0, 0.0, 0.0, 0.0, 0.0, 0.0, 0.0, 0.0, 1.0, 2.0, 2.0, 4.0, 5.0, 6.0, 8.0, 10.0, 14.0, 17.0, 21.0, 25.0, 27.0, 28.0, 29.0, 31.0, 32.0, 32.0, 35.0, 42.0, 45.0, 46.0, 47.0, 48.0, 51.0, 51.0, 51.0, 51.0, 52.0, 52.0, 52.0, 52.0, 41.0, 27.0, 25.0, 25.0, 36.0, 71.0, 132.0, 198.0, 267.0, 342.0, 404.0, 456.0, 512.0, 526.0, 574.0, 604.0, 621.0, 638.0, 654.0, 666.0, 675.0, 684.0, 694.0, 703.0, 714.0, 724.0, 725.0, 726.0, 726.0, 726.0, 726.0, 726.0, 726.0, 726.0, 726.0, 726.0]	[-490.0, -490.0, -490.0, -490.0, -490.0, -490.0, -490.0, -490.0, -490.0, -490.0, -490.0, -490.0, -490.0, -490.0, -490.0, -490.0, -490.0, -490.0, -490.0, -490.0, -490.0, -490.0, -490.0, -490.0, -489.0, -486.0, -484.0, -481.0, -479.0, -477.0, -472.0, -466.0, -458.0, -452.0, -446.0, -445.0, -444.0, -443.0, -442.0, -442.0, -442.0, -436.0, -427.0, -420.0, -417.0, -416.0, -411.0, -407.0, -406.0, -405.0, -404.0, -403.0, -402.0, -400.0, -395.0, -372.0, -356.0, -352.0, -343.0, -315.0, -273.0, -212.0, -144.0, -66.0, 13.0, 81.0, 140.0, 206.0, 223.0, 274.0, 298.0, 312.0, 327.0, 346.0, 363.0, 381.0, 400.0, 425.0, 447.0, 465.0, 482.0, 484.0, 486.0, 486.0, 486.0, 486.0, 486.0, 486.0, 486.0, 486.0, 486.0]	[0.010118814578163438, 0.020751676544023212, 0.028073267800209578, 0.037903997385001276, 0.054090004712634254, 0.06923904261930147, 0.08755189540534047, 0.1064282888546586, 0.11905931376531953, 0.13969630244537257, 0.15398859470587922, 0.17146006182883866, 0.1875597119287704, 0.20621150831721025, 0.21926749272097368, 0.2369922288780799, 0.25425821357930545, 0.2718474405701272, 0.28750199253408937, 0.3049342063750373, 0.31911112810485065, 0.33877770727849565, 0.35426500610628864, 0.37232083520211745, 0.3875579369996558, 0.404816071051755, 0.4191407899343176, 0.4381752205299563, 0.4539847376436228, 0.469153231519158, 0.4875166015845025, 0.5037633661704604, 0.5187441269445117, 0.5372600728223915, 0.5535737386671826, 0.5689596616211929, 0.5880903480938287, 0.6062871476897271, 0.6187662794472999, 0.637259356022696, 0.6539652134015341, 0.6691668165731244, 0.6870840644987766, 0.7040022309520282, 0.7191963248042157, 0.7372600045564468, 0.7567053999882773, 0.7689909959808574, 0.7889460014775977, 0.8043452364145196, 0.8216279464322724, 0.8373108290252276, 0.8551157784240786, 0.8691974682660657, 0.887739696780045, 0.904087495917338, 0.9189054408852826, 0.9372957762461738, 0.9552007361926371, 0.9691738821638864, 0.9872409752424574, 1.004015099206299, 1.0215643902411102, 1.037180371582508, 1.0549590383452596, 1.0691898906734423, 1.0882133986160625, 1.1038744359102566, 1.1213158657337772, 1.1371612228103913, 1.1550016708279145, 1.1691570885814144, 1.188168991204293, 1.204261131977546, 1.2200843024111236, 1.237088484762353, 1.2544933919707546, 1.2692256623704452, 1.286928211884515, 1.3038941649501794, 1.318937730975449, 1.336817090952536, 1.3551432557214866, 1.3688815646455623, 1.3901056459581014, 1.404290418344317, 1.4193268163799075, 1.4375010880030459, 1.4568454488908174, 1.4687849332913174, 1.4870660421220236]
1	电线	False	inanimate	animate	left	1.436	[0.0, 0.0, 0.0, 0.0, 0.0, 0.0, 0.0, 0.0, 0.0, 0.0, -1.0, -1.0, -1.0, -1.0, -1.0, -1.0, -1.0, -1.0, -1.0, -1.0, -1.0, -1.0, -2.0, -3.0, -4.0, -4.0, -7.0, -13.0, -18.0, -21.0, -21.0, -12.0, 13.0, 39.0, 75.0, 138.0, 199.0, 255.0, 298.0, 343.0, 382.0, 435.0, 448.0, 476.0, 488.0, 499.0, 507.0, 513.0, 517.0, 525.0, 532.0, 538.0, 555.0, 564.0, 570.0, 578.0, 579.0, 579.0, 570.0, 548.0, 511.0, 435.0, 372.0, 341.0, 205.0, 83.0, 14.0, -196.0, -337.0, -461.0, -561.0, -643.0, -679.0, -697.0, -697.0, -697.0, -698.0, -699.0, -700.0, -710.0, -714.0, -715.0, -715.0, -715.0, -715.0]	[-490.0, -490.0, -490.0, -490.0, -490.0, -490.0, -490.0, -490.0, -490.0, -490.0, -489.0, -489.0, -489.0, -488.0, -486.0, -485.0, -483.0, -480.0, -479.0, -475.0, -472.0, -469.0, -465.0, -461.0, -457.0, -454.0, -447.0, -436.0, -423.0, -409.0, -406.0, -383.0, -350.0, -314.0, -264.0, -191.0, -121.0, -61.0, -11.0, 38.0, 77.0, 124.0, 137.0, 164.0, 177.0, 187.0, 195.0, 203.0, 209.0, 218.0, 229.0, 236.0, 259.0, 278.0, 285.0, 304.0, 312.0, 318.0, 325.0, 330.0, 340.0, 354.0, 362.0, 365.0, 384.0, 402.0, 412.0, 442.0, 463.0, 481.0, 495.0, 506.0, 512.0, 515.0, 515.0, 515.0, 515.0, 515.0, 515.0, 515.0, 515.0, 515.0, 515.0, 515.0, 515.0]	[0.005260623052890878, 0.009684980432211887, 0.025588364100258332, 0.04327623629797017, 0.06026505867339438, 0.07506764365098206, 0.09345149368891725, 0.11140526424424024, 0.1254582821202348, 0.14326596217870247, 0.16023532857070677, 0.1753563771781046, 0.19345384888583794, 0.21059115108073456, 0.22535584810975706, 0.24327002403879305, 0.26013596655684523, 0.2753017297727638, 0.29337803884845925, 0.3105859969582525, 0.3253776592828217, 0.3432450726031675, 0.3602670042673708, 0.37567204186780145, 0.39331076212693006, 0.41017499798181234, 0.4251400574357831, 0.443367235660844, 0.4614947446680162, 0.4757034103604383, 0.4937868874258129, 0.5103565529643674, 0.5250034901328036, 0.5431709350959864, 0.5606458155525615, 0.5753429286560277, 0.5933939790920704, 0.6104319534060778, 0.6253877968702, 0.6431596369729959, 0.6634511967349681, 0.6747953965095803, 0.6940165362175321, 0.7105773270959617, 0.7254031227203086, 0.7431394641971565, 0.7608037844256614, 0.7751377193053486, 0.793752651734394, 0.8104882050756714, 0.8254088912435691, 0.8437831839619321, 0.8605491159323719, 0.8753622822332545, 0.893633492407389, 0.9113807565372554, 0.925580888906552, 0.9432202918324037, 0.9611672357277712, 0.9756056184778572, 0.993232050750521, 1.0105174914351664, 1.0254709455693956, 1.0437424970805296, 1.0627366503831581, 1.0748918571989634, 1.0934545656855335, 1.1114684108324582, 1.125399914191803, 1.1430816424035584, 1.1601701339823194, 1.1754922276813886, 1.1940866801305674, 1.210488068536506, 1.228385177826567, 1.2437222901717178, 1.2612176506008836, 1.2753696550280438, 1.2944129602765315, 1.3097859125773539, 1.3253827792796073, 1.3446080149733461, 1.360055719189404, 1.3750654932591715, 1.3932974501440185]
2	孔雀	True	inanimate	animate	right	1.368	[0.0, 0.0, 0.0, 0.0, 0.0, 0.0, 0.0, 0.0, 0.0, 0.0, 0.0, 0.0, 0.0, 0.0, 0.0, 0.0, 0.0, 0.0, 0.0, -1.0, -1.0, -1.0, -2.0, -3.0, -6.0, -10.0, -28.0, -59.0, -138.0, -168.0, -226.0, -266.0, -274.0, -282.0, -294.0, -311.0, -326.0, -338.0, -348.0, -359.0, -369.0, -377.0, -379.0, -388.0, -397.0, -397.0, -376.0, -303.0, -235.0, -160.0, -131.0, -61.0, 14.0, 104.0, 129.0, 206.0, 253.0, 296.0, 325.0, 343.0, 362.0, 403.0, 435.0, 446.0, 487.0, 525.0, 538.0, 585.0, 618.0, 649.0, 676.0, 696.0, 709.0, 724.0, 730.0, 730.0, 731.0, 731.0, 731.0, 731.0, 731.0, 731.0]	[-490.0, -490.0, -490.0, -490.0, -490.0, -490.0, -490.0, -490.0, -490.0, -490.0, -490.0, -490.0, -490.0, -490.0, -490.0, -490.0, -490.0, -491.0, -491.0, -491.0, -491.0, -489.0, -485.0, -483.0, -478.0, -467.0, -443.0, -399.0, -304.0, -268.0, -200.0, -143.0, -123.0, -109.0, -92.0, -75.0, -60.0, -47.0, -34.0, -17.0, -4.0, 10.0, 12.0, 26.0, 41.0, 54.0, 77.0, 110.0, 144.0, 188.0, 205.0, 238.0, 267.0, 294.0, 301.0, 319.0, 326.0, 332.0, 336.0, 338.0, 341.0, 341.0, 341.0, 343.0, 352.0, 358.0, 361.0, 370.0, 379.0, 385.0, 392.0, 398.0, 405.0, 412.0, 415.0, 415.0, 417.0, 418.0, 418.0, 418.0, 418.0, 418.0]	[0.014218223019270226, 0.01997343747643754, 0.02703459170879796, 0.044996554250246845, 0.06326469242776511, 0.07734023827651981, 0.09505336912116036, 0.11215961001289543, 0.12666864867787808, 0.1451753785731853, 0.16358619391394313, 0.1773238201640197, 0.19558991034136852, 0.21208960263174959, 0.22665018257248448, 0.24496508335869294, 0.26201295632199617, 0.27684284793940606, 0.29503486887551844, 0.3120581658658921, 0.32738094223168446, 0.3508578208493418, 0.362309540505521, 0.3772227173540159, 0.39555297812330537, 0.41211752366507426, 0.42717440168053145, 0.4458729606703855, 0.46164493116521044, 0.4771250620033243, 0.4954669280923554, 0.5120464922802057, 0.527156618234585, 0.5451598820582149, 0.5619360540149501, 0.5771267345335218, 0.5955341365406639, 0.6119522502631298, 0.6268999017411261, 0.6450263867518515, 0.6620326171032502, 0.6773157988427556, 0.6957532381493365, 0.7118074909667484, 0.7266892651896342, 0.7448666088093887, 0.7621783321228577, 0.7771253009341308, 0.7951138874486787, 0.8122894189291401, 0.8270739132640301, 0.8448873959860066, 0.864647500377032, 0.8769935122909374, 0.8952944184275111, 0.9122651501529617, 0.9271271270699799, 0.9455529610568192, 0.9621625625441084, 0.977048432760057, 0.9952721976587782, 1.0122835479996866, 1.0272151568278787, 1.0455037749779876, 1.0657212654914474, 1.0770129000011366, 1.095165326318238, 1.1114929868126637, 1.1284476758883102, 1.1447671443893341, 1.1628581307813874, 1.1770579218136845, 1.195215126790572, 1.2123247810159228, 1.2272990564597421, 1.2448261608587927, 1.2618859804715612, 1.277079050327302, 1.2954014604329132, 1.3123022189101903, 1.3298958832237986, 1.3454978699228377]
3	啤酒	False	animate	inanimate	right	1.23	[0.0, 0.0, 0.0, 0.0, 0.0, 0.0, 0.0, 0.0, 0.0, 0.0, 0.0, 0.0, 0.0, 0.0, 0.0, 0.0, 0.0, 0.0, 0.0, 0.0, 0.0, -2.0, -21.0, -34.0, -38.0, -45.0, -51.0, -67.0, -88.0, -111.0, -139.0, -171.0, -211.0, -238.0, -252.0, -262.0, -282.0, -351.0, -405.0, -418.0, -434.0, -441.0, -442.0, -437.0, -434.0, -431.0, -428.0, -409.0, -397.0, -314.0, -232.0, -182.0, -17.0, 115.0, 259.0, 387.0, 485.0, 568.0, 626.0, 678.0, 686.0, 698.0, 698.0, 699.0, 699.0, 699.0, 699.0, 699.0, 699.0, 699.0, 699.0, 699.0, 699.0, 699.0]	[-490.0, -490.0, -490.0, -490.0, -490.0, -490.0, -490.0, -490.0, -490.0, -490.0, -490.0, -490.0, -490.0, -490.0, -490.0, -490.0, -490.0, -490.0, -490.0, -490.0, -490.0, -490.0, -489.0, -486.0, -484.0, -481.0, -478.0, -471.0, -463.0, -457.0, -447.0, -435.0, -417.0, -405.0, -393.0, -378.0, -351.0, -262.0, -186.0, -157.0, -108.0, -84.0, -63.0, -27.0, -14.0, 17.0, 42.0, 91.0, 107.0, 177.0, 222.0, 241.0, 296.0, 327.0, 357.0, 380.0, 407.0, 429.0, 447.0, 463.0, 464.0, 468.0, 468.0, 468.0, 468.0, 468.0, 468.0, 468.0, 468.0, 468.0, 468.0, 468.0, 468.0, 468.0]	[0.00848382987169316, 0.012744347448460758, 0.0174909231136553, 0.03777360821550246, 0.05135387999325758, 0.06579806539957644, 0.08358321748528397, 0.10209370203665458, 0.11544698742363835, 0.13680555390601512, 0.15087222510192078, 0.16579359393654158, 0.18353778607706772, 0.20137209010135848, 0.21543807863054099, 0.23645531218789984, 0.25133845174423186, 0.26566624262341065, 0.2836244505015202, 0.3004159824413364, 0.3154305351708899, 0.3350298717559781, 0.35157461999187944, 0.3658484802726889, 0.38354352046735585, 0.4006016334242304, 0.4155864901840687, 0.433916068286635, 0.4508294560801005, 0.46844086970668286, 0.48422581085469574, 0.501124862661527, 0.5152382964661228, 0.5339057941673673, 0.5501337854439043, 0.5656596549015376, 0.5840544275924913, 0.6027226079531829, 0.6152566943128477, 0.6337361175683327, 0.650087671368965, 0.6656739567479235, 0.6850326536223292, 0.7002868220661185, 0.7153194654383697, 0.7337350594389136, 0.7500183466545423, 0.7653960776151507, 0.7846673932581325, 0.8035338880508789, 0.8153088499821024, 0.8337671105982736, 0.8504692133137723, 0.8655878725840012, 0.8840375998770469, 0.9001812819260522, 0.9152555679174839, 0.9337943830978475, 0.950094736959727, 0.9655243505258113, 0.9833770865297993, 1.0004154021808063, 1.0151121739545488, 1.0338233622678672, 1.0500380415614927, 1.065743452134484, 1.0834330310026417, 1.1005286905783578, 1.1155824965899228, 1.1336413976823678, 1.1503523750507156, 1.1656652527599363, 1.1840060948452447, 1.2002415954484604]
4	飞机	False	animate	inanimate	right	1.327	[0.0, 0.0, 0.0, 0.0, 0.0, 0.0, 0.0, 0.0, 0.0, 0.0, 0.0, 0.0, 0.0, 0.0, 0.0, 0.0, 0.0, -1.0, -1.0, -1.0, -4.0, -5.0, -9.0, -16.0, -33.0, -56.0, -65.0, -66.0, -66.0, -66.0, -66.0, -75.0, -84.0, -86.0, -88.0, -90.0, -93.0, -100.0, -106.0, -106.0, -101.0, -96.0, -93.0, -93.0, -89.0, -61.0, 2.0, 119.0, 160.0, 238.0, 305.0, 369.0, 421.0, 468.0, 479.0, 498.0, 501.0, 502.0, 502.0, 502.0, 511.0, 525.0, 545.0, 554.0, 586.0, 631.0, 642.0, 668.0, 684.0, 700.0, 710.0, 714.0, 715.0, 715.0, 715.0, 715.0, 715.0, 715.0, 715.0, 715.0]	[-490.0, -490.0, -490.0, -490.0, -490.0, -490.0, -490.0, -490.0, -490.0, -490.0, -490.0, -490.0, -490.0, -490.0, -489.0, -486.0, -483.0, -476.0, -474.0, -468.0, -461.0, -451.0, -438.0, -422.0, -395.0, -362.0, -345.0, -339.0, -333.0, -326.0, -323.0, -306.0, -292.0, -280.0, -271.0, -263.0, -249.0, -231.0, -211.0, -190.0, -166.0, -130.0, -116.0, -75.0, -48.0, -5.0, 52.0, 136.0, 166.0, 215.0, 259.0, 294.0, 318.0, 337.0, 341.0, 347.0, 347.0, 347.0, 347.0, 348.0, 349.0, 352.0, 361.0, 364.0, 376.0, 394.0, 398.0, 412.0, 420.0, 425.0, 430.0, 433.0, 434.0, 434.0, 434.0, 434.0, 434.0, 434.0, 434.0, 434.0]	[0.004829519566555973, 0.010732189846748952, 0.024879756951122545, 0.04290111141745001, 0.059887885792704765, 0.07451434298127424, 0.09295451295474777, 0.10985151676868554, 0.12449162727716612, 0.14327961549861357, 0.15954139873792883, 0.17501743358297972, 0.1928234069782775, 0.2099729971596389, 0.22518859498086385, 0.24391207128064707, 0.2596877964315354, 0.2749976021441398, 0.29421293918130687, 0.3097889845739701, 0.3250093610622571, 0.3431273127498571, 0.3616644212670508, 0.3750112213238026, 0.3940845638717292, 0.4097845131182112, 0.4250202495823032, 0.44302351340593304, 0.4615855392330559, 0.4750231338402955, 0.4941650843102252, 0.5097418123696116, 0.5260025716052041, 0.5431221244871267, 0.5601546374746249, 0.5750217343811528, 0.5933393658269779, 0.6098329141241265, 0.6249870720203035, 0.6428203520481475, 0.6620831343680038, 0.6744974128741887, 0.6940711494899006, 0.7093799311987823, 0.7250180991832167, 0.744191110941756, 0.7597016204163083, 0.77482608234277, 0.792843682153034, 0.8094290490043932, 0.824714278744068, 0.8426991105952766, 0.859747666225303, 0.8747936215877417, 0.8952862264341093, 0.9100949554122053, 0.9249361110123573, 0.943466734206595, 0.9622772504008026, 0.9750799657776952, 0.9948349501719349, 1.010927090952464, 1.0251610152772628, 1.0428557141422061, 1.0598209845411475, 1.0747921879883506, 1.0928940970261465, 1.1101095644626184, 1.1249968000047375, 1.1427249494954594, 1.159724011857179, 1.174810244498076, 1.1929189801958273, 1.2093514298976515, 1.2247540781681892, 1.2440400711275288, 1.2628256700118072, 1.2746460292255506, 1.2927605675868108, 1.3098162912137923]
5	篮球	False	animate	inanimate	right	1.673	[0.0, 0.0, 0.0, 0.0, 0.0, 0.0, 0.0, 0.0, 0.0, 0.0, 0.0, 0.0, 0.0, 0.0, 0.0, 0.0, -5.0, -10.0, -15.0, -25.0, -40.0, -51.0, -63.0, -76.0, -90.0, -104.0, -115.0, -128.0, -133.0, -133.0, -133.0, -140.0, -151.0, -162.0, -172.0, -185.0, -204.0, -223.0, -247.0, -272.0, -302.0, -320.0, -327.0, -333.0, -333.0, -324.0, -290.0, -249.0, -221.0, -191.0, -146.0, -103.0, -37.0, 17.0, 41.0, 109.0, 155.0, 204.0, 248.0, 293.0, 344.0, 401.0, 441.0, 476.0, 524.0, 548.0, 558.0, 585.0, 604.0, 618.0, 624.0, 627.0, 628.0, 628.0, 630.0, 634.0, 635.0, 637.0, 637.0, 637.0, 637.0, 637.0, 637.0, 637.0, 637.0, 637.0, 637.0, 637.0, 637.0, 640.0, 649.0, 662.0, 672.0, 686.0, 703.0, 720.0, 733.0, 737.0, 737.0, 737.0, 737.0]	[-490.0, -490.0, -490.0, -490.0, -490.0, -490.0, -490.0, -490.0, -490.0, -490.0, -490.0, -490.0, -490.0, -490.0, -488.0, -484.0, -473.0, -463.0, -450.0, -426.0, -397.0, -371.0, -334.0, -293.0, -244.0, -193.0, -152.0, -108.0, -69.0, -47.0, -39.0, -20.0, -2.0, 17.0, 36.0, 57.0, 77.0, 92.0, 105.0, 118.0, 132.0, 138.0, 141.0, 144.0, 145.0, 157.0, 178.0, 191.0, 196.0, 201.0, 208.0, 219.0, 240.0, 254.0, 260.0, 270.0, 278.0, 284.0, 291.0, 298.0, 304.0, 312.0, 326.0, 333.0, 347.0, 356.0, 358.0, 370.0, 375.0, 381.0, 385.0, 388.0, 389.0, 390.0, 391.0, 392.0, 393.0, 393.0, 393.0, 393.0, 393.0, 393.0, 393.0, 393.0, 393.0, 393.0, 393.0, 393.0, 393.0, 393.0, 393.0, 395.0, 399.0, 403.0, 407.0, 409.0, 410.0, 412.0, 412.0, 412.0, 412.0]	[0.009457652704440989, 0.014473198709310964, 0.019725971105799545, 0.034872619675297756, 0.05106340566271683, 0.06895573629299179, 0.08464134955283953, 0.10096491405420238, 0.11628188774921, 0.13589931498427177, 0.1511459741013823, 0.16615745483431965, 0.1847201633208897, 0.20102973317261785, 0.2164477414189605, 0.23591464082710445, 0.25112443599209655, 0.26618643399706343, 0.28473548917099833, 0.30099658974359045, 0.31648013391532004, 0.33493429853842827, 0.3511090418760432, 0.3669366496396833, 0.38457810055842856, 0.40087162776035257, 0.4165077477518935, 0.43581831667688675, 0.4510209438521997, 0.46608703785022954, 0.4845330104799359, 0.5008726176311029, 0.5164315963702393, 0.534925014282635, 0.5510516296781134, 0.5666665870230645, 0.5844377444591373, 0.6012541937016067, 0.6164561382101965, 0.634937609465851, 0.6509918622832629, 0.6668880779616302, 0.6845022222478292, 0.7008701600279892, 0.7165376826451393, 0.7359032061795006, 0.751024596109346, 0.7662637459070538, 0.7844639588292921, 0.8008032246434595, 0.8165284325223183, 0.8348580106248846, 0.8509190901022521, 0.8671057801038842, 0.8844219407474156, 0.9012435099866707, 0.9166069049606449, 0.9349515017165686, 0.9509835678982199, 0.9667316450795624, 0.984501437182189, 1.0007686817552894, 1.0165184655998019, 1.0349081183012458, 1.0509340404896648, 1.0672227890245267, 1.084443717787508, 1.100746119642281, 1.1164078396031982, 1.1358371923925006, 1.1509882782920613, 1.1662960360044963, 1.1846300514298491, 1.2007826081317035, 1.2165037200174993, 1.2341424402839039, 1.251220350546646, 1.266421271051513, 1.2846126093209023, 1.3008139766316162, 1.31645760594256, 1.3358163028169656, 1.3510206366481725, 1.36884777269006, 1.3847712949936977, 1.4008217931550462, 1.4163507346020197, 1.4358493779727723, 1.451076581113739, 1.4661365311258123, 1.4846395063505042, 1.501613310072571, 1.5163462631389848, 1.5341525778712821, 1.5511827015216113, 1.566482608577644, 1.584679066836543, 1.6007295649978914, 1.6164861755096354, 1.634114314445469, 1.651027360909211]
6	鸡蛋	False	animate	inanimate	right	1.383	[0.0, 0.0, 0.0, 0.0, 0.0, 0.0, 0.0, 0.0, 0.0, 0.0, 0.0, 0.0, 0.0, -3.0, -4.0, -5.0, -8.0, -9.0, -10.0, -12.0, -14.0, -15.0, -17.0, -20.0, -20.0, -25.0, -29.0, -34.0, -37.0, -38.0, -38.0, -39.0, -44.0, -48.0, -72.0, -83.0, -89.0, -95.0, -104.0, -122.0, -151.0, -196.0, -239.0, -251.0, -251.0, -253.0, -261.0, -282.0, -288.0, -299.0, -301.0, -301.0, -299.0, -284.0, -264.0, -230.0, -165.0, -85.0, 0.0, 138.0, 181.0, 319.0, 408.0, 495.0, 574.0, 633.0, 682.0, 718.0, 746.0, 769.0, 789.0, 802.0, 810.0, 812.0, 812.0, 812.0, 814.0, 814.0, 814.0, 814.0, 814.0, 814.0, 814.0, 814.0]	[-490.0, -490.0, -490.0, -490.0, -490.0, -490.0, -490.0, -490.0, -490.0, -490.0, -490.0, -490.0, -490.0, -490.0, -487.0, -485.0, -479.0, -476.0, -471.0, -465.0, -458.0, -456.0, -450.0, -442.0, -440.0, -430.0, -420.0, -408.0, -400.0, -392.0, -383.0, -374.0, -361.0, -353.0, -317.0, -298.0, -283.0, -266.0, -248.0, -223.0, -182.0, -119.0, -59.0, -22.0, -19.0, -11.0, -1.0, 26.0, 34.0, 51.0, 57.0, 59.0, 69.0, 83.0, 96.0, 115.0, 143.0, 176.0, 203.0, 241.0, 254.0, 293.0, 319.0, 346.0, 368.0, 384.0, 398.0, 407.0, 416.0, 423.0, 432.0, 438.0, 442.0, 446.0, 448.0, 449.0, 452.0, 453.0, 453.0, 453.0, 453.0, 453.0, 453.0, 453.0]	[0.011766428608098067, 0.015693122586526442, 0.021712187393859494, 0.041138809523545206, 0.05675854552828241, 0.0724462067882996, 0.09015831362921745, 0.10917089891154319, 0.12223712330160197, 0.14090223167295335, 0.15813169375178404, 0.17236766607675236, 0.1902559007066884, 0.209276677982416, 0.2222323105088435, 0.2403922461453476, 0.25680148520768853, 0.27465626921184594, 0.29067604740703246, 0.3072300116327824, 0.3219069860933814, 0.34044921461463673, 0.3579271670678281, 0.3721907873550663, 0.39025139511795714, 0.4071088043056079, 0.4225408072088612, 0.44026110603590496, 0.4569253207955626, 0.4724361715998384, 0.4907292270800099, 0.5092523409475689, 0.5223076426846092, 0.5418274487019517, 0.5582196211180417, 0.5726419612183236, 0.5901656522837584, 0.6070629974274198, 0.6222874699087697, 0.6432948048095568, 0.6573887826380087, 0.6746865113091189, 0.7001014782799757, 0.7061833483458031, 0.7222676384626538, 0.740636128524784, 0.7574583804234862, 0.7732928148398059, 0.7905273969154223, 0.8068144387943903, 0.8218405968436855, 0.8403401587420376, 0.8573006504811929, 0.8726118215199676, 0.8905621787416749, 0.906862873933278, 0.9218593360201339, 0.9403722099013976, 0.9567479983379599, 0.972275574458763, 0.9902109130271128, 1.00690141042287, 1.0220664909720654, 1.0402100426290417, 1.05857034069777, 1.0721908897539834, 1.090263785503339, 1.1071938986060559, 1.1230464236723492, 1.140342104336014, 1.1573019134084461, 1.1722970101618557, 1.1902070900978288, 1.207222536439076, 1.221877665600914, 1.239914721380046, 1.2588627947479836, 1.272021520358976, 1.2929373780425522, 1.3070576384998276, 1.3224674547600443, 1.33991775924369, 1.357631231418054, 1.3724955976576894]
7	礼物	False	inanimate	animate	left	1.338	[0.0, 0.0, 0.0, 0.0, 0.0, 0.0, 0.0, 0.0, 0.0, 0.0, 0.0, 0.0, -1.0, -1.0, -2.0, -2.0, -2.0, -2.0, -2.0, -3.0, -3.0, -3.0, -3.0, -6.0, -10.0, -16.0, -26.0, -27.0, -24.0, -16.0, -12.0, -2.0, 4.0, 10.0, 21.0, 32.0, 45.0, 57.0, 78.0, 107.0, 188.0, 270.0, 308.0, 425.0, 504.0, 575.0, 630.0, 649.0, 650.0, 647.0, 594.0, 559.0, 427.0, 332.0, 285.0, 144.0, 46.0, -67.0, -184.0, -308.0, -411.0, -492.0, -548.0, -589.0, -635.0, -656.0, -664.0, -682.0, -694.0, -704.0, -716.0, -724.0, -730.0, -735.0, -740.0, -742.0, -743.0, -743.0, -743.0, -743.0]	[-490.0, -490.0, -491.0, -491.0, -491.0, -491.0, -491.0, -491.0, -491.0, -491.0, -491.0, -490.0, -489.0, -487.0, -484.0, -482.0, -480.0, -479.0, -478.0, -473.0, -467.0, -462.0, -455.0, -446.0, -429.0, -408.0, -375.0, -366.0, -343.0, -329.0, -322.0, -302.0, -287.0, -271.0, -252.0, -236.0, -221.0, -209.0, -191.0, -164.0, -101.0, -42.0, -13.0, 67.0, 125.0, 173.0, 215.0, 232.0, 239.0, 241.0, 243.0, 243.0, 238.0, 223.0, 216.0, 202.0, 202.0, 202.0, 202.0, 202.0, 215.0, 226.0, 237.0, 250.0, 273.0, 285.0, 290.0, 304.0, 315.0, 321.0, 330.0, 338.0, 347.0, 358.0, 371.0, 383.0, 394.0, 395.0, 397.0, 397.0]	[0.000712703142198734, 0.005742243803979363, 0.01657171353144804, 0.034659286589885596, 0.051791468787996564, 0.06648073124233633, 0.0845143736951286, 0.10144926546490751, 0.11618051186815137, 0.1349872733990196, 0.1518003093151492, 0.16650288374512456, 0.18457236616086448, 0.20146663930790965, 0.2166460558437393, 0.2348288607900031, 0.25175999789644266, 0.2664748603128828, 0.284580524014018, 0.3014556825219188, 0.31665557903033914, 0.3348400906397728, 0.3522934671200346, 0.3666130660130875, 0.38575023782323115, 0.40158637890272075, 0.4167132301663514, 0.4347868085678783, 0.4517223830043804, 0.4664747920469381, 0.48452174648991786, 0.5013911023343098, 0.5166585827610106, 0.5348144224044518, 0.5517192768747918, 0.5665191311927629, 0.5844609550913447, 0.6013753668885329, 0.6166756152742892, 0.6347263243733323, 0.6511130354629131, 0.6666935181856388, 0.6851371014854521, 0.701232655592321, 0.7171527645696187, 0.7347126369277248, 0.7514417049387703, 0.7668344545527361, 0.7848680970055284, 0.8015807810443221, 0.8163113447735668, 0.8345265763491625, 0.8517877823906019, 0.8664603195284144, 0.8844826979984646, 0.9013175792206312, 0.9166987235148554, 0.9348869897876284, 0.9517553216355736, 0.9664749627117999, 0.9844058639573632, 1.001371475693304, 1.016698689381883, 1.0346367586171255, 1.051765186151897, 1.0665121338679455, 1.0844078778245603, 1.1013540335770813, 1.1166662286195788, 1.134851081558736, 1.1517081494239392, 1.1664673851264524, 1.1843774650624255, 1.201404858053138, 1.2167071544390637, 1.234705980932631, 1.2510203294441453, 1.266677612075, 1.2843648016059888, 1.301474114501616]
8	老虎	True	inanimate	animate	right	1.214	[0.0, 0.0, 0.0, 0.0, 0.0, 0.0, 0.0, 0.0, 0.0, 0.0, 0.0, 0.0, 0.0, 0.0, 0.0, 0.0, 0.0, 0.0, 0.0, 0.0, 0.0, 0.0, 1.0, 1.0, 1.0, 1.0, 1.0, 1.0, 1.0, -3.0, -8.0, -15.0, -15.0, -14.0, -2.0, 13.0, 25.0, 30.0, 32.0, 38.0, 47.0, 52.0, 53.0, 54.0, 54.0, 54.0, 57.0, 68.0, 79.0, 116.0, 168.0, 222.0, 273.0, 330.0, 386.0, 453.0, 516.0, 574.0, 663.0, 727.0, 763.0, 851.0, 888.0, 908.0, 917.0, 923.0, 927.0, 927.0, 927.0, 927.0, 927.0, 927.0, 927.0, 927.0]	[-490.0, -490.0, -490.0, -490.0, -490.0, -490.0, -490.0, -490.0, -490.0, -490.0, -490.0, -490.0, -490.0, -491.0, -491.0, -491.0, -491.0, -491.0, -491.0, -491.0, -491.0, -491.0, -490.0, -486.0, -484.0, -473.0, -464.0, -454.0, -434.0, -410.0, -375.0, -306.0, -281.0, -242.0, -203.0, -166.0, -135.0, -100.0, -78.0, -58.0, -37.0, -19.0, -7.0, 3.0, 15.0, 25.0, 37.0, 53.0, 69.0, 94.0, 118.0, 142.0, 174.0, 210.0, 246.0, 284.0, 319.0, 350.0, 392.0, 418.0, 431.0, 459.0, 474.0, 484.0, 490.0, 493.0, 494.0, 494.0, 494.0, 494.0, 494.0, 494.0, 494.0, 494.0]	[0.012916379229864106, 0.019128297142742667, 0.023749944957671687, 0.042810316852410324, 0.05910213739116443, 0.0764892952865921, 0.09250873214477906, 0.1089005632311455, 0.12439195805927739, 0.14280072539986577, 0.15913828454358736, 0.1739575948449783, 0.19224655432481086, 0.2093261712579988, 0.22441513456578832, 0.2421716146855033, 0.2590382398630027, 0.27411252585443435, 0.29259024244674947, 0.308770105788426, 0.3242041566845728, 0.34279485447041225, 0.3589928084547864, 0.37388277466379805, 0.39222020342276664, 0.40877211964834714, 0.4243116424186155, 0.44274293773196405, 0.4589559103624197, 0.4742425054355408, 0.4924003930791514, 0.5093270928555285, 0.5244344881430152, 0.5420889097149484, 0.5589753322055913, 0.5738868023909163, 0.5922010205176775, 0.6086812568246387, 0.6242487688941765, 0.6427667627722258, 0.6589701780831092, 0.6740884960163385, 0.6923723355066613, 0.7092867473038496, 0.7242357641080162, 0.7419932682314538, 0.7589790186029859, 0.7738614754925948, 0.7921746696156333, 0.809301390487235, 0.8243589511621394, 0.8421024606286664, 0.859088552337198, 0.8742188169271685, 0.892588672315469, 0.9086405358102638, 0.9243503837060416, 0.9427407190669328, 0.9588454891636502, 0.97409760960727, 0.9921705053493497, 1.009371978136187, 1.0244131548315636, 1.042149837645411, 1.058975502877729, 1.0737832078521024, 1.092216892495344, 1.1093244987278013, 1.1243451954433112, 1.1420992862331332, 1.1589877567239455, 1.1740777440354577, 1.1926001752362936, 1.2087981292206678]
9	戒指	False	animate	inanimate	right	1.351	[0.0, 0.0, 0.0, 0.0, 0.0, 0.0, 0.0, 0.0, 0.0, 0.0, 0.0, 0.0, 0.0, 0.0, 0.0, 0.0, 0.0, 0.0, 0.0, 0.0, 0.0, 0.0, 0.0, 0.0, 0.0, 0.0, 0.0, 0.0, 0.0, 0.0, 0.0, 3.0, 10.0, 10.0, 10.0, 10.0, 10.0, 10.0, 10.0, 10.0, 8.0, 4.0, 0.0, 2.0, 51.0, 71.0, 145.0, 204.0, 263.0, 334.0, 356.0, 384.0, 404.0, 417.0, 429.0, 448.0, 453.0, 464.0, 473.0, 478.0, 486.0, 496.0, 509.0, 521.0, 533.0, 554.0, 561.0, 584.0, 600.0, 613.0, 630.0, 647.0, 656.0, 687.0, 704.0, 716.0, 720.0, 720.0, 720.0, 720.0, 720.0]	[-490.0, -490.0, -490.0, -490.0, -490.0, -490.0, -490.0, -490.0, -490.0, -490.0, -490.0, -490.0, -490.0, -490.0, -490.0, -490.0, -490.0, -490.0, -490.0, -490.0, -490.0, -490.0, -490.0, -490.0, -490.0, -490.0, -490.0, -490.0, -490.0, -490.0, -490.0, -487.0, -472.0, -465.0, -458.0, -443.0, -435.0, -403.0, -387.0, -375.0, -363.0, -350.0, -331.0, -309.0, -255.0, -238.0, -174.0, -126.0, -74.0, -15.0, 3.0, 27.0, 43.0, 57.0, 67.0, 82.0, 86.0, 94.0, 107.0, 120.0, 136.0, 151.0, 170.0, 187.0, 205.0, 234.0, 244.0, 274.0, 292.0, 308.0, 328.0, 343.0, 351.0, 373.0, 385.0, 393.0, 395.0, 395.0, 395.0, 395.0, 395.0]	[0.0004857167514273897, 0.005025444661441725, 0.015647383974283002, 0.034358230950601865, 0.05081218462873949, 0.06627729682077188, 0.08415495012741303, 0.10123968705011066, 0.116297247732291, 0.13447356734832283, 0.15076675322052324, 0.1663595239224378, 0.1844962489194586, 0.20121098095114576, 0.2158418754770537, 0.23408236568502616, 0.2511268253219896, 0.2658205250991159, 0.28443238553154515, 0.3011536028861883, 0.3166187150782207, 0.33408779287856305, 0.3511697991343681, 0.3656887364559225, 0.3840152425618726, 0.4011310407804558, 0.4159605910681421, 0.43439154504449107, 0.4507116962195141, 0.46584776346571743, 0.4870639941218542, 0.5010685427259887, 0.5180396157811629, 0.5340423273300985, 0.5534331094968366, 0.5656163056119112, 0.5871056026080623, 0.6012726256813039, 0.6162410984616145, 0.6341126077822992, 0.6530483931564959, 0.6656036421627505, 0.6854838957442553, 0.7017709376159473, 0.7162284350124537, 0.7340842430130579, 0.7521475814355654, 0.7663777511043008, 0.7901720693407697, 0.8007339340547333, 0.8165420858349535, 0.8345982562677818, 0.8510624499322148, 0.8662715624304838, 0.8842799462508992, 0.9006680226666504, 0.9162805906817084, 0.9345456568626105, 0.9538821670939797, 0.9662090643687407, 0.9882154807492043, 1.0012827291357098, 1.0183189967792714, 1.0346159373148112, 1.0535909759782953, 1.0662288275489118, 1.0858438654468046, 1.1012591430262546, 1.1186930635376484, 1.1344899513278506, 1.1510824861761648, 1.1657608259702101, 1.1843167078041006, 1.201302116845909, 1.2172177885004203, 1.2344499812461436, 1.2507534070973634, 1.2658102851128206, 1.2842726417220547, 1.3012624880939256, 1.3165518138266634]
10	电脑	False	inanimate	animate	left	1.73	[0.0, 0.0, 0.0, 0.0, 0.0, 0.0, 0.0, 0.0, 0.0, 0.0, 0.0, 0.0, 0.0, 2.0, 6.0, 8.0, 11.0, 13.0, 19.0, 26.0, 42.0, 55.0, 60.0, 62.0, 59.0, 47.0, 41.0, 38.0, 35.0, 32.0, 31.0, 28.0, 28.0, 28.0, 33.0, 37.0, 39.0, 39.0, 38.0, 38.0, 35.0, 33.0, 32.0, 20.0, 8.0, -1.0, -14.0, -27.0, -46.0, -63.0, -107.0, -118.0, -152.0, -175.0, -201.0, -231.0, -260.0, -293.0, -319.0, -341.0, -362.0, -387.0, -427.0, -440.0, -468.0, -483.0, -499.0, -515.0, -533.0, -550.0, -573.0, -583.0, -595.0, -609.0, -639.0, -650.0, -684.0, -701.0, -708.0, -712.0, -716.0, -718.0, -719.0, -719.0, -719.0, -719.0, -719.0, -719.0, -719.0, -719.0, -719.0, -719.0, -719.0, -719.0, -719.0, -719.0, -719.0, -719.0, -719.0, -719.0, -719.0, -719.0, -719.0, -719.0, -719.0]	[-490.0, -490.0, -490.0, -490.0, -490.0, -490.0, -490.0, -490.0, -490.0, -490.0, -490.0, -484.0, -480.0, -474.0, -461.0, -452.0, -440.0, -423.0, -394.0, -360.0, -305.0, -259.0, -229.0, -204.0, -172.0, -145.0, -121.0, -107.0, -91.0, -76.0, -62.0, -41.0, -36.0, -22.0, -9.0, 5.0, 20.0, 32.0, 36.0, 36.0, 37.0, 39.0, 39.0, 45.0, 52.0, 55.0, 60.0, 68.0, 79.0, 91.0, 119.0, 124.0, 139.0, 148.0, 157.0, 165.0, 174.0, 188.0, 202.0, 216.0, 230.0, 244.0, 267.0, 274.0, 289.0, 296.0, 302.0, 309.0, 316.0, 326.0, 336.0, 341.0, 343.0, 347.0, 353.0, 354.0, 360.0, 363.0, 364.0, 365.0, 367.0, 368.0, 369.0, 369.0, 369.0, 369.0, 369.0, 369.0, 369.0, 369.0, 369.0, 369.0, 369.0, 369.0, 369.0, 369.0, 369.0, 369.0, 369.0, 369.0, 369.0, 369.0, 369.0, 369.0, 369.0]	[0.0077011534667690285, 0.015213891158055048, 0.020716519255074672, 0.03211567363177892, 0.050122350789024495, 0.06406307013821788, 0.08197417407063767, 0.09867661811586004, 0.11692666565068066, 0.13252558034582762, 0.14958062130608596, 0.16409512129757786, 0.18227212358033285, 0.19924080731288996, 0.21436219724273542, 0.23251974354934646, 0.252193149382947, 0.2640520792119787, 0.28467951057245955, 0.29857688063930254, 0.3140645207968191, 0.3324787494711927, 0.35111313786910614, 0.36406433306547115, 0.38229628995031817, 0.39919738976459485, 0.41702793912554625, 0.43241727540589636, 0.4502375847878284, 0.46431415463302983, 0.4822358398887445, 0.4986269883083878, 0.5139576153305825, 0.5332797895753174, 0.5485936912809848, 0.563841374401818, 0.5821136085723992, 0.5997536941649741, 0.6152840009453939, 0.6324841083915089, 0.6489254327534582, 0.6638860548773664, 0.6820524758441024, 0.6989832716135425, 0.7143599785777042, 0.7324816849286435, 0.7487154788686894, 0.7636808796596597, 0.7817961006803671, 0.7988521656370722, 0.8140244141832227, 0.8320962859215797, 0.8492472414363874, 0.8640470957543585, 0.8819394263773574, 0.8989371234056307, 0.914060220005922, 0.9321095637787948, 0.9485256294938154, 0.9642245547438506, 0.982506346234004, 0.9988404920513858, 1.014057455206057, 1.0320480897134985, 1.0484310461470159, 1.0642566059032106, 1.0824892454547808, 1.0993452893162612, 1.1140495704166824, 1.132134754145227, 1.1484473959935713, 1.1643797929573338, 1.1824796540022362, 1.1993889458026388, 1.2140485122872633, 1.2320780587469926, 1.2485231377650052, 1.2647098277593614, 1.2824400252502528, 1.3035582933516707, 1.3140218541811919, 1.3320865579371457, 1.3485695249109995, 1.36665948729933, 1.3824294097939855, 1.3995516933355248, 1.4140866733068833, 1.4322660649195313, 1.4485268241623999, 1.4652296095446218, 1.4824805755997659, 1.502469714381732, 1.514034073901712, 1.5323179133920348, 1.5484482834581286, 1.5649049677958828, 1.5824443601741223, 1.6024744589158217, 1.6140275544457836, 1.635046836003312, 1.648458147974452, 1.6643007743841736, 1.6823688914664672, 1.7017149590174085, 1.7136131421357277]
11	野猪	True	inanimate	animate	right	1.155	[0.0, 4.0, 6.0, 6.0, 6.0, 6.0, 6.0, 6.0, 6.0, 6.0, 6.0, 6.0, 7.0, 7.0, 7.0, 7.0, 7.0, 9.0, 11.0, 16.0, 23.0, 26.0, 29.0, 29.0, 29.0, 29.0, 29.0, 29.0, 32.0, 41.0, 48.0, 51.0, 57.0, 67.0, 79.0, 91.0, 96.0, 98.0, 99.0, 99.0, 103.0, 111.0, 117.0, 121.0, 124.0, 129.0, 170.0, 216.0, 275.0, 341.0, 417.0, 490.0, 545.0, 578.0, 602.0, 617.0, 628.0, 632.0, 648.0, 656.0, 658.0, 658.0, 658.0, 658.0, 658.0, 660.0, 665.0, 665.0, 665.0, 665.0]	[-490.0, -490.0, -490.0, -490.0, -490.0, -490.0, -490.0, -490.0, -490.0, -490.0, -490.0, -490.0, -490.0, -490.0, -489.0, -487.0, -484.0, -476.0, -471.0, -459.0, -434.0, -423.0, -389.0, -361.0, -332.0, -307.0, -280.0, -248.0, -189.0, -127.0, -83.0, -48.0, -5.0, 22.0, 51.0, 79.0, 96.0, 106.0, 111.0, 119.0, 135.0, 150.0, 160.0, 168.0, 180.0, 187.0, 234.0, 266.0, 301.0, 339.0, 374.0, 405.0, 431.0, 449.0, 459.0, 464.0, 467.0, 468.0, 472.0, 473.0, 473.0, 473.0, 473.0, 473.0, 473.0, 473.0, 473.0, 473.0, 473.0, 473.0]	[0.011656519411189947, 0.018992787976458203, 0.02614200610696571, 0.039932880295964424, 0.05799656004819553, 0.07188266612502048, 0.0898763726290781, 0.10653410205850378, 0.12146741755714174, 0.14005060602357844, 0.15660115691571264, 0.1719307599341846, 0.18986063718330115, 0.20673511302447878, 0.22236235834861873, 0.2398990200672415, 0.2567325359559618, 0.2719358457979979, 0.2898312484176131, 0.30655075910908636, 0.3214629119611345, 0.33980307137971977, 0.3568287577072624, 0.3719678969573579, 0.38998583809734555, 0.40692072986712446, 0.4221800183004234, 0.4403706739030895, 0.45688401951338165, 0.47152481268858537, 0.48993221469572745, 0.5078457079580403, 0.5246672771972953, 0.5397302992059849, 0.5566273030199227, 0.5719012687695795, 0.5900007884774823, 0.6069090562814381, 0.6219447716503055, 0.639872259569529, 0.6567477594071534, 0.671725789514312, 0.6897570426372113, 0.7084102043518214, 0.7218239056601305, 0.7402255050110398, 0.7565797894712887, 0.7717714939935831, 0.7899665869190358, 0.8077408163517248, 0.8220088739763014, 0.8402138655583258, 0.8564978354406776, 0.8744970032712445, 0.8900706593267387, 0.9071342336101225, 0.9219016613060376, 0.9396496081026271, 0.9563762867837795, 0.9715737939623068, 0.9895893457724014, 1.0081117769732373, 1.0221641121897846, 1.0398267257551197, 1.0563090100622503, 1.0717297489754856, 1.0901907402512734, 1.1062709343750612, 1.1216234067032929, 1.1401000992918853]
12	麻将	False	animate	inanimate	right	1.217	[0.0, 0.0, 0.0, 0.0, 0.0, 0.0, 0.0, 0.0, 0.0, 0.0, 0.0, 0.0, 0.0, 0.0, 0.0, 0.0, 0.0, 0.0, 0.0, 0.0, 0.0, 0.0, 0.0, 0.0, 0.0, -4.0, -10.0, -18.0, -25.0, -29.0, -29.0, -26.0, -21.0, -14.0, -4.0, 8.0, 16.0, 45.0, 74.0, 85.0, 89.0, 91.0, 91.0, 94.0, 94.0, 98.0, 116.0, 144.0, 201.0, 293.0, 392.0, 498.0, 592.0, 687.0, 767.0, 823.0, 830.0, 830.0, 830.0, 830.0, 830.0, 830.0, 830.0, 830.0, 830.0, 830.0, 830.0, 830.0, 830.0, 830.0, 830.0, 830.0, 830.0]	[-490.0, -490.0, -490.0, -490.0, -490.0, -490.0, -490.0, -490.0, -490.0, -490.0, -490.0, -490.0, -490.0, -490.0, -490.0, -489.0, -485.0, -474.0, -469.0, -452.0, -439.0, -431.0, -406.0, -387.0, -366.0, -344.0, -324.0, -298.0, -269.0, -246.0, -223.0, -187.0, -173.0, -146.0, -108.0, -76.0, -63.0, -1.0, 47.0, 70.0, 80.0, 86.0, 89.0, 97.0, 100.0, 113.0, 148.0, 184.0, 234.0, 277.0, 316.0, 346.0, 371.0, 398.0, 418.0, 435.0, 437.0, 437.0, 437.0, 437.0, 437.0, 437.0, 437.0, 437.0, 437.0, 437.0, 437.0, 437.0, 437.0, 437.0, 437.0, 437.0, 437.0]	[0.0009130655744229443, 0.006416717667889316, 0.016550550899410155, 0.035766229273576755, 0.05313393119286047, 0.06639232602174161, 0.08471371213090606, 0.10214217130851466, 0.11704374283726793, 0.13609455741243437, 0.15150573900609743, 0.16676059010933386, 0.18522977337852353, 0.20136697010457283, 0.21690615153784165, 0.2353121882188134, 0.2539404326307704, 0.26636426844925154, 0.2847860064430279, 0.30184173007000936, 0.31722492235712707, 0.33525344482040964, 0.3514985027431976, 0.3662727570917923, 0.3850115933746565, 0.4018000533178565, 0.4171893895982066, 0.4346704140480142, 0.4514373700149008, 0.46674854106095154, 0.48726742854341865, 0.501385299678077, 0.5168046732578659, 0.5357462612955715, 0.5545359561801888, 0.5664727099210722, 0.5848050186905311, 0.6013873135452741, 0.6170630281485501, 0.6349597961016116, 0.6514994243407273, 0.666383587893506, 0.6848435551728471, 0.7013726020959439, 0.7174599642094108, 0.7348809140603407, 0.7513546650516219, 0.7692002330659307, 0.7849797128801583, 0.8013428720005322, 0.8170482825662475, 0.8352051462134114, 0.8513891055408749, 0.8691472923237598, 0.8848274442643742, 0.9014762990409508, 0.9166441102497629, 0.9352406106991111, 0.9513907780710724, 0.9669876447733259, 0.9845953037365689, 1.0011898865777766, 1.0164710203243885, 1.034678401236306, 1.051539565094572, 1.066437381967262, 1.084470341753331, 1.1020841447098064, 1.1162549224463874, 1.1351750065150554, 1.1522761274172808, 1.1670350217827945, 1.18543798646715]
13	骆驼	True	animate	inanimate	left	1.104	[0.0, 0.0, 0.0, 0.0, 0.0, 0.0, 0.0, 0.0, -1.0, -2.0, -4.0, -4.0, -6.0, -7.0, -7.0, -7.0, -7.0, -7.0, -3.0, 0.0, 11.0, 14.0, 27.0, 32.0, 37.0, 40.0, 46.0, 46.0, 46.0, 40.0, 38.0, 36.0, 29.0, 25.0, 12.0, -2.0, -30.0, -68.0, -111.0, -150.0, -174.0, -192.0, -209.0, -245.0, -283.0, -328.0, -385.0, -479.0, -537.0, -578.0, -599.0, -614.0, -628.0, -644.0, -663.0, -687.0, -711.0, -735.0, -749.0, -759.0, -759.0, -762.0, -762.0, -762.0, -762.0, -762.0, -762.0]	[-490.0, -490.0, -490.0, -490.0, -490.0, -490.0, -490.0, -490.0, -490.0, -490.0, -489.0, -487.0, -479.0, -472.0, -466.0, -454.0, -426.0, -416.0, -389.0, -366.0, -323.0, -310.0, -254.0, -218.0, -197.0, -162.0, -122.0, -97.0, -66.0, -17.0, 15.0, 40.0, 69.0, 78.0, 98.0, 118.0, 152.0, 193.0, 229.0, 260.0, 274.0, 283.0, 295.0, 321.0, 347.0, 374.0, 399.0, 432.0, 445.0, 450.0, 451.0, 453.0, 453.0, 453.0, 453.0, 453.0, 453.0, 453.0, 454.0, 456.0, 456.0, 457.0, 457.0, 457.0, 457.0, 457.0, 457.0]	[0.005725518487452064, 0.014843203593045473, 0.02651883765065577, 0.04481325845699757, 0.06122795884584775, 0.07706512392906006, 0.09448846311715897, 0.11352221103879856, 0.1265737581124995, 0.14533341570495395, 0.16107193556672428, 0.17964590804331237, 0.19442903705203207, 0.2142270293988986, 0.2265583640037221, 0.2495334832201479, 0.261076680093538, 0.2793833888936206, 0.2949611409494537, 0.31209639514418086, 0.3265617431970895, 0.3453644087348948, 0.36177023447089596, 0.3768684137612581, 0.3945071340276627, 0.4126158697254141, 0.42684023673064075, 0.4447267646974069, 0.4617783923240495, 0.47673867311823415, 0.4949334247139632, 0.5141876737106941, 0.5265548482711893, 0.547573788491718, 0.5617746035277378, 0.5796495261747623, 0.5949460198971792, 0.6124011030478869, 0.6266408300361945, 0.6458162311246269, 0.6617588680819608, 0.6792371618648758, 0.6949589564173948, 0.7115115553096985, 0.7267083798215026, 0.7449959739751648, 0.7618578204928781, 0.7789275387694943, 0.7949630182774854, 0.8111637029287522, 0.8267172203413793, 0.8451109690358862, 0.8610099153738702, 0.8764931182086002, 0.8947953896786203, 0.9111940474249423, 0.9262891547186882, 0.9446504767838633, 0.9616638751249411, 0.9766378092390369, 0.9944318359775934, 1.0113868663902394, 1.026300384575734, 1.0450009915657574, 1.0628591889035306, 1.076589647163928, 1.0957769949091016]
14	蝙蝠	True	inanimate	animate	right	1.413	[0.0, 3.0, 3.0, 3.0, 3.0, 3.0, 3.0, 3.0, 3.0, 3.0, 3.0, 3.0, 3.0, 3.0, 3.0, 3.0, 3.0, 3.0, 2.0, 1.0, -3.0, -8.0, -15.0, -16.0, -20.0, -21.0, -21.0, -21.0, -22.0, -26.0, -30.0, -34.0, -39.0, -49.0, -63.0, -85.0, -91.0, -101.0, -103.0, -107.0, -107.0, -107.0, -107.0, -107.0, -109.0, -109.0, -95.0, -57.0, -32.0, 55.0, 138.0, 232.0, 328.0, 406.0, 446.0, 483.0, 490.0, 496.0, 498.0, 514.0, 535.0, 561.0, 570.0, 574.0, 579.0, 591.0, 607.0, 626.0, 641.0, 651.0, 662.0, 680.0, 687.0, 709.0, 728.0, 744.0, 759.0, 769.0, 771.0, 771.0, 771.0, 771.0, 771.0, 771.0, 771.0]	[-490.0, -490.0, -490.0, -490.0, -490.0, -490.0, -490.0, -490.0, -490.0, -490.0, -490.0, -489.0, -488.0, -487.0, -486.0, -485.0, -482.0, -475.0, -467.0, -455.0, -438.0, -423.0, -395.0, -388.0, -378.0, -362.0, -351.0, -337.0, -324.0, -312.0, -298.0, -288.0, -276.0, -260.0, -236.0, -195.0, -180.0, -144.0, -122.0, -97.0, -66.0, -22.0, 27.0, 58.0, 74.0, 83.0, 110.0, 145.0, 161.0, 208.0, 241.0, 281.0, 314.0, 338.0, 353.0, 363.0, 364.0, 364.0, 365.0, 365.0, 366.0, 371.0, 373.0, 374.0, 374.0, 374.0, 374.0, 374.0, 375.0, 377.0, 378.0, 380.0, 382.0, 385.0, 388.0, 391.0, 394.0, 396.0, 397.0, 397.0, 397.0, 397.0, 397.0, 397.0, 397.0]	[0.0010567667413852178, 0.005537785385968164, 0.016663190763210878, 0.0353173764742678, 0.051715010216867086, 0.06739209016086534, 0.08502500775648514, 0.10188002762151882, 0.11673824987519765, 0.1353426009809482, 0.15229421805997845, 0.16708212572848424, 0.18502121896017343, 0.20201174799876753, 0.21661601855157642, 0.23505926052166615, 0.25162517139688134, 0.2674401498370571, 0.28572125866048736, 0.30187279136589495, 0.31706244788801996, 0.33528109278995544, 0.3516148972703377, 0.36726603590796003, 0.3856563712688512, 0.4018792425558786, 0.41706070708460175, 0.43525716535077663, 0.4522319930692902, 0.4675158574755187, 0.48568091310880845, 0.5018682857698877, 0.5169296011081315, 0.5351885232958011, 0.5521903163171373, 0.5670867678563809, 0.5856327510336996, 0.601864496973576, 0.6169968095637159, 0.6352198917957139, 0.6522500154460431, 0.6674888239067513, 0.6856938154960517, 0.7018491028575227, 0.7169175861927215, 0.7351160924517899, 0.7523045945854392, 0.7670880649238825, 0.7848428383731516, 0.8017504235103843, 0.8170578398930957, 0.8355161005092668, 0.8515744493197417, 0.8670979294402059, 0.8865440075460356, 0.9017258134044823, 0.916922979253286, 0.9352907866414171, 0.9515785111798323, 0.967255249786831, 0.9862613497462007, 1.0023930851457408, 1.0168116705826833, 1.035263787205622, 1.0522365669312421, 1.0675361326502752, 1.0857158655999228, 1.1017329131354927, 1.1170232628646772, 1.135126878572919, 1.1530809904579655, 1.1670667657454032, 1.1848802484673797, 1.2019202707742807, 1.2171283592761029, 1.2354569133749465, 1.251479080900026, 1.2672336434116005, 1.2857786025924725, 1.3017775594780687, 1.3169771146567655, 1.335172207582218, 1.3522176912229043, 1.3672858332211035, 1.3848265909327893]
15	冰块	False	inanimate	animate	left	1.044	[0.0, 0.0, 0.0, 0.0, 0.0, 0.0, 0.0, 0.0, 0.0, 0.0, 0.0, 0.0, 0.0, 0.0, 0.0, 0.0, 0.0, 0.0, 0.0, 0.0, 0.0, 0.0, 0.0, 0.0, -4.0, -47.0, -72.0, -87.0, -129.0, -168.0, -222.0, -294.0, -375.0, -435.0, -479.0, -488.0, -500.0, -515.0, -524.0, -527.0, -533.0, -539.0, -544.0, -552.0, -562.0, -578.0, -597.0, -617.0, -643.0, -696.0, -733.0, -752.0, -820.0, -844.0, -856.0, -865.0, -870.0, -872.0, -873.0, -873.0, -873.0, -873.0, -873.0, -873.0]	[-490.0, -490.0, -490.0, -490.0, -490.0, -490.0, -490.0, -490.0, -490.0, -490.0, -490.0, -490.0, -490.0, -490.0, -490.0, -490.0, -490.0, -490.0, -490.0, -490.0, -490.0, -490.0, -490.0, -490.0, -490.0, -443.0, -420.0, -409.0, -367.0, -321.0, -264.0, -203.0, -132.0, -76.0, -28.0, -16.0, 0.0, 28.0, 47.0, 55.0, 85.0, 99.0, 112.0, 126.0, 145.0, 165.0, 186.0, 208.0, 236.0, 283.0, 312.0, 325.0, 370.0, 386.0, 397.0, 404.0, 411.0, 413.0, 414.0, 414.0, 414.0, 414.0, 414.0, 414.0]	[0.008825162789435126, 0.013274096141685732, 0.017768768106179778, 0.03424354308663169, 0.05108490963903023, 0.06627797948749503, 0.08419010741636157, 0.10108506323740585, 0.11545210740587208, 0.13424658095027553, 0.15104596354649402, 0.1681361617957009, 0.18432797178684268, 0.20179739091690863, 0.21591662738501327, 0.23536236415384337, 0.25178184320247965, 0.26615400736773154, 0.2839309674600372, 0.30090374718565727, 0.31620809157175245, 0.3341133928479394, 0.35058099983871216, 0.3660362133741728, 0.3844296207316802, 0.40368933105492033, 0.4155769328572205, 0.43394951890513767, 0.4518548201813246, 0.4690928155905567, 0.48387730992544675, 0.5008367776681553, 0.5161506793738226, 0.5344085775577696, 0.5504362064093584, 0.565910875920963, 0.584208368731197, 0.6005459278821945, 0.615579936587892, 0.6340310292071081, 0.6509775262966286, 0.6662091667676577, 0.6843073211493902, 0.7005544270723476, 0.7155498651554808, 0.7340262164143496, 0.7507173964768299, 0.765865751709498, 0.784060503305227, 0.8006909261093824, 0.8157290308081429, 0.8338203585299198, 0.8522021605676855, 0.8659022401989205, 0.8841444370773388, 0.9006458360308898, 0.918457953412144, 0.9340896360736224, 0.9517201643466251, 0.9659455553482985, 0.9839293631957844, 1.0009547081936034, 1.0157118958959472, 1.0336049091856694]
16	铅笔	False	inanimate	animate	left	1.533	[0.0, 1.0, 1.0, 2.0, 3.0, 3.0, 3.0, 3.0, 3.0, 3.0, 3.0, 3.0, 3.0, 3.0, 3.0, 4.0, 4.0, 4.0, 4.0, 4.0, 4.0, 4.0, 3.0, 0.0, -1.0, -2.0, -5.0, -6.0, -7.0, -7.0, -10.0, -14.0, -18.0, -24.0, -31.0, -36.0, -41.0, -45.0, -54.0, -56.0, -64.0, -69.0, -74.0, -78.0, -80.0, -83.0, -89.0, -91.0, -103.0, -111.0, -112.0, -117.0, -124.0, -129.0, -134.0, -135.0, -138.0, -141.0, -143.0, -143.0, -143.0, -143.0, -141.0, -138.0, -136.0, -134.0, -134.0, -134.0, -136.0, -142.0, -151.0, -178.0, -231.0, -290.0, -352.0, -409.0, -493.0, -548.0, -577.0, -639.0, -665.0, -683.0, -696.0, -706.0, -712.0, -718.0, -729.0, -733.0, -739.0, -739.0, -739.0, -739.0, -739.0]	[-490.0, -490.0, -490.0, -490.0, -490.0, -490.0, -490.0, -490.0, -490.0, -490.0, -490.0, -490.0, -490.0, -490.0, -490.0, -490.0, -489.0, -488.0, -486.0, -482.0, -479.0, -474.0, -461.0, -448.0, -441.0, -430.0, -416.0, -405.0, -396.0, -391.0, -384.0, -376.0, -365.0, -351.0, -337.0, -312.0, -285.0, -260.0, -228.0, -220.0, -190.0, -164.0, -140.0, -116.0, -92.0, -69.0, -28.0, -13.0, 23.0, 70.0, 81.0, 96.0, 116.0, 127.0, 138.0, 147.0, 156.0, 167.0, 180.0, 188.0, 194.0, 212.0, 221.0, 231.0, 243.0, 247.0, 251.0, 256.0, 260.0, 267.0, 274.0, 286.0, 303.0, 320.0, 335.0, 343.0, 356.0, 367.0, 372.0, 381.0, 385.0, 390.0, 394.0, 398.0, 398.0, 399.0, 401.0, 401.0, 403.0, 403.0, 403.0, 403.0, 403.0]	[0.015170883205428254, 0.01906241989490809, 0.028508467272331472, 0.04696058389527025, 0.06374289984523784, 0.07912302014301531, 0.09676754305837676, 0.11341844583512284, 0.1296986610541353, 0.14676052866707323, 0.1638537989128963, 0.17913732198940124, 0.19688287945609773, 0.2137256113346666, 0.22884529460861813, 0.24713459542545024, 0.26343938661011634, 0.27855190188711276, 0.2975562951833126, 0.31288350887189154, 0.32911900948238326, 0.34799813359131804, 0.3635427763510961, 0.37858804904681165, 0.39703504567296477, 0.41395082279632334, 0.43117960221570684, 0.4480178967642132, 0.4636396807691199, 0.4788812198967207, 0.4970984994652099, 0.5145720145883388, 0.5321694335652865, 0.5474713886214886, 0.5645226749184076, 0.578929996372608, 0.5969107322234777, 0.6170630281485501, 0.6289168379880721, 0.646670928777894, 0.6636525831563631, 0.6788883196204551, 0.6974868680699728, 0.7133421237958828, 0.7288444412770332, 0.7479048131717718, 0.7636190983976121, 0.778573576528288, 0.7968447867024224, 0.8134806708258111, 0.829011660272954, 0.8470278947497718, 0.863825912012544, 0.8784537345418357, 0.8970355576748261, 0.913628433852864, 0.9287450451229233, 0.9470292259502457, 0.9633988703935756, 0.9785953535683802, 0.9968993317015702, 1.0134563679239363, 1.0292495010580751, 1.0473251274597715, 1.0634865588217508, 1.0814314547169488, 1.0970774733577855, 1.1134972937434213, 1.1290491044928785, 1.147357519956131, 1.1635179273143876, 1.1814392712403787, 1.1970081486433628, 1.213738240650855, 1.2289070758633898, 1.246749913218082, 1.2637209862732561, 1.2785515605573892, 1.2965695016973768, 1.3132934497189126, 1.328550690159318, 1.3481350080910488, 1.363664973541745, 1.3816136241002823, 1.3966268114963896, 1.4145720487213111, 1.4288411303423345, 1.4470324686117237, 1.463979989697691, 1.4814166408687015, 1.4973469898322946, 1.5158977516766754, 1.5284615339987795]
17	雪花	False	inanimate	animate	left	1.185	[0.0, 0.0, 0.0, 0.0, 0.0, 0.0, 0.0, 0.0, 0.0, 0.0, 1.0, 1.0, 1.0, 1.0, 1.0, 1.0, 1.0, 1.0, 1.0, 3.0, 6.0, 9.0, 14.0, 17.0, 22.0, 28.0, 30.0, 30.0, 29.0, 29.0, 29.0, 29.0, 27.0, 23.0, 17.0, 10.0, 10.0, 10.0, 29.0, 37.0, 52.0, 55.0, 61.0, 71.0, 73.0, 76.0, 76.0, 76.0, 76.0, 70.0, 47.0, -2.0, -78.0, -198.0, -249.0, -365.0, -540.0, -597.0, -698.0, -804.0, -829.0, -863.0, -876.0, -878.0, -881.0, -881.0, -881.0, -881.0, -881.0, -881.0, -881.0]	[-490.0, -490.0, -490.0, -490.0, -490.0, -490.0, -490.0, -490.0, -490.0, -490.0, -489.0, -489.0, -489.0, -489.0, -489.0, -489.0, -489.0, -482.0, -473.0, -463.0, -448.0, -431.0, -412.0, -389.0, -355.0, -313.0, -279.0, -245.0, -221.0, -205.0, -190.0, -168.0, -145.0, -121.0, -96.0, -53.0, -7.0, 32.0, 107.0, 135.0, 198.0, 220.0, 240.0, 266.0, 270.0, 278.0, 280.0, 282.0, 285.0, 293.0, 304.0, 325.0, 348.0, 376.0, 383.0, 397.0, 413.0, 413.0, 415.0, 417.0, 418.0, 424.0, 427.0, 428.0, 428.0, 428.0, 428.0, 428.0, 428.0, 428.0, 428.0]	[0.005129551209392957, 0.010552648731390946, 0.022173328179633245, 0.043497761369508225, 0.056774246841087006, 0.07209770586632658, 0.09002553511527367, 0.10708023474580841, 0.1216582226625178, 0.14028612573747523, 0.1572544681330328, 0.17218027430499205, 0.19017125014215708, 0.2070563073066296, 0.22193227886600653, 0.24030486492119962, 0.2570888875343371, 0.2721478135426878, 0.29188948596129194, 0.3070852864693734, 0.3218404261788237, 0.34048471323330887, 0.3581193374993745, 0.37217440337553853, 0.39127505255601136, 0.40705214304762194, 0.42421914120495785, 0.44024062606331427, 0.4573690535980859, 0.47220031054894207, 0.49017626774002565, 0.507318689924432, 0.5219328591338126, 0.5399668429236044, 0.5566931802750332, 0.5721456631436013, 0.5899748471783823, 0.606632576615084, 0.6218454437694163, 0.6398490489300457, 0.6583131122024497, 0.6721476770107984, 0.6936369740069495, 0.7073643602707307, 0.7220621560481959, 0.7398619854502613, 0.7569747116722283, 0.7726804635749431, 0.7906154608135694, 0.8067396868864307, 0.8222850123129319, 0.8413477735375636, 0.8567326724951272, 0.8730169837072026, 0.8900522273543174, 0.9078315767765162, 0.9220870050849044, 0.9399861623678589, 0.9568896515047527, 0.9723114144144347, 0.9905392753062188, 1.006502733565867, 1.0221828854992054, 1.0410681536086486, 1.0567018842630205, 1.0718686714753858, 1.0902788041494205, 1.1078400418336969, 1.1221098061214434, 1.1399403554896708, 1.1568912899019779]
18	钢琴	False	inanimate	animate	left	1.561	[0.0, 0.0, 0.0, 0.0, 0.0, 0.0, 0.0, 0.0, 0.0, 0.0, 0.0, 0.0, 0.0, 0.0, 0.0, 0.0, 1.0, 1.0, 1.0, -6.0, -19.0, -36.0, -51.0, -58.0, -67.0, -73.0, -83.0, -89.0, -98.0, -107.0, -121.0, -150.0, -163.0, -176.0, -189.0, -208.0, -228.0, -251.0, -269.0, -281.0, -283.0, -283.0, -283.0, -285.0, -289.0, -298.0, -313.0, -336.0, -368.0, -406.0, -441.0, -466.0, -495.0, -539.0, -574.0, -615.0, -639.0, -650.0, -679.0, -697.0, -712.0, -723.0, -732.0, -742.0, -755.0, -759.0, -765.0, -777.0, -782.0, -786.0, -789.0, -789.0, -790.0, -790.0, -790.0, -790.0, -792.0, -793.0, -793.0, -793.0, -793.0, -793.0, -793.0, -793.0, -793.0, -793.0, -793.0, -793.0, -793.0, -793.0, -793.0, -793.0, -793.0, -793.0]	[-490.0, -490.0, -490.0, -490.0, -490.0, -490.0, -490.0, -490.0, -490.0, -490.0, -490.0, -490.0, -490.0, -486.0, -479.0, -472.0, -454.0, -436.0, -426.0, -385.0, -346.0, -308.0, -273.0, -251.0, -222.0, -195.0, -166.0, -142.0, -121.0, -104.0, -87.0, -61.0, -50.0, -36.0, -20.0, -1.0, 16.0, 32.0, 45.0, 52.0, 53.0, 53.0, 54.0, 62.0, 68.0, 82.0, 98.0, 118.0, 137.0, 153.0, 170.0, 181.0, 194.0, 211.0, 224.0, 242.0, 252.0, 257.0, 270.0, 281.0, 289.0, 295.0, 304.0, 311.0, 323.0, 327.0, 336.0, 351.0, 359.0, 364.0, 369.0, 370.0, 371.0, 371.0, 371.0, 372.0, 377.0, 378.0, 379.0, 379.0, 379.0, 379.0, 379.0, 379.0, 379.0, 379.0, 379.0, 379.0, 379.0, 379.0, 379.0, 379.0, 379.0, 379.0]	[0.000552959339984227, 0.005363705597119406, 0.016333121820935048, 0.03414114321640227, 0.05116341621032916, 0.06568747352866922, 0.08434916856640484, 0.10105127128190361, 0.11618119453487452, 0.13477428165788297, 0.15097530763887335, 0.16638068656175165, 0.1842859878379386, 0.2009952585431165, 0.2163026749258279, 0.23478243951831246, 0.2510196467846981, 0.266149570044945, 0.28411528724245727, 0.30139526660059346, 0.3161077396944165, 0.3340840382152237, 0.3507345996549702, 0.36591640552069293, 0.3841568957286654, 0.4013010245835176, 0.4164876091017504, 0.43405772144615185, 0.45089089600514853, 0.4663198269045097, 0.48454017846961506, 0.5007613430934725, 0.5162278206116753, 0.5356298667684314, 0.5509632244502427, 0.5661600489620469, 0.5845264910240076, 0.6013142683004844, 0.6163076583834481, 0.6340276158807683, 0.6508734197559534, 0.6662839186828933, 0.6845090489077847, 0.7006878882457386, 0.7161615337608964, 0.7345583544520196, 0.7512276892011869, 0.7658623383831582, 0.7843287909927312, 0.8013923652688391, 0.8163202194409678, 0.8339766890130704, 0.8510013513368904, 0.8662329918079195, 0.8845021539818845, 0.9006540280170157, 0.9163089213179774, 0.9347176886585657, 0.9508115360949887, 0.9660319125832757, 0.9843471546992077, 1.0006512632244267, 1.0162566632498056, 1.0347562251481577, 1.0507678113499423, 1.0662527208551182, 1.0843710138724418, 1.1013079536423902, 1.116225226483948, 1.1339619092977955, 1.1509637023191317, 1.166208996102796, 1.1846467767463764, 1.2006409549721866, 1.2161518057691865, 1.2347022262765677, 1.2507073271553963, 1.2663745084428228, 1.2842743483852246, 1.300705091423879, 1.3163463314049295, 1.3347308641095879, 1.3508271008831798, 1.366065909343888, 1.3842787515823147, 1.4013576858487795, 1.4163613159253146, 1.4339618068916025, 1.4510284531716025, 1.4657852995442227, 1.4840053097796044, 1.50103509210021, 1.51602984751662, 1.5347383051703218]
19	小鸡	True	animate	inanimate	left	1.097	[0.0, 0.0, 0.0, 0.0, 0.0, 0.0, 0.0, 0.0, 0.0, 0.0, 0.0, 0.0, 0.0, -1.0, -2.0, -2.0, -2.0, -3.0, -6.0, -9.0, -10.0, -14.0, -18.0, -24.0, -35.0, -62.0, -82.0, -115.0, -153.0, -199.0, -250.0, -322.0, -388.0, -435.0, -471.0, -490.0, -503.0, -516.0, -528.0, -531.0, -530.0, -524.0, -514.0, -507.0, -506.0, -506.0, -506.0, -509.0, -517.0, -530.0, -566.0, -583.0, -615.0, -633.0, -640.0, -662.0, -681.0, -695.0, -704.0, -706.0, -708.0, -708.0, -708.0, -708.0, -708.0, -708.0]	[-490.0, -490.0, -490.0, -490.0, -490.0, -490.0, -490.0, -490.0, -490.0, -490.0, -490.0, -490.0, -490.0, -490.0, -490.0, -489.0, -487.0, -482.0, -474.0, -468.0, -465.0, -461.0, -458.0, -454.0, -449.0, -427.0, -406.0, -368.0, -327.0, -286.0, -242.0, -185.0, -134.0, -100.0, -69.0, -41.0, -19.0, 6.0, 45.0, 52.0, 70.0, 93.0, 118.0, 142.0, 168.0, 190.0, 207.0, 222.0, 237.0, 256.0, 284.0, 296.0, 320.0, 336.0, 341.0, 361.0, 376.0, 389.0, 397.0, 399.0, 400.0, 400.0, 400.0, 400.0, 400.0, 400.0]	[0.00032153561915038154, 0.004931236777338199, 0.01615767669863999, 0.03401450869569089, 0.05029506525170291, 0.06547550577670336, 0.08372896663786378, 0.10052152257412672, 0.11555484862037702, 0.1339765866068774, 0.15108351017261157, 0.1656997273748857, 0.183843279039138, 0.20045868318266002, 0.21549508122552652, 0.2336563821954769, 0.25059127395797987, 0.26571061589493183, 0.28630971661914373, 0.3010952349577565, 0.3160650730715133, 0.3341523048002273, 0.35200504080421524, 0.36581912563269725, 0.3854198275512317, 0.40174236804887187, 0.416045582962397, 0.4336931778816506, 0.4506751735971193, 0.4658433261429309, 0.484844306105515, 0.501750867239025, 0.516062274145952, 0.5338105622722651, 0.5507318007294089, 0.5657763907511253, 0.5846070455882, 0.6024328162966412, 0.6171753266826272, 0.634158005057543, 0.650470988235611, 0.6658941164787393, 0.6841769319726154, 0.7002803367358865, 0.7156898116591037, 0.7343214693974005, 0.7514550169289578, 0.7659626902604941, 0.7837471596867545, 0.8002222760042059, 0.8156228762672981, 0.8340538302509231, 0.8503548667795258, 0.8654281287672347, 0.8839611412986415, 0.9006093134084949, 0.9157068100394099, 0.9345234702195739, 0.9513723460913752, 0.9654574492669781, 0.9839515498388209, 1.0019988456115243, 1.0157723118245485, 1.033798444957938, 1.050772931346728, 1.065622961599729]
20	袜子	False	animate	inanimate	right	1.314	[0.0, 0.0, 0.0, 0.0, 0.0, 0.0, 0.0, 0.0, 0.0, 0.0, 0.0, 0.0, 0.0, 0.0, 0.0, 0.0, 0.0, 0.0, 0.0, -8.0, -24.0, -28.0, -49.0, -62.0, -80.0, -99.0, -120.0, -135.0, -144.0, -149.0, -157.0, -175.0, -183.0, -197.0, -221.0, -241.0, -262.0, -284.0, -302.0, -321.0, -343.0, -351.0, -351.0, -346.0, -312.0, -297.0, -227.0, -159.0, -77.0, 8.0, 86.0, 153.0, 218.0, 284.0, 347.0, 388.0, 415.0, 419.0, 432.0, 441.0, 450.0, 462.0, 471.0, 478.0, 487.0, 510.0, 548.0, 624.0, 648.0, 678.0, 719.0, 744.0, 766.0, 777.0, 779.0, 779.0, 779.0, 779.0, 779.0, 779.0]	[-490.0, -490.0, -490.0, -490.0, -490.0, -490.0, -490.0, -490.0, -490.0, -490.0, -490.0, -490.0, -487.0, -483.0, -475.0, -463.0, -451.0, -433.0, -412.0, -370.0, -321.0, -300.0, -238.0, -204.0, -167.0, -122.0, -76.0, -38.0, -20.0, -1.0, 23.0, 65.0, 78.0, 99.0, 133.0, 159.0, 179.0, 200.0, 217.0, 233.0, 248.0, 255.0, 257.0, 266.0, 277.0, 278.0, 279.0, 279.0, 283.0, 296.0, 307.0, 320.0, 330.0, 332.0, 332.0, 332.0, 334.0, 335.0, 336.0, 340.0, 345.0, 350.0, 354.0, 359.0, 366.0, 376.0, 387.0, 407.0, 415.0, 422.0, 433.0, 441.0, 447.0, 451.0, 451.0, 451.0, 451.0, 451.0, 451.0, 451.0]	[0.007510348368668929, 0.012038129621942062, 0.017796074746001977, 0.031770244720974006, 0.04836312089901185, 0.06343262822338147, 0.08146592934645014, 0.09845611704804469, 0.11300782233593054, 0.13151250422379235, 0.14858939049008768, 0.1634895966926706, 0.18149934583925642, 0.1983523177113966, 0.2157667822393705, 0.2317118085193215, 0.24937885941471905, 0.26343733861722285, 0.28133513057400705, 0.29827207033667946, 0.3132630710970261, 0.33157012122683227, 0.3487971939757699, 0.3634714377767523, 0.38128218983183615, 0.397989071207121, 0.4131401571066817, 0.4312366048252443, 0.44787385428207926, 0.46342941969487583, 0.4837554540790734, 0.49820066348911496, 0.5132148748889449, 0.5311488481311244, 0.5484318994786008, 0.5632723724193056, 0.5819415767837199, 0.5986327568389243, 0.613291299327102, 0.6324711377455969, 0.6480024685297394, 0.66308733583719, 0.6815036125044571, 0.6982149312025285, 0.7139517444084049, 0.7312153397797374, 0.7478785305429483, 0.7636388957107556, 0.7842704230642994, 0.7979063321108697, 0.8132294497991097, 0.8319894487212878, 0.8489233164946199, 0.863596194962156, 0.8816236934289918, 0.898629582443391, 0.9136891911184648, 0.9311934262077557, 0.9478801689401735, 0.9634951262851246, 0.9811007372481981, 0.9982383807800943, 1.013594949101389, 1.031533359666355, 1.0478630681609502, 1.0635077214683406, 1.0828606156792375, 1.098190560034709, 1.1132436833868269, 1.1316145627715741, 1.1486313744389918, 1.1632933302607853, 1.1821181824343512, 1.1980103021196555, 1.2131791373321903, 1.2318292270501843, 1.248258946085116, 1.2638913114133175, 1.281113605502469, 1.2988120590234757]
21	海豚	True	inanimate	animate	right	1.789	[0.0, 0.0, 0.0, 0.0, 0.0, 0.0, 0.0, 0.0, 0.0, 0.0, 0.0, 1.0, 1.0, 1.0, 1.0, 1.0, 1.0, 0.0, -7.0, -14.0, -22.0, -24.0, -41.0, -54.0, -66.0, -74.0, -77.0, -79.0, -84.0, -89.0, -94.0, -98.0, -102.0, -102.0, -105.0, -113.0, -132.0, -173.0, -226.0, -277.0, -311.0, -334.0, -355.0, -398.0, -421.0, -443.0, -458.0, -469.0, -482.0, -495.0, -509.0, -519.0, -534.0, -551.0, -553.0, -555.0, -555.0, -559.0, -565.0, -574.0, -582.0, -591.0, -599.0, -606.0, -612.0, -621.0, -621.0, -621.0, -621.0, -621.0, -622.0, -611.0, -592.0, -560.0, -503.0, -411.0, -297.0, -84.0, -11.0, 161.0, 246.0, 288.0, 393.0, 442.0, 480.0, 509.0, 536.0, 561.0, 577.0, 590.0, 605.0, 658.0, 702.0, 714.0, 741.0, 747.0, 748.0, 748.0, 749.0, 754.0, 756.0, 756.0, 756.0, 756.0, 756.0, 756.0, 756.0, 756.0]	[-490.0, -490.0, -490.0, -490.0, -490.0, -490.0, -490.0, -490.0, -490.0, -490.0, -490.0, -490.0, -486.0, -479.0, -468.0, -452.0, -421.0, -386.0, -339.0, -288.0, -231.0, -207.0, -148.0, -116.0, -86.0, -64.0, -48.0, -30.0, -12.0, 6.0, 21.0, 33.0, 40.0, 40.0, 48.0, 56.0, 75.0, 111.0, 151.0, 185.0, 204.0, 218.0, 233.0, 267.0, 288.0, 310.0, 330.0, 348.0, 363.0, 374.0, 383.0, 390.0, 396.0, 403.0, 404.0, 405.0, 405.0, 406.0, 408.0, 410.0, 412.0, 413.0, 414.0, 414.0, 414.0, 416.0, 416.0, 416.0, 416.0, 416.0, 416.0, 421.0, 426.0, 433.0, 441.0, 452.0, 470.0, 508.0, 523.0, 540.0, 540.0, 540.0, 540.0, 540.0, 540.0, 540.0, 539.0, 536.0, 536.0, 534.0, 531.0, 517.0, 503.0, 501.0, 497.0, 497.0, 496.0, 496.0, 496.0, 495.0, 493.0, 493.0, 493.0, 493.0, 493.0, 493.0, 493.0, 493.0]	[0.007173111436713953, 0.01135887710552197, 0.015005678083980456, 0.030996442976174876, 0.047194396960549057, 0.0635213747882517, 0.08064434099651407, 0.10049899460864253, 0.11212308739050059, 0.1309056142854388, 0.14841394536779262, 0.16296633331512567, 0.18051869634655304, 0.19761469725926872, 0.21259067936625797, 0.2326173647743417, 0.247821357275825, 0.26520680850808276, 0.2810374882610631, 0.2983983635203913, 0.3122400963184191, 0.33080690080532804, 0.34853675695921993, 0.36276863328384934, 0.38046879347530194, 0.397555578398169, 0.41240492599172285, 0.43048908571654465, 0.44703758861578535, 0.46259998068853747, 0.48184160036907997, 0.5005954552980256, 0.5121942894402309, 0.5305846248011221, 0.5469440292581567, 0.5625432852903032, 0.5810151992191095, 0.5972868811149965, 0.6122318019261002, 0.630609507970803, 0.6472494880945305, 0.6623145580961136, 0.6804939497087616, 0.697308009621338, 0.7123505516501609, 0.7304725993380998, 0.7470313422236359, 0.7625865663067088, 0.7827972301602131, 0.7974585033080075, 0.8125263039764832, 0.8305657490927842, 0.8490581430014572, 0.8625510335477884, 0.8818919811092201, 0.897422970556363, 0.91507432013168, 0.9307261414360255, 0.9483781736780657, 0.9625554367448785, 0.9808464442248805, 0.9976069148688111, 1.0133679627033416, 1.0305643154933932, 1.0471558263379848, 1.0641197314034798, 1.0805921170613146, 1.0972426785010612, 1.1122070552883088, 1.1303226176460157, 1.148903758119559, 1.1622764994754107, 1.1840129215052002, 1.1977925317114568, 1.2125643967301585, 1.231039382662857, 1.2509046175910044, 1.262549190352729, 1.2831882270256756, 1.296909810633224, 1.312599178556411, 1.330982345927623, 1.350525362577173, 1.36210815407685, 1.3802629697238444, 1.397051770996768, 1.4126585363483173, 1.4306443921959726, 1.446904468772118, 1.462345687657944, 1.4820747307530837, 1.4973172938771313, 1.5125834089776617, 1.5318642819402157, 1.5503406331990846, 1.5623384855352924, 1.5806598716444569, 1.597267083809129, 1.612472100307059, 1.6310068195016356, 1.6472641654108884, 1.6624094486469403, 1.6804318271169905, 1.6974404467982822, 1.7129581242625136, 1.7309764067322249, 1.7474791710192221, 1.7622059800924035]
22	香蕉	False	animate	inanimate	right	2.879	[0.0, 0.0, 0.0, 0.0, 0.0, 0.0, 0.0, 0.0, 0.0, 1.0, 3.0, 5.0, 5.0, 6.0, 9.0, 12.0, 14.0, 14.0, 12.0, -7.0, -18.0, -49.0, -67.0, -86.0, -99.0, -108.0, -115.0, -122.0, -132.0, -144.0, -156.0, -163.0, -170.0, -174.0, -182.0, -195.0, -218.0, -253.0, -285.0, -316.0, -348.0, -396.0, -407.0, -430.0, -492.0, -546.0, -587.0, -613.0, -636.0, -665.0, -698.0, -717.0, -730.0, -743.0, -755.0, -769.0, -776.0, -779.0, -789.0, -796.0, -805.0, -809.0, -812.0, -814.0, -815.0, -815.0, -815.0, -815.0, -815.0, -815.0, -815.0, -815.0, -815.0, -815.0, -815.0, -815.0, -815.0, -815.0, -815.0, -815.0, -815.0, -815.0, -815.0, -815.0, -815.0, -815.0, -815.0, -815.0, -815.0, -815.0, -815.0, -815.0, -815.0, -815.0, -815.0, -815.0, -815.0, -815.0, -815.0, -815.0, -815.0, -815.0, -815.0, -815.0, -815.0, -815.0, -815.0, -815.0, -815.0, -815.0, -815.0, -815.0, -815.0, -815.0, -815.0, -815.0, -815.0, -815.0, -815.0, -815.0, -815.0, -815.0, -815.0, -815.0, -815.0, -815.0, -815.0, -815.0, -815.0, -815.0, -815.0, -815.0, -815.0, -815.0, -815.0, -815.0, -815.0, -815.0, -801.0, -785.0, -677.0, -540.0, -370.0, -203.0, -36.0, 140.0, 309.0, 474.0, 614.0, 744.0, 847.0, 949.0, 959.0, 959.0, 959.0, 959.0, 959.0, 959.0, 959.0, 959.0, 959.0, 958.0, 955.0, 952.0, 952.0, 952.0, 952.0, 952.0, 952.0, 952.0, 952.0, 952.0, 952.0]	[-490.0, -490.0, -490.0, -490.0, -490.0, -490.0, -490.0, -490.0, -490.0, -490.0, -488.0, -484.0, -478.0, -467.0, -452.0, -431.0, -407.0, -358.0, -338.0, -260.0, -237.0, -165.0, -120.0, -79.0, -47.0, -22.0, -2.0, 16.0, 32.0, 48.0, 63.0, 70.0, 77.0, 80.0, 85.0, 90.0, 98.0, 108.0, 118.0, 129.0, 144.0, 157.0, 159.0, 167.0, 184.0, 200.0, 211.0, 219.0, 229.0, 241.0, 256.0, 264.0, 272.0, 282.0, 295.0, 313.0, 323.0, 329.0, 349.0, 362.0, 377.0, 387.0, 394.0, 397.0, 400.0, 400.0, 400.0, 400.0, 400.0, 400.0, 400.0, 400.0, 400.0, 400.0, 400.0, 400.0, 400.0, 400.0, 400.0, 400.0, 400.0, 400.0, 400.0, 400.0, 400.0, 400.0, 400.0, 400.0, 400.0, 400.0, 400.0, 400.0, 400.0, 400.0, 400.0, 400.0, 400.0, 400.0, 400.0, 400.0, 400.0, 400.0, 400.0, 400.0, 400.0, 400.0, 400.0, 400.0, 400.0, 400.0, 400.0, 400.0, 400.0, 400.0, 400.0, 400.0, 400.0, 400.0, 400.0, 400.0, 400.0, 400.0, 400.0, 400.0, 400.0, 400.0, 400.0, 400.0, 400.0, 400.0, 400.0, 400.0, 400.0, 400.0, 400.0, 400.0, 400.0, 400.0, 412.0, 418.0, 441.0, 454.0, 456.0, 473.0, 497.0, 526.0, 540.0, 540.0, 540.0, 540.0, 540.0, 540.0, 540.0, 540.0, 540.0, 540.0, 540.0, 540.0, 540.0, 538.0, 525.0, 509.0, 503.0, 495.0, 495.0, 495.0, 495.0, 495.0, 495.0, 495.0, 495.0, 495.0, 495.0]	[0.006979917001444846, 0.015616664015396964, 0.029267250378325116, 0.04784156418463681, 0.064190728655376, 0.07913291879958706, 0.0977229339259793, 0.11395809319947148, 0.12944232003064826, 0.14764970094984164, 0.16447195284854388, 0.17945749228238128, 0.19745085744943935, 0.21394167508697137, 0.2293989366153255, 0.247573890905187, 0.2646565798277152, 0.2793202423126786, 0.29734569277934497, 0.31382217443024274, 0.3298245446421788, 0.34757044344587484, 0.36495691867457936, 0.37883141943166265, 0.3995827546386863, 0.41438841162016615, 0.42973132662154967, 0.4470884472175385, 0.46580509685736615, 0.4795321417914238, 0.4972783819248434, 0.5139818499665125, 0.5295473140431568, 0.5472498635572265, 0.5651285408675903, 0.5793860171688721, 0.5971230413124431, 0.6138152453713701, 0.6294141600665171, 0.6476952688899473, 0.6669484938902315, 0.6788698876480339, 0.6976459292200161, 0.7145173330645775, 0.729446211225877, 0.7470845901552821, 0.7641676204148098, 0.7793545462700422, 0.799856708443258, 0.8144234323772253, 0.8317133103846572, 0.8470094627773506, 0.8642409728636267, 0.8795838878650102, 0.897184378838574, 0.9137915909959702, 0.929324287106283, 0.9478040516987676, 0.9660264512640424, 0.9795118324836949, 0.9977512986952206, 1.0138236421553302, 1.029398322221823, 1.0470008611882804, 1.0641920939888223, 1.0795520756364567, 1.097202401215327, 1.1138853892844054, 1.129410234738316, 1.1477442501709447, 1.1748945537328837, 1.1798220358468825, 1.1972566390177235, 1.2152360095351469, 1.2295228404691443, 1.2471212834425387, 1.2641899777227081, 1.279158109173295, 1.2972815221874043, 1.3137641478315345, 1.329293089278508, 1.3477946991770295, 1.3647306149432552, 1.3789850192479207, 1.3973852532653837, 1.4139975854195654, 1.4293217271115282, 1.4471898230985971, 1.4640895575721515, 1.479180910209834, 1.497193731360312, 1.51378660753835, 1.5293855222334969, 1.5477731269347714, 1.5640130648680497, 1.579218764032703, 1.597451403584273, 1.6140002478132374, 1.6292489549305174, 1.648870478158642, 1.6641307905883878, 1.6800406595866662, 1.6973383882505004, 1.7163953468188993, 1.7292762274300912, 1.7472248779886286, 1.7639931992889615, 1.778994781365327, 1.796993949195894, 1.815348785938113, 1.8295557449673652, 1.8472419105019071, 1.863852535992919, 1.8793415414838819, 1.8985995451439521, 1.9148094457777916, 1.9291078820315306, 1.94732004161051, 1.9643395839448203, 1.9798565787350526, 1.9978878318652278, 2.0139543726691045, 2.028898610813485, 2.0479016387835145, 2.064384947087092, 2.079661984840641, 2.097073036034999, 2.1141837142640725, 2.1295150239457143, 2.1474978077967535, 2.163801574984973, 2.179357481734769, 2.197690473163675, 2.214363221246458, 2.2294088352718973, 2.2472192459972575, 2.264443929416302, 2.281982297798095, 2.297032007816597, 2.3141594113549218, 2.3295668382852455, 2.3472601718167425, 2.363794338729349, 2.379314746853197, 2.3983993533838657, 2.4147171152217197, 2.429450409625133, 2.4472082550782943, 2.464305962646904, 2.4800315118627623, 2.4972452726287884, 2.5141825537284603, 2.529133959869796, 2.547339975448267, 2.5644670376568683, 2.5795344969883445, 2.5972681078055757, 2.61423406087124, 2.629010704549728, 2.647595941009058, 2.6664723344583763, 2.679263785845251, 2.6977824623900233, 2.7140944215716445, 2.729007939749863, 2.7475283229578054, 2.763990468629345, 2.7794504608245916, 2.7971495970123215, 2.8139162116494845, 2.8319911553844577, 2.847580854097032, 2.8653264115637285]
23	衬衫	False	animate	inanimate	right	1.527	[0.0, 0.0, 0.0, 0.0, 0.0, 0.0, 0.0, 0.0, 0.0, 0.0, 0.0, 0.0, 1.0, 2.0, 4.0, 5.0, 6.0, 7.0, 7.0, 8.0, 9.0, 9.0, 10.0, 10.0, 10.0, 10.0, 10.0, 10.0, 10.0, 10.0, 10.0, 10.0, 10.0, 8.0, -2.0, -31.0, -63.0, -92.0, -121.0, -179.0, -198.0, -245.0, -314.0, -376.0, -384.0, -392.0, -392.0, -379.0, -352.0, -319.0, -289.0, -253.0, -207.0, -149.0, -77.0, 48.0, 131.0, 204.0, 258.0, 290.0, 309.0, 329.0, 351.0, 354.0, 357.0, 357.0, 357.0, 357.0, 357.0, 357.0, 357.0, 361.0, 384.0, 417.0, 460.0, 510.0, 574.0, 662.0, 681.0, 713.0, 720.0, 724.0, 726.0, 727.0, 727.0, 727.0, 727.0, 727.0, 730.0, 730.0, 730.0, 730.0, 730.0]	[-490.0, -490.0, -490.0, -490.0, -490.0, -490.0, -490.0, -490.0, -490.0, -490.0, -487.0, -482.0, -473.0, -468.0, -464.0, -460.0, -457.0, -453.0, -453.0, -449.0, -447.0, -447.0, -446.0, -445.0, -445.0, -445.0, -445.0, -445.0, -445.0, -445.0, -445.0, -444.0, -441.0, -438.0, -430.0, -417.0, -398.0, -382.0, -366.0, -326.0, -312.0, -278.0, -239.0, -224.0, -222.0, -212.0, -194.0, -163.0, -118.0, -76.0, -41.0, -10.0, 31.0, 79.0, 131.0, 200.0, 238.0, 269.0, 292.0, 305.0, 313.0, 318.0, 324.0, 325.0, 327.0, 327.0, 327.0, 327.0, 327.0, 327.0, 327.0, 327.0, 330.0, 334.0, 346.0, 361.0, 378.0, 405.0, 410.0, 421.0, 424.0, 425.0, 426.0, 426.0, 426.0, 426.0, 426.0, 426.0, 427.0, 427.0, 427.0, 427.0, 427.0]	[0.009043274527357426, 0.01351132252602838, 0.017640426922298502, 0.03770192828960717, 0.05106750165577978, 0.06569873751141131, 0.08386413447442465, 0.10046349597541848, 0.1178264192349161, 0.13387964805588126, 0.15059540408401517, 0.16589394580660155, 0.18398186020203866, 0.20036208596866345, 0.21608183252101298, 0.23377994471229613, 0.2502571090226411, 0.2654218482421129, 0.28363503181753913, 0.30060610487271333, 0.3153653405752266, 0.33356691883091116, 0.3516736065284931, 0.36574027772439877, 0.3865581728532561, 0.40088016107620206, 0.4169043766014511, 0.43419357194943586, 0.4507727948075626, 0.4658037315166439, 0.4871646873289137, 0.5001780051170499, 0.5157677038296242, 0.5341368765512016, 0.550578883572598, 0.5654156018499634, 0.584046576921537, 0.6007872502596001, 0.6179900883726077, 0.6336111897107912, 0.6505955747561529, 0.6660323563119164, 0.6842783078463981, 0.6991894367019995, 0.7158174701689859, 0.7338828565843869, 0.7520820455101784, 0.7662999271924491, 0.784290220362891, 0.800296686575166, 0.8157549721072428, 0.8337261506385403, 0.8503681787551614, 0.865792672331736, 0.8840969917946495, 0.9001799165853299, 0.9157266073452774, 0.9337971137574641, 0.9503589286323404, 0.9657731822226197, 0.9838628032739507, 1.0001426771632396, 1.0155279174505267, 1.0341261245630449, 1.0508377845981158, 1.065381980552047, 1.0837921132260817, 1.101461894781096, 1.1180629629525356, 1.1335277338075684, 1.1504554575876682, 1.1652484852456837, 1.1839275882666698, 1.200901050651737, 1.2157005636399845, 1.2340229737528716, 1.250515156716574, 1.2653993202693528, 1.2839842153989593, 1.3018110101038474, 1.315719985483156, 1.334094278201519, 1.3503645947639598, 1.3681398481930955, 1.3838326294426224, 1.4012443633109797, 1.4157250713469693, 1.433637881942559, 1.4504987044711015, 1.4653890120098367, 1.4834854597283993, 1.5021847013849765, 1.5154895174928242]
24	沙发	False	animate	inanimate	right	1.968	[0.0, 0.0, 0.0, 0.0, 0.0, 0.0, 0.0, 0.0, 0.0, 0.0, 0.0, 0.0, 0.0, 0.0, 0.0, 0.0, 0.0, 0.0, 1.0, 1.0, 3.0, 3.0, 3.0, 3.0, 5.0, 8.0, 11.0, 11.0, 16.0, 17.0, 22.0, 26.0, 31.0, 42.0, 57.0, 74.0, 104.0, 162.0, 183.0, 191.0, 193.0, 194.0, 194.0, 194.0, 194.0, 194.0, 194.0, 194.0, 194.0, 194.0, 194.0, 194.0, 194.0, 190.0, 189.0, 186.0, 179.0, 171.0, 147.0, 121.0, 99.0, 73.0, 54.0, 41.0, -21.0, -49.0, -58.0, -59.0, -60.0, -60.0, -57.0, -49.0, -17.0, 93.0, 182.0, 222.0, 351.0, 444.0, 506.0, 556.0, 589.0, 590.0, 590.0, 590.0, 592.0, 593.0, 593.0, 593.0, 593.0, 593.0, 593.0, 593.0, 593.0, 593.0, 593.0, 593.0, 593.0, 593.0, 593.0, 593.0, 593.0, 593.0, 593.0, 593.0, 593.0, 593.0, 593.0, 593.0, 593.0, 606.0, 619.0, 633.0, 656.0, 682.0, 705.0, 716.0, 719.0, 719.0, 719.0]	[-490.0, -490.0, -490.0, -490.0, -490.0, -490.0, -490.0, -490.0, -490.0, -490.0, -490.0, -490.0, -490.0, -490.0, -490.0, -490.0, -490.0, -487.0, -482.0, -479.0, -473.0, -471.0, -467.0, -463.0, -460.0, -450.0, -443.0, -440.0, -430.0, -422.0, -411.0, -393.0, -357.0, -276.0, -178.0, -51.0, 99.0, 294.0, 374.0, 399.0, 411.0, 416.0, 420.0, 423.0, 423.0, 423.0, 423.0, 423.0, 423.0, 423.0, 423.0, 423.0, 423.0, 421.0, 417.0, 411.0, 402.0, 398.0, 391.0, 385.0, 377.0, 372.0, 372.0, 372.0, 372.0, 369.0, 367.0, 367.0, 366.0, 366.0, 366.0, 368.0, 373.0, 391.0, 409.0, 419.0, 441.0, 454.0, 454.0, 456.0, 456.0, 456.0, 456.0, 456.0, 456.0, 456.0, 456.0, 456.0, 456.0, 456.0, 456.0, 456.0, 456.0, 456.0, 456.0, 456.0, 456.0, 456.0, 456.0, 456.0, 456.0, 456.0, 456.0, 456.0, 456.0, 456.0, 456.0, 456.0, 456.0, 459.0, 462.0, 465.0, 465.0, 466.0, 469.0, 471.0, 471.0, 471.0, 471.0]	[0.014880408889439423, 0.019498984707752243, 0.027687220259394962, 0.04621443012729287, 0.06339644693071023, 0.07801266413298436, 0.0961374424805399, 0.11282316121651093, 0.12778549001086503, 0.14591026835114462, 0.16310559714474948, 0.1780802139255684, 0.19644631465052953, 0.2133300064742798, 0.22804589289444266, 0.2471369847553433, 0.2629809764912352, 0.2777968734590104, 0.2961383982183179, 0.3125773332430981, 0.3280502960915328, 0.34602659461234, 0.3629119931065361, 0.377886609887355, 0.39632746252027573, 0.4127295335929375, 0.4280840539140627, 0.4460357764692162, 0.4630157241845154, 0.4778346931489068, 0.4964131029555574, 0.512759536759404, 0.5280864091182593, 0.5459753264076426, 0.56289519953134, 0.5778377310125506, 0.596222263717209, 0.612592590827262, 0.6280372230394278, 0.645919655013131, 0.6628893627348589, 0.6777137930257595, 0.6961242670295178, 0.7124389568780316, 0.7281051141617354, 0.7456963891454507, 0.762838811329857, 0.7780629424742074, 0.7968454693691456, 0.8126184638604173, 0.8278842376239481, 0.8457311709717032, 0.8629520997274085, 0.8780751963276998, 0.8959644549540826, 0.9125081791935372, 0.9279889926983742, 0.9459659738859045, 0.9627076712204143, 0.9776157280793996, 0.9957145651205792, 1.0129023845875054, 1.0275718497287016, 1.0463441366373445, 1.0632285111350939, 1.0780925360377296, 1.0966316925623687, 1.1128067772369832, 1.1276970847829944, 1.1484494439864648, 1.1630960398251773, 1.1781211738707498, 1.1965927464698325, 1.2128490683826385, 1.227692954649683, 1.247696770755283, 1.2639872259605909, 1.2780982704352937, 1.2966323069558712, 1.3156442095787497, 1.3276604938873788, 1.346679223170213, 1.363143416834646, 1.378197905512934, 1.3965513769217068, 1.4150471841567196, 1.4276969823768013, 1.4461869869555812, 1.463132460048655, 1.4806049511753372, 1.4965718227613252, 1.5149007181971683, 1.5281314650637796, 1.548495728733542, 1.563158025885059, 1.5803410666849231, 1.5965356073429575, 1.6145340925068012, 1.6280665776721435, 1.6461579053939204, 1.6631153251364594, 1.6788473596752738, 1.696416789352952, 1.713240065248101, 1.7280556208861526, 1.7489554359199246, 1.7625415103539126, 1.7780885424435837, 1.7961788461689139, 1.812630751846882, 1.8280910853791283, 1.8459639600259834, 1.8625762921801652, 1.8778843912223238, 1.8962033880015952, 1.9125426538157626, 1.9280750085963518, 1.9459451525763143, 1.9626701246015728]
25	螳螂	True	animate	inanimate	left	1.181	[0.0, 0.0, 0.0, 0.0, 0.0, 0.0, 0.0, 0.0, 0.0, 0.0, 0.0, 0.0, 0.0, -2.0, -3.0, -7.0, -12.0, -18.0, -22.0, -35.0, -45.0, -57.0, -71.0, -86.0, -96.0, -102.0, -108.0, -116.0, -125.0, -138.0, -142.0, -151.0, -154.0, -155.0, -166.0, -178.0, -196.0, -209.0, -215.0, -217.0, -222.0, -241.0, -247.0, -257.0, -261.0, -270.0, -298.0, -348.0, -395.0, -474.0, -500.0, -540.0, -564.0, -579.0, -588.0, -600.0, -604.0, -609.0, -619.0, -633.0, -649.0, -660.0, -670.0, -679.0, -692.0, -709.0, -710.0, -711.0, -711.0, -711.0, -711.0, -711.0]	[-490.0, -490.0, -490.0, -490.0, -490.0, -490.0, -490.0, -490.0, -490.0, -490.0, -490.0, -490.0, -485.0, -479.0, -475.0, -466.0, -456.0, -438.0, -429.0, -398.0, -372.0, -328.0, -277.0, -230.0, -199.0, -177.0, -156.0, -131.0, -103.0, -58.0, -45.0, -15.0, 1.0, 10.0, 39.0, 60.0, 88.0, 110.0, 131.0, 148.0, 167.0, 196.0, 204.0, 219.0, 224.0, 232.0, 245.0, 264.0, 277.0, 295.0, 296.0, 300.0, 300.0, 304.0, 307.0, 313.0, 315.0, 319.0, 326.0, 332.0, 336.0, 341.0, 348.0, 355.0, 363.0, 371.0, 372.0, 373.0, 373.0, 373.0, 373.0, 373.0]	[0.0130064911354566, 0.01776398944639368, 0.0246073732705554, 0.0445333654715796, 0.059512760904908646, 0.07486557456286391, 0.09299854490382131, 0.1093545360272401, 0.12456808585557155, 0.14270958951237844, 0.15932670032634633, 0.1749017217225628, 0.19292717218922917, 0.2097012961457949, 0.2247987927767099, 0.24320175746106543, 0.25959870853694156, 0.27448014142282773, 0.2926393943998846, 0.309806051220221, 0.32513155824563, 0.34266719596780604, 0.3592965947682387, 0.3748552321776515, 0.3929329065795173, 0.40945000684587285, 0.425032537568768, 0.44320441985473735, 0.4595604109854321, 0.4744459398643812, 0.4927229527020245, 0.5092820369172841, 0.524854327646608, 0.5432484176708385, 0.5595538915222278, 0.5744452230646857, 0.5925986733782338, 0.6096462050118134, 0.6251782184554031, 0.6425646936913836, 0.6595623907123809, 0.6743332317346358, 0.6926587138441391, 0.7091782034403877, 0.7248689366970211, 0.7432166054422851, 0.7594295780727407, 0.7744495921288035, 0.7926655063638464, 0.8096468194125919, 0.8250740436487831, 0.8424970414998825, 0.8595138531745761, 0.8748502828530036, 0.8927559254589141, 0.9094389135279926, 0.9248842284068814, 0.942919236200396, 0.9597943947010208, 0.9749174913013121, 0.9928118699244806, 1.0094320527350646, 1.0249087702468387, 1.042868002128671, 1.0595373368778382, 1.074445735066547, 1.0927220652301912, 1.109198546881089, 1.1249271680935635, 1.1432519675363437, 1.1594796174831572, 1.174502020869113]
26	枕头	False	inanimate	animate	left	1.305	[0.0, 0.0, 0.0, 0.0, 0.0, 0.0, 0.0, 0.0, 0.0, 0.0, 0.0, 0.0, 0.0, 0.0, 0.0, 0.0, 0.0, 0.0, 1.0, 1.0, 1.0, 0.0, -4.0, -10.0, -16.0, -29.0, -59.0, -102.0, -181.0, -205.0, -253.0, -337.0, -405.0, -435.0, -542.0, -599.0, -635.0, -664.0, -704.0, -714.0, -730.0, -741.0, -741.0, -741.0, -717.0, -688.0, -590.0, -514.0, -427.0, -345.0, -279.0, -227.0, -196.0, -180.0, -180.0, -180.0, -180.0, -180.0, -180.0, -180.0, -197.0, -227.0, -290.0, -386.0, -502.0, -665.0, -705.0, -743.0, -753.0, -754.0, -754.0, -754.0, -754.0, -757.0, -761.0, -765.0, -765.0, -765.0, -765.0]	[-490.0, -490.0, -490.0, -490.0, -490.0, -490.0, -490.0, -490.0, -490.0, -490.0, -490.0, -490.0, -490.0, -490.0, -490.0, -490.0, -490.0, -490.0, -486.0, -456.0, -426.0, -377.0, -334.0, -304.0, -277.0, -241.0, -188.0, -125.0, -16.0, 20.0, 85.0, 168.0, 212.0, 235.0, 300.0, 334.0, 361.0, 385.0, 421.0, 430.0, 444.0, 451.0, 451.0, 451.0, 450.0, 445.0, 434.0, 434.0, 434.0, 445.0, 459.0, 475.0, 483.0, 486.0, 486.0, 486.0, 486.0, 486.0, 486.0, 486.0, 486.0, 481.0, 473.0, 463.0, 453.0, 432.0, 424.0, 415.0, 412.0, 412.0, 412.0, 412.0, 412.0, 412.0, 412.0, 413.0, 413.0, 413.0, 413.0]	[0.00864323234418407, 0.013023557774431538, 0.01787594665074721, 0.034235351100505795, 0.05058451557124499, 0.06607659306610003, 0.08393922772665974, 0.10096218338730978, 0.11565588316443609, 0.13405133852211293, 0.15105893420695793, 0.1659089644672349, 0.1838726336718537, 0.200848485386814, 0.21591184872522717, 0.23431720273947576, 0.2505673806590494, 0.26613830605492694, 0.2842569404092501, 0.2997773485330981, 0.315794396068668, 0.33430863528337795, 0.35054345321987057, 0.3660075414154562, 0.3844835513373255, 0.4008371531381272, 0.4159899457008578, 0.43407103343633935, 0.4504358992126072, 0.4660935231804615, 0.48444016792200273, 0.5006425592364394, 0.5157970584623399, 0.534003074048087, 0.5504211877705529, 0.5660535530914785, 0.5837079746634117, 0.6008036342464038, 0.6158673389145406, 0.6343662181461696, 0.6503586897088098, 0.6661562601657351, 0.6845435235372861, 0.7006226936573512, 0.7159301100400626, 0.7340494270611089, 0.7503395409294171, 0.7660497301621945, 0.7836546584658208, 0.8008148299632012, 0.8159351958965999, 0.8343303099245531, 0.8504053840515553, 0.866125813270628, 0.8837481495502288, 0.900881014415063, 0.9156368367912364, 0.9337950657645706, 0.9502923687177827, 0.9660186006003642, 0.9844857358693844, 1.0005389646903495, 1.016193175324588, 1.0340401086723432, 1.0510627230032696, 1.0660182251303922, 1.08377402259066, 1.1007761569417198, 1.1160207680659369, 1.1341271144337952, 1.150441804275033, 1.1660451563002425, 1.1845245795557275, 1.2007013709007879, 1.2160500885656802, 1.2340963603346609, 1.2512118172235205, 1.2659618369361851, 1.2852447578989086]
27	绳子	False	animate	inanimate	right	1.126	[0.0, 0.0, 0.0, 0.0, 0.0, 0.0, 0.0, 0.0, 0.0, 0.0, 0.0, 0.0, 0.0, -3.0, -8.0, -13.0, -15.0, -15.0, -18.0, -27.0, -35.0, -38.0, -55.0, -65.0, -76.0, -87.0, -100.0, -113.0, -125.0, -144.0, -166.0, -195.0, -211.0, -220.0, -244.0, -261.0, -281.0, -301.0, -318.0, -322.0, -322.0, -315.0, -293.0, -243.0, -157.0, -105.0, 41.0, 127.0, 228.0, 333.0, 436.0, 518.0, 578.0, 635.0, 647.0, 669.0, 680.0, 680.0, 680.0, 680.0, 680.0, 682.0, 683.0, 684.0, 684.0, 684.0, 684.0, 684.0]	[-490.0, -490.0, -490.0, -490.0, -490.0, -490.0, -490.0, -490.0, -490.0, -490.0, -490.0, -490.0, -490.0, -491.0, -480.0, -461.0, -431.0, -387.0, -342.0, -300.0, -272.0, -259.0, -200.0, -167.0, -136.0, -112.0, -90.0, -70.0, -51.0, -32.0, -12.0, 12.0, 23.0, 29.0, 43.0, 52.0, 65.0, 75.0, 87.0, 94.0, 98.0, 105.0, 114.0, 137.0, 159.0, 177.0, 220.0, 256.0, 288.0, 318.0, 347.0, 372.0, 390.0, 405.0, 407.0, 410.0, 411.0, 411.0, 411.0, 411.0, 411.0, 413.0, 414.0, 415.0, 416.0, 416.0, 416.0, 416.0]	[0.0017268032679567114, 0.006342648419376928, 0.018199871592514683, 0.03681104935822077, 0.053787925076903775, 0.06849971549672773, 0.08658865388861159, 0.10354436696798075, 0.11869886619388126, 0.13697110036446247, 0.1532106969607412, 0.16873349442175822, 0.18648758521158015, 0.20355559681775048, 0.21860325884335907, 0.23701031952077756, 0.25316731354541844, 0.2686774816829711, 0.2871463236224372, 0.3033872855521622, 0.318527790128428, 0.3366962590953335, 0.35371750809281366, 0.368676423553552, 0.3865035595881636, 0.40352446725592017, 0.4186134305637097, 0.4369075100403279, 0.4530778160551563, 0.46870745071646525, 0.4871302127066883, 0.5033203160346602, 0.5185970124512096, 0.53671462280181, 0.553759423775773, 0.5686667979680351, 0.5864171340945177, 0.6033963991430937, 0.6186034636411932, 0.636919729760848, 0.6531371397213661, 0.6686933878008858, 0.686768331543135, 0.7036240340676159, 0.7183153445221251, 0.7365213601005962, 0.7537559421762126, 0.7687063243211014, 0.7864092151721707, 0.803501461414271, 0.8182122278449242, 0.8364639820356388, 0.8537299667441403, 0.8686963915315573, 0.8863825570660993, 0.9034181420502136, 0.9186286198746529, 0.936878326072474, 0.9530581894141505, 0.9687246880275779, 0.986378426940064, 1.0035222144579166, 1.0186285857416806, 1.0367950067084166, 1.053002518012363, 1.0687570805239375, 1.0871658478645259, 1.103276420617476]
28	岛屿	False	animate	inanimate	right	1.224	[0.0, 0.0, 0.0, 0.0, 0.0, 0.0, 0.0, 0.0, 0.0, 0.0, 0.0, 0.0, 0.0, 1.0, 0.0, 0.0, 0.0, -1.0, -2.0, -3.0, -15.0, -20.0, -30.0, -43.0, -58.0, -73.0, -85.0, -85.0, -89.0, -97.0, -110.0, -134.0, -160.0, -182.0, -201.0, -222.0, -227.0, -254.0, -289.0, -324.0, -345.0, -353.0, -355.0, -355.0, -355.0, -353.0, -347.0, -326.0, -317.0, -287.0, -202.0, -100.0, 32.0, 180.0, 317.0, 428.0, 523.0, 597.0, 662.0, 677.0, 679.0, 679.0, 679.0, 679.0, 679.0, 679.0, 679.0, 679.0, 679.0, 679.0, 679.0, 679.0, 679.0, 679.0]	[-490.0, -490.0, -490.0, -490.0, -490.0, -490.0, -490.0, -490.0, -490.0, -490.0, -490.0, -490.0, -490.0, -490.0, -483.0, -483.0, -479.0, -476.0, -474.0, -472.0, -463.0, -460.0, -458.0, -455.0, -450.0, -448.0, -445.0, -445.0, -443.0, -436.0, -428.0, -415.0, -396.0, -378.0, -339.0, -291.0, -280.0, -231.0, -187.0, -144.0, -114.0, -93.0, -80.0, -72.0, -66.0, -53.0, -37.0, -4.0, 8.0, 45.0, 119.0, 180.0, 240.0, 299.0, 337.0, 369.0, 398.0, 419.0, 437.0, 439.0, 439.0, 439.0, 439.0, 439.0, 439.0, 439.0, 439.0, 439.0, 439.0, 439.0, 439.0, 439.0, 439.0, 439.0]	[0.009189706353936344, 0.01753085905511398, 0.03311270710401004, 0.051414637244306505, 0.06793139618093846, 0.0834163056788384, 0.10142537216597702, 0.11833807729271939, 0.1330659103623475, 0.1514296217574156, 0.16849695070413873, 0.18348795145720942, 0.2012314609310124, 0.21820799531269586, 0.2329808843351202, 0.2513589317095466, 0.2677978667343268, 0.28341384808300063, 0.30118398151535075, 0.31822912381903734, 0.33327200718485983, 0.3517166144811199, 0.36793538977508433, 0.3835015365111758, 0.40124163265136303, 0.41824171900952933, 0.4332927943614777, 0.451703268365236, 0.46788244903291343, 0.48347521974210395, 0.5018153791606892, 0.5181993595906533, 0.5334180294084945, 0.551419927905954, 0.5692511599336285, 0.5833680070718401, 0.6015753879837575, 0.6181276455463376, 0.6334224326055846, 0.6514710937117343, 0.6678369834917248, 0.683441359513381, 0.7018091669015121, 0.7180904061242472, 0.7332544626697199, 0.751383678347338, 0.7684062926782644, 0.7832604189316044, 0.8011353415786289, 0.8180664786850684, 0.8333175751322415, 0.8516386199116823, 0.8677171073650243, 0.8834122779517202, 0.9018954558705445, 0.9180517672357382, 0.9332113864584244, 0.9513685914280359, 0.9684219257251243, 0.9834334064580617, 1.0010724680541898, 1.0180804050687584, 1.032943747311947, 1.0511436188971857, 1.0684481742282514, 1.0832674845223664, 1.101028401972144, 1.1181230375514133, 1.133321910056111, 1.1516156482030055, 1.1677736662313691, 1.183486586131039, 1.2018175295597757, 1.2179775955883088]
29	蜘蛛	True	animate	inanimate	left	1.232	[0.0, 0.0, 0.0, 0.0, 0.0, 0.0, 0.0, 0.0, 0.0, 0.0, 0.0, 0.0, 0.0, 1.0, 2.0, 2.0, 2.0, 2.0, 2.0, 2.0, -4.0, -10.0, -17.0, -21.0, -27.0, -39.0, -49.0, -53.0, -72.0, -83.0, -94.0, -108.0, -129.0, -150.0, -170.0, -186.0, -197.0, -209.0, -231.0, -243.0, -290.0, -317.0, -336.0, -358.0, -399.0, -440.0, -478.0, -506.0, -531.0, -561.0, -598.0, -606.0, -629.0, -640.0, -647.0, -656.0, -662.0, -664.0, -665.0, -667.0, -669.0, -677.0, -688.0, -694.0, -710.0, -716.0, -725.0, -734.0, -740.0, -745.0, -748.0, -748.0, -748.0, -748.0, -748.0]	[-490.0, -490.0, -490.0, -490.0, -490.0, -490.0, -490.0, -490.0, -490.0, -490.0, -490.0, -490.0, -490.0, -487.0, -485.0, -484.0, -476.0, -468.0, -457.0, -437.0, -407.0, -366.0, -324.0, -294.0, -267.0, -232.0, -210.0, -201.0, -171.0, -156.0, -141.0, -129.0, -117.0, -102.0, -91.0, -80.0, -69.0, -60.0, -44.0, -33.0, 7.0, 32.0, 50.0, 69.0, 98.0, 125.0, 150.0, 171.0, 194.0, 230.0, 272.0, 281.0, 302.0, 310.0, 314.0, 319.0, 320.0, 322.0, 323.0, 324.0, 327.0, 339.0, 351.0, 356.0, 372.0, 380.0, 395.0, 409.0, 421.0, 433.0, 436.0, 437.0, 437.0, 437.0, 437.0]	[0.015476717504498083, 0.020202471860102378, 0.029192157118814066, 0.047855217489995994, 0.06441054704191629, 0.07916056675458094, 0.0974624968948774, 0.11410247701132903, 0.12958567984605907, 0.14785552468674723, 0.16447775549750077, 0.17915268196520628, 0.19763449455058435, 0.21466257020802004, 0.22932179536292097, 0.24743121372739552, 0.2643514281808166, 0.27947998610761715, 0.2976201244382537, 0.3140416514870594, 0.3296883527946193, 0.3478114244790049, 0.3644411646091612, 0.37915397903270787, 0.39748219180182787, 0.414615056666662, 0.429325140430592, 0.447316116267757, 0.46429913597967243, 0.4795092724743881, 0.4975985521959956, 0.5140238339081407, 0.5296766792089329, 0.547797020226426, 0.5644117417105008, 0.5791583480895497, 0.5974623262227396, 0.6146627750131302, 0.6293213175013079, 0.6473068320119637, 0.6642550357646542, 0.6795703028037678, 0.6975725426309509, 0.7139019097885466, 0.7295445150957676, 0.7477123013959499, 0.7644331774208695, 0.7791821731298114, 0.7974468979809899, 0.8145978534885217, 0.8293768864969024, 0.8474081396270776, 0.8642290261923335, 0.8795702345378231, 0.8974284318683203, 0.91389535619237, 0.9296058867548709, 0.9477801583780092, 0.9645303890356445, 0.9791807395304204, 0.9974007497658022, 1.0146233851919533, 1.0293314209557138, 1.047309426139691, 1.0643136084909202, 1.0795548062887974, 1.0975659207688295, 1.1138741252871114, 1.1296928583906265, 1.147744932823116, 1.16445727552491, 1.1791735032747965, 1.1974153588162153, 1.2146356049124734, 1.2293149687029654]
30	松鼠	True	inanimate	animate	right	1.266	[0.0, 0.0, 0.0, 0.0, 0.0, 0.0, 0.0, 0.0, 0.0, 0.0, 0.0, 0.0, 0.0, 0.0, 0.0, 1.0, 1.0, 1.0, 1.0, 2.0, 2.0, 3.0, 3.0, 3.0, 3.0, 3.0, 4.0, 4.0, 4.0, 4.0, 2.0, -10.0, -17.0, -32.0, -49.0, -65.0, -81.0, -105.0, -146.0, -212.0, -293.0, -299.0, -302.0, -263.0, -210.0, -147.0, -71.0, 24.0, 116.0, 194.0, 245.0, 281.0, 317.0, 337.0, 347.0, 364.0, 374.0, 388.0, 404.0, 426.0, 447.0, 470.0, 498.0, 542.0, 614.0, 633.0, 668.0, 736.0, 786.0, 818.0, 834.0, 838.0, 838.0, 838.0, 838.0, 838.0, 838.0]	[-490.0, -490.0, -490.0, -490.0, -490.0, -490.0, -490.0, -490.0, -490.0, -490.0, -490.0, -490.0, -486.0, -485.0, -482.0, -480.0, -476.0, -471.0, -468.0, -462.0, -458.0, -455.0, -454.0, -454.0, -454.0, -454.0, -451.0, -445.0, -440.0, -430.0, -413.0, -357.0, -300.0, -223.0, -158.0, -104.0, -61.0, -19.0, 32.0, 95.0, 150.0, 156.0, 165.0, 193.0, 225.0, 256.0, 280.0, 302.0, 318.0, 336.0, 350.0, 355.0, 359.0, 359.0, 359.0, 359.0, 359.0, 359.0, 359.0, 359.0, 359.0, 362.0, 366.0, 374.0, 382.0, 388.0, 395.0, 416.0, 432.0, 441.0, 448.0, 450.0, 450.0, 450.0, 450.0, 450.0, 450.0]	[0.00787932925595669, 0.012765168750775047, 0.01926892631308874, 0.0322300201660255, 0.0485546086638351, 0.06412724072288256, 0.08193014212156413, 0.09887936987070134, 0.11396969851193717, 0.13210062085272511, 0.14854194520739838, 0.16405825733818347, 0.18231683819612954, 0.19901859957462875, 0.21374779797770316, 0.23206338143063476, 0.24917576631560223, 0.2638401114672888, 0.2819597698180587, 0.29883595232240623, 0.31357573204877554, 0.33205037664447445, 0.349167540196504, 0.3638438319976558, 0.3819467650318984, 0.398978936689673, 0.41406448666384676, 0.43212543575646123, 0.4485138535092119, 0.4641079895445728, 0.4823037651440245, 0.4990010891924612, 0.5137050289631588, 0.5320936576608801, 0.5491828319136403, 0.5639120303167147, 0.5820432939872262, 0.5987716793315485, 0.6140790957142599, 0.6319628930141334, 0.64840319337236, 0.664090171965654, 0.681763366854284, 0.6987583332156646, 0.7140247896459186, 0.7320690134220058, 0.7484393405320588, 0.7642000470368657, 0.7822627027926501, 0.7989436428615591, 0.8136636252747849, 0.8319300567891332, 0.8492404147764319, 0.8638166960299714, 0.8819104130816413, 0.8987422223071917, 0.9140544173424132, 0.9321092224417953, 0.9484331282728817, 0.9641583361517405, 0.9816833925506216, 0.9987217081943527, 1.0139222873694962, 1.032216708183114, 1.0483225022690021, 1.0641012994237826, 1.0817144197135349, 1.0988544525680481, 1.1136618162126979, 1.1318091225330136, 1.1491775071190204, 1.163839462933538, 1.1817765081723337, 1.1987666958739283, 1.2140911789028905, 1.2320613334304653, 1.2484115218976513]
31	燕子	True	inanimate	animate	right	1.174	[0.0, 0.0, 0.0, 0.0, 0.0, 0.0, 0.0, 0.0, 0.0, 0.0, 0.0, 0.0, 1.0, 3.0, 4.0, 4.0, 6.0, 7.0, 12.0, 17.0, 21.0, 24.0, 26.0, 26.0, 26.0, 26.0, 19.0, 9.0, -23.0, -56.0, -99.0, -141.0, -188.0, -219.0, -253.0, -279.0, -311.0, -365.0, -376.0, -395.0, -413.0, -418.0, -418.0, -418.0, -409.0, -386.0, -342.0, -264.0, -151.0, 24.0, 79.0, 187.0, 335.0, 430.0, 520.0, 588.0, 632.0, 658.0, 678.0, 694.0, 702.0, 706.0, 706.0, 706.0, 715.0, 730.0, 744.0, 747.0, 747.0, 747.0, 747.0]	[-490.0, -490.0, -490.0, -490.0, -490.0, -490.0, -490.0, -490.0, -490.0, -490.0, -490.0, -489.0, -488.0, -484.0, -482.0, -481.0, -477.0, -469.0, -455.0, -441.0, -426.0, -408.0, -389.0, -368.0, -347.0, -266.0, -195.0, -168.0, -101.0, -58.0, -20.0, 11.0, 43.0, 60.0, 79.0, 94.0, 113.0, 147.0, 155.0, 168.0, 182.0, 188.0, 190.0, 195.0, 205.0, 220.0, 241.0, 272.0, 303.0, 327.0, 335.0, 349.0, 372.0, 385.0, 396.0, 408.0, 415.0, 417.0, 421.0, 423.0, 423.0, 425.0, 425.0, 425.0, 428.0, 432.0, 437.0, 438.0, 438.0, 438.0, 438.0]	[0.015631341324478853, 0.020242066486389376, 0.029699036516831256, 0.047836785517574754, 0.06339542292698752, 0.07975653404719196, 0.09825302394892788, 0.1145055912056705, 0.13002838865941158, 0.14834397211234318, 0.16494026161672082, 0.17965000404365128, 0.19803760874492582, 0.21479193539562402, 0.23022325562487822, 0.2477868826390477, 0.26474225438869325, 0.2799520495464094, 0.29810174519661814, 0.31448948028992163, 0.33009249097813154, 0.3482688106014393, 0.36492892936075805, 0.37963116246828577, 0.39797780721710296, 0.41479016045923345, 0.4302078273758525, 0.44775745974766323, 0.4647722234149114, 0.4799704132601619, 0.49804091967234854, 0.5143808681532391, 0.5301330413349206, 0.5476604870636947, 0.5646421414421638, 0.5795788702598657, 0.5977981978285243, 0.6143013034452451, 0.6300340206507826, 0.6476904902228853, 0.6646697552714613, 0.6795433375009452, 0.6978671129472787, 0.71511056968302, 0.729815874779888, 0.7478450799098937, 0.7647349157268764, 0.780006492153916, 0.7979442200521589, 0.8142793898732634, 0.8300213230686495, 0.8482730772593641, 0.8648929187402246, 0.8796282611365314, 0.897814479409135, 0.9149859148965334, 0.9297929372041835, 0.9477395397625514, 0.9648078927057213, 0.9799767279182561, 0.9980813676229445, 1.0143489535257686, 1.0300215961324284, 1.0476217457762687, 1.0647017040319042, 1.079907744533557, 1.0979936109288246, 1.1144619005863206, 1.130053988628788, 1.1476418502861634, 1.1648491257292335]
