trialIndex	stimulus	left_option	right_option	response	response_time	xTrajectory	yTrajectory	tTrajectory
0	inanimate/n32.jpg	inanimate	animate	left	1.868	[0.0, 0.0, 0.0, 0.0, 0.0, 0.0, 1.0, 1.0, 1.0, 3.0, 4.0, 6.0, 7.0, 8.0, 8.0, 10.0, 19.0, 37.0, 50.0, 54.0, 58.0, 59.0, 59.0, 59.0, 59.0, 59.0, 66.0, 82.0, 87.0, 85.0, 82.0, 82.0, 82.0, 82.0, 82.0, 82.0, 82.0, 82.0, 82.0, 82.0, 82.0, 82.0, 82.0, 82.0, 82.0, 82.0, 82.0, 82.0, 82.0, 84.0, 89.0, 91.0, 93.0, 94.0, 94.0, 94.0, 94.0, 89.0, 50.0, -48.0, -190.0, -345.0, -488.0, -603.0, -670.0, -716.0, -750.0, -760.0, -769.0, -778.0, -796.0, -825.0, -856.0, -892.0, -918.0, -936.0, -950.0, -955.0, -955.0, -955.0, -953.0, -949.0, -943.0, -935.0, -923.0, -906.0, -892.0, -886.0, -885.0, -883.0, -882.0, -881.0, -879.0, -879.0, -879.0, -879.0, -879.0, -879.0, -879.0, -879.0, -879.0, -879.0, -879.0, -879.0, -879.0, -879.0, -879.0, -879.0, -879.0, -879.0, -879.0, -879.0]	[-490.0, -490.0, -490.0, -490.0, -490.0, -490.0, -490.0, -490.0, -490.0, -490.0, -490.0, -488.0, -487.0, -485.0, -484.0, -478.0, -459.0, -411.0, -343.0, -310.0, -290.0, -282.0, -281.0, -281.0, -281.0, -281.0, -266.0, -232.0, -218.0, -217.0, -224.0, -224.0, -224.0, -224.0, -224.0, -224.0, -224.0, -224.0, -224.0, -224.0, -224.0, -224.0, -224.0, -224.0, -224.0, -225.0, -225.0, -224.0, -224.0, -224.0, -222.0, -222.0, -220.0, -218.0, -210.0, -201.0, -189.0, -172.0, -134.0, -63.0, 16.0, 102.0, 162.0, 208.0, 227.0, 245.0, 259.0, 263.0, 265.0, 266.0, 269.0, 275.0, 274.0, 285.0, 294.0, 306.0, 318.0, 322.0, 323.0, 323.0, 323.0, 323.0, 326.0, 334.0, 343.0, 355.0, 363.0, 368.0, 369.0, 371.0, 372.0, 374.0, 376.0, 376.0, 377.0, 377.0, 377.0, 377.0, 377.0, 377.0, 377.0, 377.0, 377.0, 377.0, 377.0, 377.0, 377.0, 377.0, 377.0, 377.0, 377.0, 377.0]	[0.013485663454048336, 0.018935729982331395, 0.025613230536691844, 0.042396581964567304, 0.05894543754402548, 0.07589843147434294, 0.09201891394332051, 0.1092388303950429, 0.12551871535833925, 0.14240685605909675, 0.15883010101970285, 0.17585067893378437, 0.1921834705863148, 0.20911393663845956, 0.22549007751513273, 0.2424318075645715, 0.2585983698954806, 0.2757681105285883, 0.2922026193700731, 0.3091023653978482, 0.3253747411072254, 0.3424608550267294, 0.35891277191694826, 0.3758104699663818, 0.39220982149709016, 0.4090962555492297, 0.42552257247734815, 0.44253086240496486, 0.45861038484144956, 0.4757777360500768, 0.4921282770810649, 0.5090846843086183, 0.5254912039963529, 0.5424390779808164, 0.5586093950551003, 0.5757354449015111, 0.5919139540055767, 0.6089553532656282, 0.6255724753718823, 0.6425152294104919, 0.6588231036439538, 0.6757897509960458, 0.6921867133351043, 0.7091960272518918, 0.7256090322043747, 0.7425343781942502, 0.7588156284764409, 0.7757064998149872, 0.7921061927918345, 0.8091161893680692, 0.8255554769420996, 0.8424931110348552, 0.8588122492656112, 0.8757717285770923, 0.892158109578304, 0.9091268049087375, 0.925554828485474, 0.9424474064726382, 0.9588430033763871, 0.975756744039245, 0.9921506344107911, 1.0092312869383022, 1.0255070759449154, 1.0424849872943014, 1.058573042973876, 1.075745172915049, 1.0921158525161445, 1.1091002491302788, 1.1255211047828197, 1.1424614693969488, 1.1587413543602452, 1.1757510097231716, 1.19215650530532, 1.20917503524106, 1.225263773696497, 1.2423666128888726, 1.2588082898873836, 1.2759230757365003, 1.2919302355730906, 1.308985629468225, 1.3254829436773434, 1.3424461777321994, 1.3586222974117845, 1.3757715579122305, 1.3921681789215654, 1.4091092261951417, 1.4254812711151317, 1.4424479184672236, 1.4585782994981855, 1.4757545253960416, 1.49218084232416, 1.5090822950005531, 1.5255017853341997, 1.5423824166646227, 1.5586124670226127, 1.575614271685481, 1.5921238738810644, 1.6091714170761406, 1.6254885074449703, 1.6424490107456222, 1.6588183250278234, 1.6757132924394682, 1.6921283452538773, 1.7090577873168513, 1.7254854695638642, 1.742454847553745, 1.7587821778142825, 1.775801049079746, 1.7921918673673645, 1.80912335740868, 1.825306645128876, 1.8424675109563395]
1	animate/a80.jpg	animate	inanimate	left	1.257	[0.0, 0.0, 0.0, 0.0, 0.0, 0.0, 0.0, 0.0, 0.0, 0.0, 0.0, 0.0, 0.0, 0.0, 0.0, 0.0, 0.0, 0.0, 0.0, 0.0, 0.0, 0.0, 0.0, 0.0, 0.0, 0.0, 0.0, 0.0, 0.0, 0.0, 0.0, 0.0, 0.0, 0.0, 0.0, 0.0, -2.0, -3.0, -3.0, -3.0, -3.0, -7.0, -20.0, -105.0, -211.0, -361.0, -551.0, -771.0, -960.0, -960.0, -960.0, -960.0, -960.0, -960.0, -960.0, -960.0, -960.0, -960.0, -960.0, -960.0, -960.0, -960.0, -960.0, -960.0, -960.0, -960.0, -960.0, -960.0, -960.0, -958.0, -925.0, -889.0, -860.0, -842.0, -829.0, -816.0]	[-490.0, -490.0, -490.0, -490.0, -490.0, -490.0, -490.0, -490.0, -490.0, -490.0, -490.0, -490.0, -490.0, -490.0, -490.0, -490.0, -490.0, -490.0, -490.0, -490.0, -490.0, -490.0, -490.0, -490.0, -490.0, -490.0, -490.0, -490.0, -490.0, -490.0, -490.0, -490.0, -490.0, -490.0, -490.0, -490.0, -486.0, -483.0, -480.0, -464.0, -444.0, -424.0, -397.0, -282.0, -153.0, 21.0, 221.0, 396.0, 509.0, 540.0, 540.0, 540.0, 540.0, 540.0, 540.0, 540.0, 540.0, 540.0, 540.0, 540.0, 540.0, 540.0, 540.0, 540.0, 540.0, 540.0, 540.0, 540.0, 540.0, 538.0, 520.0, 497.0, 482.0, 471.0, 461.0, 449.0]	[0.008610163116827607, 0.01482583989854902, 0.02453198959119618, 0.032378556206822395, 0.049405619502067566, 0.06588416045997292, 0.08280814113095403, 0.09920544468332082, 0.11606935074087232, 0.13259363023098558, 0.14952136564534158, 0.16570123995188624, 0.18276584998238832, 0.19895016169175506, 0.2162120621651411, 0.2323752111988142, 0.24955485039390624, 0.2656739674275741, 0.28277783072553575, 0.29896965180523694, 0.31616396829485893, 0.33232438669074327, 0.3495395245263353, 0.3656057349871844, 0.3828754861606285, 0.3990621871780604, 0.4162114477949217, 0.4323773274663836, 0.44963717996142805, 0.46567813178990036, 0.48290965356864035, 0.49897825333755463, 0.5161466285353526, 0.5323067056015134, 0.5495372035074979, 0.5656331098871306, 0.5828328877687454, 0.5989629274699837, 0.6161627053515986, 0.6322456410853192, 0.6494235736317933, 0.6655887707602233, 0.6828257539309561, 0.6990407855482772, 0.7161460141651332, 0.7324061018880457, 0.7494939224561676, 0.7658796206815168, 0.7828124760417268, 0.7989373957971111, 0.8161088429624215, 0.8325532505987212, 0.8494871299481019, 0.8658700975356624, 0.8828207021579146, 0.8992773977806792, 0.9161890904651955, 0.9327181485714391, 0.9494786306750029, 0.9658800303004682, 0.9828060589497909, 0.9989589680917561, 1.0161355352029204, 1.032548881485127, 1.0494738861452788, 1.0656677552033216, 1.082723149098456, 1.0991795033914968, 1.116155366646126, 1.1326451716013253, 1.1495367255993187, 1.165857570595108, 1.182783257914707, 1.1991559854941443, 1.216136627481319, 1.23252198449336]
2	animate/a44.jpg	animate	inanimate	left	0.871	[0.0, 0.0, 0.0, 0.0, 0.0, 0.0, 0.0, 0.0, 0.0, 0.0, 0.0, 0.0, 0.0, 0.0, 0.0, 0.0, 0.0, 0.0, 0.0, 0.0, 0.0, 0.0, 0.0, 0.0, 0.0, 0.0, 0.0, 0.0, 0.0, -13.0, -32.0, -92.0, -175.0, -288.0, -472.0, -592.0, -712.0, -813.0, -892.0, -915.0, -919.0, -919.0, -919.0, -918.0, -918.0, -918.0, -918.0, -918.0, -918.0, -918.0, -918.0, -918.0]	[-490.0, -490.0, -490.0, -490.0, -490.0, -490.0, -490.0, -490.0, -490.0, -490.0, -490.0, -490.0, -490.0, -490.0, -490.0, -490.0, -490.0, -490.0, -490.0, -490.0, -490.0, -490.0, -490.0, -490.0, -490.0, -490.0, -490.0, -490.0, -490.0, -481.0, -466.0, -423.0, -352.0, -254.0, -68.0, 59.0, 174.0, 278.0, 364.0, 408.0, 426.0, 434.0, 439.0, 441.0, 441.0, 441.0, 441.0, 441.0, 441.0, 441.0, 441.0, 441.0]	[0.003159072599373758, 0.008867186959832907, 0.021390359266661108, 0.0384273212403059, 0.05454575561452657, 0.07172949076630175, 0.08821622363757342, 0.10519276966806501, 0.12147094798274338, 0.13839253934565932, 0.15482192824129015, 0.1717267942149192, 0.18819407117553055, 0.2051515025086701, 0.22149077942594886, 0.2385465147672221, 0.2548202556790784, 0.27167835913132876, 0.2879469800973311, 0.30497540871147066, 0.3212249150965363, 0.3383707622997463, 0.35477113793604076, 0.371784889139235, 0.3881142674945295, 0.40512767748441547, 0.4213734291261062, 0.4383936657104641, 0.4546322494279593, 0.4716961766825989, 0.4878989204298705, 0.5050887996330857, 0.5212290793424472, 0.5382810599403456, 0.5548015848034993, 0.5718518587527797, 0.5882174184080213, 0.6050973670789972, 0.6214875027071685, 0.6383633553050458, 0.6545589310117066, 0.671785332961008, 0.6881601085187867, 0.705096035846509, 0.7214813927421346, 0.7383753361646086, 0.7548211090033874, 0.7718846950447187, 0.788167993305251, 0.805155462003313, 0.8214964455692098, 0.8383920956403017]
3	animate/a46.jpg	animate	inanimate	left	1.122	[0.0, 0.0, 0.0, 0.0, 0.0, 0.0, 0.0, 0.0, 0.0, 0.0, 0.0, 0.0, 0.0, 0.0, 0.0, 0.0, 0.0, 0.0, 0.0, 0.0, 0.0, 0.0, 0.0, 0.0, 0.0, 0.0, 0.0, 0.0, 0.0, 0.0, 0.0, 0.0, 0.0, 0.0, -13.0, -24.0, -35.0, -52.0, -77.0, -123.0, -183.0, -257.0, -365.0, -492.0, -638.0, -749.0, -860.0, -885.0, -888.0, -888.0, -888.0, -888.0, -888.0, -888.0, -888.0, -888.0, -888.0, -888.0, -888.0, -888.0, -888.0, -888.0, -888.0, -886.0, -885.0, -885.0, -885.0, -885.0]	[-490.0, -490.0, -490.0, -490.0, -490.0, -490.0, -490.0, -490.0, -490.0, -490.0, -490.0, -490.0, -490.0, -490.0, -490.0, -490.0, -490.0, -490.0, -490.0, -490.0, -490.0, -490.0, -490.0, -490.0, -490.0, -490.0, -490.0, -490.0, -490.0, -490.0, -490.0, -490.0, -490.0, -490.0, -473.0, -460.0, -447.0, -428.0, -401.0, -345.0, -231.0, -46.0, 188.0, 380.0, 486.0, 519.0, 528.0, 528.0, 528.0, 528.0, 528.0, 528.0, 528.0, 528.0, 528.0, 528.0, 528.0, 528.0, 528.0, 528.0, 528.0, 528.0, 528.0, 527.0, 526.0, 526.0, 526.0, 526.0]	[0.009650205378420651, 0.014794096001423895, 0.019924333435483277, 0.034588005975820124, 0.05095629615243524, 0.06786082091275603, 0.08431717508938164, 0.1012838224414736, 0.1174872488481924, 0.1345562960486859, 0.15094984497409314, 0.16793697234243155, 0.18430799327325076, 0.20127020322252065, 0.2174295976292342, 0.2345993381459266, 0.2509618258336559, 0.26792881439905614, 0.2840960595058277, 0.3012658000225201, 0.31768290093168616, 0.33463623630814254, 0.3509645905578509, 0.36789573926944286, 0.3842623229138553, 0.40129109285771847, 0.41759384714532644, 0.4346799610648304, 0.4509946620091796, 0.4679807653883472, 0.484314922359772, 0.5013996709603816, 0.5174481320427731, 0.5345492645865306, 0.5510342908091843, 0.5679712421260774, 0.5843654737109318, 0.6012078757630661, 0.6176307793939486, 0.6345376934623346, 0.6510462716687471, 0.6679333882639185, 0.6843494651839137, 0.701249893871136, 0.7176530001452193, 0.7345803942298517, 0.7510790737578645, 0.7679153317585588, 0.784366907319054, 0.8012902053305879, 0.8176451836479828, 0.8346282149432227, 0.8509988945443183, 0.8679423312423751, 0.884355336194858, 0.9012755621224642, 0.9176650150911883, 0.9346576037351042, 0.9509477287065238, 0.9679126694099978, 0.9840884477598593, 1.0012885669711977, 1.0175810812506825, 1.0345583099406213, 1.0510259281145409, 1.0679355728207156, 1.0843014738056809, 1.1012841637711972]
4	inanimate/n77.jpg	animate	inanimate	right	1.706	[0.0, 0.0, 0.0, 0.0, 0.0, 0.0, 0.0, 0.0, 0.0, 0.0, 0.0, 0.0, 0.0, 0.0, 0.0, 0.0, 0.0, 0.0, 0.0, 0.0, 0.0, 0.0, 0.0, 0.0, 0.0, 0.0, 0.0, 0.0, 0.0, 0.0, 0.0, 0.0, 0.0, 0.0, 0.0, 0.0, 0.0, 0.0, -20.0, -98.0, -203.0, -350.0, -509.0, -676.0, -815.0, -895.0, -917.0, -919.0, -919.0, -919.0, -919.0, -919.0, -919.0, -919.0, -919.0, -919.0, -919.0, -914.0, -910.0, -910.0, -910.0, -910.0, -910.0, -910.0, -910.0, -910.0, -910.0, -910.0, -910.0, -910.0, -910.0, -910.0, -910.0, -910.0, -910.0, -910.0, -910.0, -910.0, -910.0, -910.0, -910.0, -910.0, -910.0, -910.0, -910.0, -910.0, -910.0, -910.0, -910.0, -910.0, -910.0, -895.0, -813.0, -649.0, -422.0, -153.0, 160.0, 466.0, 723.0, 896.0, 959.0, 959.0, 959.0]	[-490.0, -490.0, -490.0, -490.0, -490.0, -490.0, -490.0, -490.0, -490.0, -490.0, -490.0, -490.0, -490.0, -490.0, -490.0, -490.0, -490.0, -490.0, -490.0, -490.0, -490.0, -490.0, -490.0, -490.0, -490.0, -490.0, -490.0, -490.0, -490.0, -490.0, -490.0, -490.0, -490.0, -490.0, -490.0, -490.0, -490.0, -487.0, -473.0, -410.0, -322.0, -199.0, -56.0, 97.0, 233.0, 322.0, 351.0, 356.0, 357.0, 357.0, 357.0, 357.0, 357.0, 357.0, 357.0, 357.0, 360.0, 368.0, 374.0, 375.0, 375.0, 375.0, 375.0, 375.0, 375.0, 375.0, 375.0, 375.0, 375.0, 375.0, 375.0, 375.0, 375.0, 375.0, 375.0, 375.0, 375.0, 375.0, 375.0, 375.0, 375.0, 375.0, 375.0, 375.0, 375.0, 375.0, 375.0, 375.0, 375.0, 375.0, 375.0, 375.0, 381.0, 403.0, 437.0, 474.0, 517.0, 540.0, 540.0, 540.0, 540.0, 540.0, 540.0]	[0.010658503393642604, 0.015555268852040172, 0.022067564190365374, 0.0362776048714295, 0.052624391159042716, 0.0696746651083231, 0.08607538207434118, 0.1029976560967043, 0.11947892769239843, 0.13631108973640949, 0.15274628123734146, 0.16973579791374505, 0.18588802427984774, 0.20289699698332697, 0.21942093514371663, 0.2364128411281854, 0.2527978566940874, 0.26970169867854565, 0.2860740850446746, 0.3029857777291909, 0.31945066526532173, 0.33644632587675005, 0.35279516014270484, 0.369775460800156, 0.3861004017526284, 0.40314145968295634, 0.41943124344106764, 0.43642963469028473, 0.4527832476887852, 0.4697812976082787, 0.48611272394191474, 0.5030274885939434, 0.5192380829248577, 0.5364726767875254, 0.5529303963994607, 0.5697342277271673, 0.5861192434094846, 0.6030507333343849, 0.6192841971060261, 0.6364119536010548, 0.652783315978013, 0.6710210879100487, 0.6859759176149964, 0.7031685274560004, 0.7194357831031084, 0.7364116464741528, 0.7526655901456252, 0.7696834374219179, 0.7861193116987124, 0.8029859483940527, 0.8194460573140532, 0.836473120492883, 0.8527632455807179, 0.869753786129877, 0.886098183109425, 0.9030965744750574, 0.919372022151947, 0.9363611973822117, 0.9528165276860818, 0.9697684976272285, 0.9860821745824069, 1.0030440432019532, 1.019399021519348, 1.0364151621470228, 1.0524810312781483, 1.0696231238543987, 1.0860999580472708, 1.103054317412898, 1.1194338717032224, 1.1363960816524923, 1.1527100999373943, 1.169773003202863, 1.1859699442284182, 1.2030249969102442, 1.219448241754435, 1.2364398064091802, 1.252741878037341, 1.2697303707245737, 1.2860375624150038, 1.303083398961462, 1.3194114119978622, 1.336383179295808, 1.3527487388346344, 1.369744399562478, 1.3861287324689329, 1.4031131290830672, 1.4194008647464216, 1.4364115439821035, 1.4524811678566039, 1.4696758256759495, 1.4860895132878795, 1.5030124699696898, 1.519368130946532, 1.5363347781822085, 1.552486321888864, 1.5696410437813029, 1.5858202355448157, 1.6031285573262721, 1.6194057116517797, 1.6364041030174121, 1.6527355292346328, 1.66979638452176, 1.6861670641228557]
5	animate/a26.jpg	animate	inanimate	left	1.19	[0.0, 0.0, 0.0, 0.0, 0.0, 0.0, 0.0, 0.0, 0.0, 0.0, 0.0, 0.0, 0.0, 0.0, 0.0, 0.0, 0.0, 0.0, 0.0, 0.0, 0.0, 0.0, 0.0, 0.0, 0.0, 0.0, 0.0, 0.0, 0.0, 0.0, 0.0, 0.0, 0.0, 0.0, 0.0, -11.0, -30.0, -39.0, -44.0, -47.0, -48.0, -49.0, -54.0, -71.0, -103.0, -144.0, -207.0, -294.0, -384.0, -478.0, -598.0, -676.0, -747.0, -812.0, -861.0, -893.0, -909.0, -913.0, -914.0, -914.0, -914.0, -914.0, -914.0, -914.0, -914.0, -914.0, -914.0, -914.0, -914.0, -914.0, -914.0, -914.0]	[-490.0, -490.0, -490.0, -490.0, -490.0, -490.0, -490.0, -490.0, -490.0, -490.0, -490.0, -490.0, -490.0, -490.0, -490.0, -490.0, -490.0, -490.0, -490.0, -490.0, -490.0, -490.0, -490.0, -490.0, -490.0, -490.0, -490.0, -490.0, -490.0, -490.0, -490.0, -490.0, -490.0, -490.0, -487.0, -467.0, -440.0, -416.0, -400.0, -387.0, -381.0, -368.0, -339.0, -282.0, -199.0, -107.0, -18.0, 63.0, 129.0, 187.0, 258.0, 305.0, 357.0, 399.0, 419.0, 433.0, 443.0, 446.0, 447.0, 447.0, 447.0, 447.0, 447.0, 447.0, 447.0, 447.0, 447.0, 447.0, 447.0, 447.0, 447.0, 447.0]	[0.012473713140934706, 0.018312216736376286, 0.023245163611136377, 0.040136717609129846, 0.05702690628822893, 0.07348360191099346, 0.09044205723330379, 0.10678133415058255, 0.12367357080802321, 0.14015279442537576, 0.15710203372873366, 0.17343892133794725, 0.19044550461694598, 0.20679365622345358, 0.22375893825665116, 0.2401750151766464, 0.2571007024962455, 0.2735133661190048, 0.29044041875749826, 0.3066243891371414, 0.3237849137512967, 0.3401194120524451, 0.35710073669906706, 0.3734929203055799, 0.3905530928168446, 0.4067773405695334, 0.42372350790537894, 0.4401723528280854, 0.45720248809084296, 0.4734478984028101, 0.49035720177926123, 0.5067855666857213, 0.5237129606539384, 0.5401317682117224, 0.5570547248935327, 0.5734827484702691, 0.5903391452739015, 0.6065610036021098, 0.6237570267403498, 0.640152623760514, 0.6570803590584546, 0.6736271665431559, 0.6904098353115842, 0.7067948509939015, 0.7237847088836133, 0.7401185245253146, 0.7570070065557957, 0.773487254162319, 0.7904255707981065, 0.8065784798236564, 0.8236956550972536, 0.8401264093117788, 0.85703571268823, 0.87353507487569, 0.89048260753043, 0.9065334580373019, 0.9236960305133834, 0.9401158621767536, 0.9570965041639283, 0.9735142877325416, 0.9904232496628538, 1.0065109641291201, 1.0235414407216012, 1.040124429622665, 1.057110874215141, 1.073519441881217, 1.0904482011683285, 1.10662397951819, 1.1236264668405056, 1.1401166131254286, 1.1570948656881228, 1.1734153693541884]
6	animate/a66.jpg	inanimate	animate	right	1.283	[0.0, 0.0, 0.0, 0.0, 0.0, 0.0, 0.0, 0.0, 0.0, 0.0, 0.0, 0.0, 0.0, 0.0, 0.0, 0.0, 0.0, 0.0, 0.0, 0.0, 0.0, 0.0, 0.0, 0.0, 0.0, 0.0, 0.0, 0.0, 0.0, 0.0, 0.0, 0.0, 0.0, 0.0, 0.0, 0.0, 0.0, 0.0, 1.0, 10.0, 13.0, 13.0, 13.0, 13.0, 13.0, 57.0, 87.0, 192.0, 271.0, 357.0, 446.0, 525.0, 582.0, 613.0, 633.0, 646.0, 659.0, 670.0, 672.0, 673.0, 673.0, 673.0, 673.0, 673.0, 673.0, 673.0, 673.0, 673.0, 673.0, 673.0, 674.0, 680.0, 685.0, 689.0, 690.0, 691.0, 691.0]	[-490.0, -490.0, -490.0, -490.0, -490.0, -490.0, -490.0, -490.0, -490.0, -490.0, -490.0, -490.0, -490.0, -490.0, -490.0, -490.0, -490.0, -490.0, -490.0, -490.0, -490.0, -490.0, -490.0, -490.0, -490.0, -490.0, -490.0, -490.0, -490.0, -490.0, -490.0, -490.0, -490.0, -490.0, -490.0, -490.0, -490.0, -490.0, -490.0, -479.0, -476.0, -476.0, -476.0, -476.0, -475.0, -413.0, -370.0, -193.0, -43.0, 135.0, 298.0, 407.0, 469.0, 492.0, 503.0, 512.0, 518.0, 524.0, 525.0, 526.0, 526.0, 526.0, 526.0, 526.0, 526.0, 526.0, 526.0, 526.0, 526.0, 525.0, 521.0, 518.0, 515.0, 512.0, 511.0, 510.0, 510.0]	[0.0056398819433525205, 0.011315569747239351, 0.026271764654666185, 0.04256393772084266, 0.05963264359161258, 0.07604291790630668, 0.093038578517735, 0.10938877810258418, 0.12630251876544207, 0.14270699047483504, 0.15973064035642892, 0.17615115467924625, 0.1930194980232045, 0.20945742027834058, 0.22639437159523368, 0.24271931254770607, 0.25964670651592314, 0.2760655141901225, 0.2930215800879523, 0.30942673434037715, 0.32638826174661517, 0.34250772011000663, 0.35959178605116904, 0.3760297083063051, 0.3930182008771226, 0.40916223532985896, 0.42628453054931015, 0.4426982181612402, 0.4596481401240453, 0.47604237170889974, 0.4930240376852453, 0.5094517199322581, 0.5263371299952269, 0.5428286415990442, 0.5596969849430025, 0.5760966778034344, 0.5930250958772376, 0.6094742821296677, 0.6263753934763372, 0.6427283236989751, 0.659664592356421, 0.6758748454740271, 0.6930142072960734, 0.7093913722783327, 0.7264208248816431, 0.7427246031584218, 0.759664285229519, 0.7760677328333259, 0.7930098040960729, 0.8094791290350258, 0.8263399630086496, 0.8426317947451025, 0.8595970766618848, 0.8760687909089029, 0.8930586489150301, 0.909432400483638, 0.9264127011410892, 0.9427021434530616, 0.9597278414294124, 0.9759469691198319, 0.9931095417123288, 1.010041031637229, 1.0263011193601415, 1.0427154896315187, 1.0596186489565298, 1.0760845604818314, 1.093036871869117, 1.1094027728540823, 1.1263612281763926, 1.142683438374661, 1.159659643075429, 1.176181533257477, 1.1930075513664633, 1.209453324205242, 1.2263950542546809, 1.242715216591023, 1.2597484238212928]
7	animate/a7.jpg	inanimate	animate	right	0.804	[0.0, 0.0, 0.0, 0.0, 0.0, 0.0, 0.0, 0.0, 0.0, 0.0, 0.0, 0.0, 0.0, 0.0, 0.0, 0.0, 0.0, 0.0, 0.0, -1.0, -3.0, -4.0, -6.0, -11.0, -17.0, -27.0, -42.0, -67.0, -89.0, -86.0, 13.0, 221.0, 453.0, 647.0, 848.0, 898.0, 917.0, 924.0, 924.0, 924.0, 920.0, 915.0, 913.0, 913.0, 912.0, 907.0, 906.0, 906.0]	[-490.0, -490.0, -490.0, -490.0, -490.0, -490.0, -490.0, -490.0, -490.0, -490.0, -490.0, -490.0, -490.0, -490.0, -490.0, -490.0, -490.0, -490.0, -490.0, -490.0, -489.0, -489.0, -489.0, -485.0, -474.0, -451.0, -401.0, -315.0, -184.0, -46.0, 95.0, 199.0, 268.0, 300.0, 324.0, 348.0, 366.0, 385.0, 400.0, 408.0, 415.0, 420.0, 422.0, 422.0, 422.0, 421.0, 420.0, 420.0]	[0.005199903505854309, 0.0108673992799595, 0.025674773030914366, 0.04203452996443957, 0.059058179962448776, 0.07536366488784552, 0.09237912285607308, 0.10870406380854547, 0.12567958584986627, 0.1420243241591379, 0.15898107271641493, 0.17535209376364946, 0.19236072502098978, 0.20877748460043222, 0.2257270652335137, 0.2420421076240018, 0.25894594960846007, 0.27536817046348006, 0.2923597351182252, 0.308647129451856, 0.3256823847768828, 0.34182061650790274, 0.3589623677544296, 0.3751374634448439, 0.3922597586642951, 0.4087529769167304, 0.42574795486871153, 0.4419780052267015, 0.45891768718138337, 0.47537779610138386, 0.4922727633966133, 0.5087018110789359, 0.5255954130552709, 0.5418705194024369, 0.5589549266733229, 0.5752170623745769, 0.5923639335669577, 0.6088107303949073, 0.62567190581467, 0.6420736467698589, 0.6590860326541588, 0.6755048403283581, 0.6922605436993763, 0.708762977970764, 0.7257466919254512, 0.7418576170457527, 0.7589734268840402, 0.7754649384878576]
8	inanimate/n45.jpg	animate	inanimate	left	0.742	[0.0, 0.0, 0.0, 0.0, 0.0, 0.0, 0.0, 0.0, 0.0, 0.0, 0.0, 0.0, 0.0, 0.0, 0.0, 0.0, 0.0, 0.0, 0.0, 0.0, -1.0, -5.0, -9.0, -13.0, -16.0, -17.0, -18.0, -22.0, -30.0, -71.0, -132.0, -230.0, -363.0, -515.0, -667.0, -770.0, -821.0, -832.0, -836.0, -838.0, -838.0, -838.0, -838.0, -838.0]	[-490.0, -490.0, -490.0, -490.0, -490.0, -490.0, -490.0, -490.0, -490.0, -490.0, -490.0, -490.0, -490.0, -490.0, -490.0, -490.0, -490.0, -490.0, -490.0, -490.0, -489.0, -489.0, -489.0, -489.0, -487.0, -487.0, -486.0, -483.0, -467.0, -387.0, -280.0, -129.0, 55.0, 229.0, 377.0, 452.0, 492.0, 508.0, 518.0, 524.0, 526.0, 526.0, 526.0, 526.0]	[0.005850825808010995, 0.011848732130602002, 0.026744511094875634, 0.04327766539063305, 0.06038835528306663, 0.07663786155171692, 0.09381374611984938, 0.11014619644265622, 0.12702716910280287, 0.14319851016625762, 0.16029349877499044, 0.17651467444375157, 0.19368339097127318, 0.209920609369874, 0.2268701900029555, 0.24318830436095595, 0.26017611427232623, 0.27673043112736195, 0.29369366518221796, 0.310183470021002, 0.32713987736497074, 0.34337607165798545, 0.36036524700466543, 0.37683388928417116, 0.3936684406362474, 0.4100398028967902, 0.4270033781649545, 0.4433593804715201, 0.4603471904993057, 0.4767117260489613, 0.4935718774795532, 0.5101418956182897, 0.5271870496217161, 0.5433932066662237, 0.5604100299533457, 0.5766411043005064, 0.5937360927928239, 0.6100613751914352, 0.6270153931109235, 0.6431259769015014, 0.6601697654696181, 0.6768193142488599, 0.6936996043659747, 0.7101156812859699]
9	animate/a54.jpg	animate	inanimate	left	1.123	[0.0, 0.0, 0.0, 0.0, 0.0, 0.0, 0.0, 0.0, 0.0, 0.0, 0.0, 0.0, 0.0, 0.0, 0.0, 0.0, 0.0, 0.0, 0.0, 0.0, 0.0, 0.0, 0.0, 0.0, 0.0, 0.0, 0.0, 0.0, 0.0, 0.0, 0.0, 0.0, 0.0, -3.0, -11.0, -18.0, -27.0, -40.0, -60.0, -84.0, -121.0, -171.0, -247.0, -339.0, -444.0, -543.0, -652.0, -716.0, -779.0, -814.0, -825.0, -828.0, -828.0, -828.0, -828.0, -828.0, -828.0, -828.0, -828.0, -828.0, -821.0, -818.0, -814.0, -809.0, -807.0, -804.0, -804.0, -804.0]	[-490.0, -490.0, -490.0, -490.0, -490.0, -490.0, -490.0, -490.0, -490.0, -490.0, -490.0, -490.0, -490.0, -490.0, -490.0, -490.0, -490.0, -490.0, -493.0, -495.0, -495.0, -495.0, -495.0, -495.0, -495.0, -495.0, -495.0, -495.0, -495.0, -495.0, -495.0, -495.0, -495.0, -488.0, -462.0, -435.0, -400.0, -354.0, -304.0, -252.0, -188.0, -110.0, -12.0, 72.0, 140.0, 182.0, 214.0, 238.0, 272.0, 301.0, 310.0, 318.0, 329.0, 336.0, 337.0, 337.0, 337.0, 337.0, 337.0, 337.0, 348.0, 364.0, 385.0, 403.0, 411.0, 415.0, 415.0, 415.0]	[0.016079454100690782, 0.02490940154530108, 0.030585430678911507, 0.047468109987676144, 0.06369372305925936, 0.0808931594947353, 0.09723584982566535, 0.1142769077559933, 0.13042264885734767, 0.14739987743087113, 0.16395112231839448, 0.18095429230015725, 0.1973099532769993, 0.21431517123710364, 0.23062509356532246, 0.24752586358226836, 0.2639532044995576, 0.2809297504136339, 0.2972980407066643, 0.31419608008582145, 0.33060635440051556, 0.3475743669550866, 0.3639334412291646, 0.3810448138974607, 0.3973103628959507, 0.4142189834965393, 0.4306671457597986, 0.44758532382547855, 0.46372492087539285, 0.4808796427678317, 0.4973400930175558, 0.5142398390453309, 0.5306221239734441, 0.5475952565902844, 0.5638928909320384, 0.5809226848650724, 0.5973694818094373, 0.6142671797424555, 0.6305170274572447, 0.647572421352379, 0.6639390049967915, 0.6809179403353482, 0.6972708706744015, 0.7142262539127842, 0.730594202876091, 0.7475642635254189, 0.7639185591833666, 0.7808739424217492, 0.7973306380445138, 0.8142539360560477, 0.8305491810897365, 0.847537673660554, 0.8638663693564013, 0.88089377398137, 0.8973282828228548, 0.9142700128722936, 0.9306034871842712, 0.9475226891227067, 0.9637049528537318, 0.9808774241246283, 0.9972784823039547, 1.0144004361936823, 1.0305881613167003, 1.0476278539281338, 1.0636824590619653, 1.080808508908376, 1.0972764685284346, 1.114205227815546]
10	animate/a35.jpg	animate	inanimate	left	1.275	[0.0, 0.0, 0.0, 0.0, 0.0, 0.0, 0.0, 0.0, 0.0, 0.0, 0.0, 0.0, 0.0, 0.0, 0.0, 0.0, 0.0, 0.0, 0.0, 0.0, 0.0, 0.0, 0.0, 0.0, 0.0, 0.0, 0.0, 0.0, 0.0, 0.0, 0.0, 0.0, 0.0, 16.0, 92.0, 194.0, 304.0, 406.0, 548.0, 638.0, 706.0, 737.0, 739.0, 739.0, 734.0, 674.0, 549.0, 360.0, 136.0, -193.0, -417.0, -622.0, -792.0, -914.0, -960.0, -960.0, -960.0, -960.0, -960.0, -960.0, -960.0, -960.0, -960.0, -960.0, -960.0, -960.0, -960.0, -960.0, -960.0, -943.0, -919.0, -900.0, -883.0, -872.0, -861.0, -857.0, -857.0]	[-490.0, -490.0, -490.0, -490.0, -490.0, -490.0, -490.0, -490.0, -490.0, -490.0, -490.0, -490.0, -490.0, -490.0, -490.0, -490.0, -490.0, -490.0, -490.0, -490.0, -490.0, -490.0, -490.0, -490.0, -490.0, -490.0, -490.0, -490.0, -490.0, -490.0, -490.0, -490.0, -488.0, -450.0, -346.0, -218.0, -86.0, 39.0, 222.0, 344.0, 435.0, 468.0, 471.0, 471.0, 472.0, 466.0, 448.0, 441.0, 441.0, 441.0, 441.0, 443.0, 469.0, 485.0, 494.0, 494.0, 494.0, 494.0, 494.0, 494.0, 494.0, 494.0, 494.0, 494.0, 494.0, 494.0, 494.0, 494.0, 494.0, 493.0, 491.0, 485.0, 480.0, 477.0, 473.0, 472.0, 472.0]	[0.00042704190127551556, 0.007786867441609502, 0.015909914043731987, 0.032901819911785424, 0.04905541171319783, 0.06617361097596586, 0.08261358120944351, 0.09954063384793699, 0.11590892414096743, 0.13286533148493618, 0.14931315241847187, 0.16624157037585974, 0.18257470335811377, 0.19951472664251924, 0.21568675036542118, 0.23283328022807837, 0.24924662651028484, 0.26626993517857045, 0.2825856601120904, 0.29955299012362957, 0.31578099250327796, 0.33282887702807784, 0.34927328466437757, 0.36628567066509277, 0.3826061742147431, 0.3996165122371167, 0.415720610646531, 0.43284734315238893, 0.4493258841102943, 0.46627648873254657, 0.48256695503368974, 0.4995950423181057, 0.5159503619652241, 0.5329398786416277, 0.5492713049752638, 0.5662710615433753, 0.5826304771471769, 0.5996421804884449, 0.6159336707787588, 0.6328781314659864, 0.6490347951184958, 0.6663274156162515, 0.6823540314799175, 0.6994497027480975, 0.7159429208841175, 0.7329890988767147, 0.7492727384669706, 0.7661868205759674, 0.7825144921662286, 0.7995773954316974, 0.815961045678705, 0.8329143810551614, 0.8493871192913502, 0.8663384065730497, 0.8826548142824322, 0.8996228268370032, 0.915947426459752, 0.9328202072065324, 0.9492536921752617, 0.9662261421326548, 0.9823469658149406, 0.9994146478129551, 1.0159501913003623, 1.0329069399740547, 1.0493032195372507, 1.0662855681730434, 1.0825715971877798, 1.0994901165831834, 1.1159150680759922, 1.1327977475011721, 1.1492373764049262, 1.166216311743483, 1.1823531781556085, 1.1995051692938432, 1.2159413849003613, 1.2327967575984076, 1.2492858798941597]
11	inanimate/n71.jpg	animate	inanimate	right	1.164	[0.0, 0.0, 0.0, 0.0, 0.0, 0.0, 0.0, 0.0, 0.0, 0.0, 0.0, 0.0, 0.0, 0.0, 0.0, 0.0, 0.0, 0.0, 0.0, 0.0, 0.0, 0.0, 0.0, 0.0, 0.0, 0.0, 0.0, 0.0, 0.0, 0.0, 0.0, 0.0, 0.0, 0.0, 0.0, 0.0, 0.0, 0.0, 0.0, 0.0, 0.0, 0.0, 0.0, 1.0, 47.0, 120.0, 254.0, 352.0, 446.0, 518.0, 582.0, 632.0, 653.0, 656.0, 656.0, 656.0, 656.0, 656.0, 656.0, 656.0, 656.0, 656.0, 656.0, 656.0, 656.0, 665.0, 681.0, 694.0, 699.0, 699.0]	[-490.0, -490.0, -490.0, -490.0, -490.0, -490.0, -490.0, -490.0, -490.0, -490.0, -490.0, -490.0, -490.0, -490.0, -490.0, -490.0, -490.0, -490.0, -490.0, -490.0, -490.0, -490.0, -490.0, -490.0, -490.0, -490.0, -490.0, -490.0, -490.0, -490.0, -490.0, -490.0, -490.0, -490.0, -490.0, -490.0, -490.0, -490.0, -490.0, -490.0, -490.0, -490.0, -490.0, -476.0, -396.0, -268.0, -45.0, 85.0, 189.0, 258.0, 313.0, 352.0, 367.0, 370.0, 370.0, 370.0, 370.0, 370.0, 370.0, 370.0, 370.0, 370.0, 370.0, 370.0, 370.0, 381.0, 398.0, 406.0, 409.0, 409.0]	[0.015187653014436364, 0.02332264615688473, 0.028222825028933585, 0.0456601707264781, 0.06204177299514413, 0.07902412163093686, 0.09539855597540736, 0.11232560861390084, 0.1286925335880369, 0.14570457814261317, 0.16206023911945522, 0.17900640645530075, 0.19533919810783118, 0.21231506136246026, 0.22877824236638844, 0.2469344356795773, 0.2620206786086783, 0.2790071233175695, 0.29507504031062126, 0.3122287382138893, 0.3286386711988598, 0.34570601175073534, 0.36184526747092605, 0.3788767681689933, 0.395079170470126, 0.41206902847625315, 0.42869843856897205, 0.4456838592886925, 0.46199924289248884, 0.4788952342933044, 0.49531984445638955, 0.5122605505166575, 0.5286684354068711, 0.5455968534806743, 0.5620228290790692, 0.5789031190797687, 0.5951669614296407, 0.6121469206409529, 0.628721717512235, 0.645717719453387, 0.6620054551167414, 0.6788867692230269, 0.695322984829545, 0.712341514765285, 0.7286575810285285, 0.7455972629832104, 0.7620037826709449, 0.7788898752769455, 0.795312778907828, 0.8123405248625204, 0.8284210712881759, 0.8456566891400144, 0.8619826540816575, 0.8789656853768975, 0.8953165677376091, 0.9122903830138966, 0.9286682306556031, 0.945585384615697, 0.9619779095519334, 0.979001218220219, 0.9954295831266791, 1.0123818943975493, 1.0286399341421202, 1.0456396907102317, 1.0619970583356917, 1.078950393712148, 1.0952036547241732, 1.1122962539084256, 1.1286461122799665, 1.1456707861507311]
12	inanimate/n49.jpg	inanimate	animate	left	1.195	[0.0, 0.0, 0.0, 0.0, 0.0, 0.0, 0.0, 0.0, 0.0, 0.0, 0.0, 0.0, -5.0, -5.0, -5.0, -5.0, -5.0, -5.0, -5.0, -5.0, -5.0, -5.0, -5.0, -5.0, -5.0, -7.0, -9.0, -13.0, -15.0, -19.0, -19.0, -19.0, -8.0, 18.0, 65.0, 195.0, 330.0, 489.0, 643.0, 762.0, 822.0, 841.0, 842.0, 842.0, 842.0, 842.0, 832.0, 791.0, 590.0, 392.0, 173.0, -28.0, -211.0, -341.0, -391.0, -406.0, -408.0, -408.0, -408.0, -408.0, -413.0, -427.0, -462.0, -519.0, -595.0, -669.0, -726.0, -767.0, -787.0, -793.0, -793.0, -793.0]	[-490.0, -490.0, -490.0, -490.0, -490.0, -490.0, -490.0, -490.0, -490.0, -490.0, -490.0, -490.0, -490.0, -490.0, -490.0, -490.0, -490.0, -490.0, -490.0, -490.0, -490.0, -490.0, -490.0, -490.0, -490.0, -490.0, -489.0, -486.0, -484.0, -480.0, -461.0, -407.0, -297.0, -174.0, -35.0, 184.0, 303.0, 386.0, 431.0, 447.0, 447.0, 449.0, 449.0, 449.0, 450.0, 451.0, 453.0, 453.0, 405.0, 369.0, 365.0, 377.0, 404.0, 420.0, 424.0, 424.0, 424.0, 424.0, 424.0, 424.0, 424.0, 424.0, 424.0, 424.0, 424.0, 424.0, 424.0, 424.0, 424.0, 424.0, 424.0, 424.0]	[0.013008240959607065, 0.018591427360661328, 0.024234347161836922, 0.041135799838230014, 0.05808333249296993, 0.07454275875352323, 0.09146537410560995, 0.10755445389077067, 0.12461906380485743, 0.14113344461657107, 0.1581192066660151, 0.17447111289948225, 0.191379050957039, 0.2076149039203301, 0.22470613790210336, 0.24116795347072184, 0.2580953474389389, 0.2745049389777705, 0.29146373562980443, 0.3077320153824985, 0.3246914946939796, 0.3412499075056985, 0.3582121174549684, 0.3744780078995973, 0.39144124183803797, 0.4075415856204927, 0.42460619553457946, 0.44121239497326314, 0.45815207704436034, 0.47446302336174995, 0.491414651973173, 0.5078099075471982, 0.524861546815373, 0.5410680451896042, 0.558151769801043, 0.5745118680642918, 0.591346419416368, 0.6077665924094617, 0.6249353089369833, 0.6412025645840913, 0.6581333719659597, 0.6745119022671133, 0.691383317578584, 0.70785673847422, 0.7248107565101236, 0.7411524227354676, 0.7581832407740876, 0.7744989657076076, 0.7915178369730711, 0.8077888473635539, 0.8248070359695703, 0.8409991982625797, 0.8580723415361717, 0.8744819331914186, 0.8914851031731814, 0.9076264068717137, 0.9247995606856421, 0.9410801284248009, 0.9581812609685585, 0.9742508847266436, 0.9914342786651105, 1.0077172355959192, 1.0247388376155868, 1.0412238638382405, 1.0581478445092216, 1.0743451268645003, 1.0914708353811875, 1.1077234137337655, 1.1247607170371339, 1.1411853273166344, 1.1581738198874518, 1.1744984195102006]
13	animate/a10.jpg	animate	inanimate	left	1.006	[0.0, 0.0, 0.0, 0.0, 0.0, 0.0, 0.0, 0.0, 0.0, 0.0, 0.0, 0.0, 0.0, 0.0, 0.0, 0.0, 0.0, 0.0, -2.0, -20.0, -27.0, -27.0, -27.0, -27.0, -27.0, -27.0, -27.0, -27.0, -27.0, -27.0, -27.0, -27.0, -27.0, -27.0, -27.0, -27.0, -18.0, -10.0, 1.0, 12.0, 30.0, 83.0, 180.0, 277.0, 366.0, 441.0, 505.0, 541.0, 543.0, 514.0, 405.0, 218.0, -48.0, -342.0, -621.0, -829.0, -932.0, -954.0, -955.0, -955.0]	[-490.0, -490.0, -490.0, -490.0, -490.0, -490.0, -490.0, -490.0, -490.0, -490.0, -490.0, -490.0, -490.0, -490.0, -490.0, -490.0, -490.0, -490.0, -491.0, -505.0, -510.0, -510.0, -510.0, -510.0, -510.0, -510.0, -510.0, -510.0, -510.0, -510.0, -510.0, -510.0, -510.0, -510.0, -510.0, -510.0, -504.0, -493.0, -481.0, -462.0, -436.0, -377.0, -269.0, -163.0, -49.0, 60.0, 169.0, 245.0, 271.0, 283.0, 296.0, 303.0, 303.0, 305.0, 326.0, 358.0, 373.0, 383.0, 384.0, 384.0]	[0.005359306116588414, 0.012285638484172523, 0.026087444741278887, 0.04300835344474763, 0.0591141585027799, 0.0762238244060427, 0.0926457040477544, 0.10960279405117035, 0.1259427536278963, 0.1428680996177718, 0.15909303002990782, 0.17624911724124104, 0.19259249023161829, 0.20960282813757658, 0.22575710259843618, 0.24286710983142257, 0.2592978640459478, 0.27622935408726335, 0.2926229030126706, 0.30957657960243523, 0.3259288272820413, 0.3429797838907689, 0.3591808208730072, 0.37631915882229805, 0.3923652305966243, 0.4094254032243043, 0.42570665350649506, 0.44270777550991625, 0.4590347644407302, 0.4762567289872095, 0.49259873665869236, 0.509537735953927, 0.5259565435117111, 0.542892812169157, 0.5590634705731645, 0.576312059070915, 0.592635634704493, 0.609589311410673, 0.6259736443171278, 0.6429935395717621, 0.6593201872892678, 0.6763069732114673, 0.6925854928558692, 0.7096200655214489, 0.7257128999335691, 0.7428601124556735, 0.7590870908461511, 0.7763029113411903, 0.7925944016315043, 0.8095798223512247, 0.8256921126740053, 0.842924999888055, 0.8590939516434446, 0.8762773454654962, 0.8923903185641393, 0.9094682404538617, 0.9259478054009378, 0.9428601807449013, 0.9593069776892662, 0.9762278862763196]
14	inanimate/n41.jpg	animate	inanimate	right	1.491	[0.0, 0.0, 0.0, 0.0, 0.0, 0.0, 0.0, 0.0, 0.0, 0.0, 0.0, 0.0, 0.0, 0.0, 0.0, 0.0, 0.0, 0.0, 0.0, 0.0, 0.0, 0.0, 0.0, 0.0, 0.0, 0.0, 0.0, 0.0, 0.0, 0.0, -1.0, -4.0, -7.0, -9.0, -9.0, -9.0, -9.0, -9.0, -10.0, 3.0, 54.0, 152.0, 275.0, 408.0, 532.0, 633.0, 704.0, 742.0, 754.0, 755.0, 755.0, 755.0, 755.0, 755.0, 755.0, 755.0, 755.0, 755.0, 755.0, 755.0, 755.0, 755.0, 755.0, 755.0, 755.0, 755.0, 755.0, 755.0, 755.0, 755.0, 755.0, 755.0, 755.0, 755.0, 755.0, 755.0, 755.0, 755.0, 755.0, 755.0, 755.0, 755.0, 755.0, 755.0, 755.0, 755.0, 755.0, 755.0, 755.0, 755.0]	[-490.0, -490.0, -490.0, -490.0, -490.0, -490.0, -490.0, -490.0, -490.0, -490.0, -490.0, -490.0, -490.0, -490.0, -490.0, -490.0, -490.0, -490.0, -490.0, -490.0, -490.0, -490.0, -490.0, -490.0, -490.0, -490.0, -490.0, -490.0, -490.0, -490.0, -490.0, -490.0, -491.0, -491.0, -491.0, -491.0, -491.0, -491.0, -490.0, -457.0, -369.0, -231.0, -60.0, 119.0, 276.0, 382.0, 433.0, 450.0, 454.0, 454.0, 454.0, 454.0, 454.0, 454.0, 454.0, 454.0, 454.0, 454.0, 454.0, 454.0, 454.0, 454.0, 454.0, 454.0, 454.0, 454.0, 454.0, 454.0, 454.0, 454.0, 454.0, 454.0, 454.0, 454.0, 454.0, 454.0, 454.0, 454.0, 454.0, 454.0, 454.0, 454.0, 454.0, 454.0, 454.0, 454.0, 454.0, 454.0, 454.0, 454.0]	[0.0023468020372092724, 0.007824516505934298, 0.019561939872801304, 0.036586955189704895, 0.05298084544483572, 0.06982495414558798, 0.08625058841425925, 0.10322099039331079, 0.11936058744322509, 0.1364562587114051, 0.15268562640994787, 0.16986321762669832, 0.1862612038385123, 0.20324662455823272, 0.21957600279711187, 0.23656586080323905, 0.2528109297854826, 0.2699294703779742, 0.28630834200885147, 0.3031766853528097, 0.31952313031069934, 0.33649489760864526, 0.3529232625151053, 0.36988171783741564, 0.3862622961169109, 0.40323815948795527, 0.41945455642417073, 0.43647684110328555, 0.4530396913178265, 0.46994831191841513, 0.4862770076142624, 0.5031955268932506, 0.5196580251213163, 0.5366977177327499, 0.5527045362396166, 0.5697732422268018, 0.5863067377358675, 0.6032269636634737, 0.6195092380512506, 0.6366090052761137, 0.6530182556016371, 0.6698954736348242, 0.6862535239197314, 0.7032580592203885, 0.7193495283136144, 0.7364800154464319, 0.7530234096338972, 0.7699364676373079, 0.7860460274387151, 0.8030560240149498, 0.8195250076241791, 0.8365701616276056, 0.8528654065448791, 0.869893493829295, 0.8861320775467902, 0.9031017968663946, 0.9196209564106539, 0.9365568837383762, 0.9526746354531497, 0.9697426587808877, 0.9862543089548126, 1.0032383642392233, 1.0193243720568717, 1.036321739316918, 1.0528900508070365, 1.0699034607969224, 1.0862751643871889, 1.1031639877473935, 1.1193875527242199, 1.136566167930141, 1.152891791658476, 1.1698953029699624, 1.1862939718412235, 1.203281099209562, 1.219587949453853, 1.2365006661275402, 1.2527617778396234, 1.269793619750999, 1.2862571419682354, 1.3032824986148626, 1.319518351694569, 1.3364894363330677, 1.3526891079964116, 1.369789557880722, 1.3862827761331573, 1.4032968687824905, 1.4195798257132992, 1.4364256410626695, 1.453050613985397, 1.4699083759915084]
15	inanimate/n79.jpg	inanimate	animate	left	1.294	[0.0, 0.0, 0.0, 0.0, 0.0, 0.0, 0.0, 0.0, 0.0, 0.0, 0.0, 0.0, 0.0, 0.0, 0.0, 0.0, 0.0, 0.0, 0.0, 0.0, 0.0, 0.0, 0.0, 0.0, 0.0, 0.0, 0.0, 0.0, 0.0, 0.0, 0.0, 0.0, 0.0, 0.0, 0.0, 0.0, 0.0, 0.0, 0.0, 0.0, 0.0, 0.0, 0.0, 0.0, 0.0, 0.0, 0.0, 0.0, 0.0, 0.0, 0.0, 0.0, -17.0, -88.0, -197.0, -321.0, -513.0, -619.0, -700.0, -756.0, -773.0, -774.0, -774.0, -774.0, -774.0, -774.0, -774.0, -774.0, -774.0, -774.0, -774.0, -770.0, -765.0, -755.0, -743.0, -736.0, -734.0, -734.0]	[-490.0, -490.0, -490.0, -490.0, -490.0, -490.0, -490.0, -490.0, -490.0, -490.0, -490.0, -490.0, -490.0, -490.0, -490.0, -490.0, -490.0, -490.0, -490.0, -490.0, -490.0, -490.0, -490.0, -490.0, -490.0, -490.0, -490.0, -490.0, -490.0, -490.0, -490.0, -490.0, -490.0, -490.0, -490.0, -490.0, -490.0, -490.0, -490.0, -490.0, -490.0, -490.0, -490.0, -490.0, -490.0, -490.0, -490.0, -490.0, -490.0, -490.0, -490.0, -490.0, -409.0, -245.0, -65.0, 95.0, 225.0, 259.0, 270.0, 282.0, 294.0, 300.0, 302.0, 302.0, 302.0, 302.0, 302.0, 302.0, 303.0, 303.0, 305.0, 328.0, 355.0, 392.0, 428.0, 443.0, 446.0, 446.0]	[0.013554271426983178, 0.01963955897372216, 0.02535484137479216, 0.0425832913024351, 0.05897922953590751, 0.07598444749601185, 0.09227832709439099, 0.10922176379244775, 0.12560234207194299, 0.14268128795083612, 0.15878504514694214, 0.17584282835014164, 0.19219132128637284, 0.20922111521940678, 0.2253494483884424, 0.24253796227276325, 0.258938679122366, 0.27599680377170444, 0.29212445416487753, 0.30917336279526353, 0.325597973074764, 0.3425874896347523, 0.3589339345926419, 0.3760081018554047, 0.3922944721998647, 0.40928740217350423, 0.4256891431286931, 0.44260902772657573, 0.4589513767277822, 0.475880136131309, 0.49209311977028847, 0.5091945936437696, 0.5253676413558424, 0.5425264593213797, 0.5589353682007641, 0.575887338258326, 0.5920672125648707, 0.6091966758249328, 0.6253813288640231, 0.6424636881565675, 0.6589534929953516, 0.6759187750285491, 0.692054276005365, 0.7091799846384674, 0.7256045949179679, 0.7426214182050899, 0.7589405564358458, 0.7758744357852265, 0.7923253286862746, 0.809338397346437, 0.8256295463070273, 0.842626913683489, 0.8589450279250741, 0.8759075793204829, 0.8922987388214096, 0.9091769808437675, 0.9256425511557609, 0.9426307023968548, 0.9589652006980032, 0.9759816826554015, 0.9923796689836308, 1.0092476709978655, 1.0257098278962076, 1.0426809125347063, 1.058977181557566, 1.075878634233959, 1.0922380498377606, 1.109243267797865, 1.1256255527259782, 1.1427099599968642, 1.1589188476791605, 1.1759636603528634, 1.1923855398781598, 1.2093330725328997, 1.2256047655828297, 1.2425843835808337, 1.2589321938576177, 1.2759418491041288]
16	inanimate/n72.jpg	inanimate	animate	left	1.447	[0.0, 0.0, 0.0, 0.0, 0.0, 0.0, 0.0, 0.0, 0.0, 0.0, 0.0, 0.0, 0.0, 0.0, 0.0, 0.0, 0.0, 0.0, 0.0, 0.0, 0.0, 0.0, 0.0, 0.0, 0.0, 0.0, 0.0, 0.0, 0.0, 0.0, 0.0, 0.0, 0.0, 0.0, 0.0, 0.0, -1.0, -2.0, -4.0, -9.0, -14.0, -14.0, -14.0, -14.0, -17.0, -23.0, -31.0, -43.0, -70.0, -130.0, -231.0, -351.0, -506.0, -680.0, -812.0, -866.0, -866.0, -859.0, -855.0, -850.0, -849.0, -848.0, -843.0, -831.0, -815.0, -802.0, -798.0, -798.0, -798.0, -798.0, -798.0, -798.0, -798.0, -798.0, -798.0, -798.0, -798.0, -798.0, -798.0, -798.0, -798.0, -798.0, -798.0, -798.0, -798.0, -798.0, -798.0]	[-490.0, -490.0, -490.0, -490.0, -490.0, -490.0, -490.0, -490.0, -490.0, -490.0, -490.0, -490.0, -490.0, -490.0, -490.0, -490.0, -490.0, -490.0, -490.0, -490.0, -490.0, -490.0, -490.0, -490.0, -490.0, -490.0, -490.0, -490.0, -490.0, -490.0, -490.0, -490.0, -490.0, -490.0, -490.0, -490.0, -492.0, -499.0, -504.0, -517.0, -524.0, -524.0, -524.0, -524.0, -524.0, -524.0, -524.0, -524.0, -518.0, -477.0, -370.0, -228.0, -51.0, 159.0, 335.0, 432.0, 442.0, 451.0, 454.0, 456.0, 457.0, 457.0, 457.0, 455.0, 451.0, 447.0, 446.0, 446.0, 446.0, 446.0, 446.0, 446.0, 446.0, 446.0, 446.0, 446.0, 446.0, 446.0, 446.0, 446.0, 446.0, 446.0, 446.0, 446.0, 446.0, 446.0, 446.0]	[0.0053389284294098616, 0.011249453411437571, 0.025535270106047392, 0.0424206800526008, 0.05861489044036716, 0.0756931536598131, 0.09231164120137691, 0.10927282716147602, 0.1256121041951701, 0.1425732901552692, 0.15885624708607793, 0.1757856891490519, 0.19218913675285876, 0.2091223334427923, 0.2253953916952014, 0.24247160693630576, 0.2588665212970227, 0.27585603785701096, 0.2922233041608706, 0.3092384207993746, 0.3253783591790125, 0.34245764650404453, 0.358648102148436, 0.3758209147490561, 0.392306623631157, 0.40922411892097443, 0.42551083059515804, 0.44252253393642604, 0.45867237099446356, 0.47576804214622825, 0.4922250790987164, 0.5091435984941199, 0.5255166674032807, 0.5425768400309607, 0.558723263675347, 0.5758366843219846, 0.5922169212717563, 0.609184592613019, 0.6252948349574581, 0.6424666235689074, 0.6586116818943992, 0.6757592358626425, 0.6923412006581202, 0.7092419706750661, 0.7256385915679857, 0.7426922788145021, 0.759040430537425, 0.7758558671921492, 0.792123464285396, 0.8092413221020252, 0.8256212177220732, 0.8425632891012356, 0.8589274833211675, 0.8758992506191134, 0.8922200956149027, 0.9090976549778134, 0.9255321639357135, 0.9426046245498583, 0.9589903227752075, 0.9758815354434773, 0.9922395857283846, 1.009208281058818, 1.0255304913735017, 1.042568818666041, 1.0589241383131593, 1.0758262736489996, 1.0921976359095424, 1.1091799845453352, 1.1255209682276472, 1.1424084262689576, 1.1588671697536483, 1.1758256250759587, 1.1921754834474996, 1.2092175653669983, 1.2256472955923527, 1.2425248549552634, 1.2589143079239875, 1.275876859202981, 1.2920485415961593, 1.3091268048156053, 1.3255346898222342, 1.342460718471557, 1.358919462072663, 1.3759130747057498, 1.392211391706951, 1.409098849631846, 1.4255951398517936]
17	animate/a62.jpg	inanimate	animate	right	0.937	[0.0, 0.0, 0.0, 0.0, 0.0, 0.0, 0.0, 0.0, 0.0, 0.0, 0.0, 0.0, 0.0, 0.0, 0.0, 0.0, 0.0, 0.0, 0.0, 0.0, 0.0, 0.0, 0.0, 0.0, 0.0, 0.0, 0.0, 0.0, 0.0, 0.0, 0.0, 0.0, 0.0, 0.0, 0.0, 0.0, 0.0, 0.0, 0.0, 0.0, 0.0, 0.0, 0.0, 0.0, 28.0, 125.0, 264.0, 413.0, 571.0, 695.0, 802.0, 886.0, 921.0, 927.0, 927.0, 927.0, 927.0]	[-490.0, -490.0, -490.0, -490.0, -490.0, -490.0, -490.0, -490.0, -490.0, -490.0, -490.0, -490.0, -490.0, -490.0, -490.0, -490.0, -490.0, -490.0, -490.0, -490.0, -490.0, -490.0, -490.0, -490.0, -490.0, -490.0, -490.0, -490.0, -490.0, -490.0, -490.0, -490.0, -490.0, -490.0, -490.0, -490.0, -490.0, -490.0, -490.0, -490.0, -490.0, -490.0, -490.0, -490.0, -472.0, -385.0, -268.0, -126.0, 62.0, 279.0, 469.0, 540.0, 540.0, 540.0, 540.0, 540.0, 540.0]	[0.015772356768138707, 0.021389335161074996, 0.029847912141121924, 0.04668246360961348, 0.06370133487507701, 0.07977368927095085, 0.09689120587427169, 0.11349194403737783, 0.13029304472729564, 0.14662993233650923, 0.1636085263453424, 0.17998671531677246, 0.19693902658764273, 0.21328239957801998, 0.23024631629232317, 0.2465299558825791, 0.26358125382103026, 0.2799894801573828, 0.2969571513822302, 0.3132851644186303, 0.3302330384030938, 0.3466081552905962, 0.36358674929942936, 0.37999531684909016, 0.39698551618494093, 0.4133893051184714, 0.4303586831083521, 0.4466832827311009, 0.46361921005882323, 0.4799554150085896, 0.49697667569853365, 0.5132855740375817, 0.5302419812651351, 0.5466884368797764, 0.5636803428642452, 0.5800028945086524, 0.5969610085012391, 0.6130627176025882, 0.6300355088897049, 0.6466847163392231, 0.663628835696727, 0.6799616273492575, 0.6969487546011806, 0.713113610399887, 0.7300795749761164, 0.7467799824662507, 0.7636223845183849, 0.7800650853896514, 0.7969153381418437, 0.8134454203536734, 0.8303383396705613, 0.8466468966798857, 0.8635483493562788, 0.8799545275978744, 0.8968832868849859, 0.91340005712118, 0.9303632910596207]
18	animate/a42.jpg	animate	inanimate	left	1.012	[0.0, 0.0, 0.0, 0.0, 0.0, 0.0, 0.0, 0.0, 0.0, 0.0, 0.0, 0.0, 0.0, 0.0, 0.0, 0.0, 0.0, 0.0, 0.0, 0.0, 0.0, 0.0, 0.0, 0.0, 0.0, 0.0, 0.0, 0.0, 0.0, 0.0, 0.0, 0.0, 0.0, 0.0, 0.0, 0.0, 0.0, 0.0, 0.0, 0.0, 0.0, 0.0, 0.0, 0.0, 57.0, 205.0, 363.0, 503.0, 567.0, 563.0, 493.0, 347.0, -8.0, -162.0, -631.0, -873.0, -960.0, -960.0, -960.0, -960.0, -960.0]	[-490.0, -490.0, -490.0, -490.0, -490.0, -490.0, -490.0, -490.0, -490.0, -490.0, -490.0, -490.0, -490.0, -490.0, -490.0, -490.0, -490.0, -490.0, -490.0, -490.0, -490.0, -490.0, -490.0, -490.0, -490.0, -490.0, -490.0, -490.0, -490.0, -490.0, -490.0, -490.0, -490.0, -490.0, -490.0, -490.0, -490.0, -490.0, -490.0, -490.0, -490.0, -490.0, -490.0, -490.0, -387.0, -163.0, 27.0, 204.0, 333.0, 384.0, 405.0, 419.0, 419.0, 419.0, 419.0, 419.0, 431.0, 434.0, 435.0, 435.0, 435.0]	[0.012097563943825662, 0.018180803512223065, 0.024358592345379293, 0.039053326239809394, 0.05555132310837507, 0.07256166101433337, 0.0888330127345398, 0.1058314039837569, 0.12248197686858475, 0.13928683218546212, 0.15569335175678134, 0.17264122574124485, 0.1903721180278808, 0.2059355448000133, 0.2223318243632093, 0.23937663692049682, 0.2554223673650995, 0.27257196931168437, 0.28896893153432757, 0.30589973891619593, 0.32209667994175106, 0.33926607912871987, 0.3556466574082151, 0.37255698477383703, 0.3889843256911263, 0.4059676983160898, 0.42209227674175054, 0.4392900066450238, 0.4556524942163378, 0.4726065122522414, 0.48884680261835456, 0.5058428045595065, 0.522074902895838, 0.539315982023254, 0.5556938296649605, 0.5725567117333412, 0.5887417061021551, 0.6057868599891663, 0.6224702008767053, 0.6392808589152992, 0.6557194638298824, 0.6726178444223478, 0.6887413988588378, 0.7058029368054122, 0.72243268834427, 0.7393023970071226, 0.7554355087922886, 0.7725175266386941, 0.7888697743183002, 0.8059350668918341, 0.8221896932227537, 0.8392345057800412, 0.8555017615435645, 0.8726803767494857, 0.8888240697560832, 0.90589482372161, 0.9221108794445172, 0.9392765240045264, 0.9556717795785517, 0.9725773282116279, 0.9887333093211055]
19	animate/a65.jpg	inanimate	animate	right	1.125	[0.0, 0.0, 0.0, 0.0, 0.0, 0.0, 0.0, 0.0, 0.0, 0.0, 0.0, 0.0, 0.0, 0.0, 0.0, 0.0, 0.0, 0.0, 0.0, 0.0, 0.0, 0.0, 0.0, 0.0, 0.0, 0.0, 0.0, 0.0, 0.0, 0.0, 0.0, 0.0, 0.0, 0.0, 0.0, 0.0, 0.0, 0.0, 0.0, 0.0, 0.0, 0.0, 0.0, 0.0, 0.0, 0.0, 0.0, 0.0, 0.0, 0.0, -8.0, -54.0, -122.0, -222.0, -426.0, -554.0, -618.0, -616.0, -571.0, -473.0, -316.0, -78.0, 232.0, 567.0, 872.0, 959.0, 959.0, 959.0]	[-490.0, -490.0, -490.0, -490.0, -490.0, -490.0, -490.0, -490.0, -490.0, -490.0, -490.0, -490.0, -490.0, -490.0, -490.0, -490.0, -490.0, -490.0, -490.0, -490.0, -490.0, -490.0, -490.0, -490.0, -490.0, -490.0, -490.0, -490.0, -490.0, -490.0, -490.0, -490.0, -490.0, -490.0, -490.0, -490.0, -490.0, -490.0, -490.0, -490.0, -490.0, -490.0, -490.0, -490.0, -490.0, -490.0, -490.0, -490.0, -490.0, -490.0, -483.0, -424.0, -329.0, -183.0, 88.0, 236.0, 325.0, 352.0, 378.0, 409.0, 435.0, 470.0, 520.0, 540.0, 540.0, 540.0, 540.0, 540.0]	[0.01073598605580628, 0.018978157779201865, 0.025125226587988436, 0.03657729539554566, 0.05314560700207949, 0.07011225423775613, 0.0864658672362566, 0.10338950657751411, 0.11976769554894418, 0.1367012335686013, 0.1529145585373044, 0.17009453906212002, 0.18646794941741973, 0.20352573262061924, 0.21982643892988563, 0.2367439343361184, 0.2531183685641736, 0.27023383718915284, 0.28633554629050195, 0.3033544175559655, 0.31993638235144317, 0.3368207684252411, 0.3530808560317382, 0.37025059666484594, 0.38652399624697864, 0.4034203289775178, 0.41958723263815045, 0.4365702639333904, 0.45325121539644897, 0.4701356014702469, 0.4862509638769552, 0.503276661853306, 0.5195992134977132, 0.5365801968146116, 0.5531532869208604, 0.570286504807882, 0.586511435220018, 0.6034487278666347, 0.6196163143031299, 0.6365949081955478, 0.6531529797939584, 0.6701332804514095, 0.6863681094255298, 0.7033961967099458, 0.7198218309786171, 0.7367553689982742, 0.7532656538533047, 0.7701770052080974, 0.7865220848470926, 0.8034761027665809, 0.8198187930975109, 0.8367898777360097, 0.8531714800046757, 0.8702326766215265, 0.8862678257282823, 0.9034710169071332, 0.9198304325109348, 0.9368424771819264, 0.9530619462020695, 0.9701060760999098, 0.9863077958580106, 1.0034539843909442, 1.0198280774056911, 1.0368373913224787, 1.0528919964563102, 1.0701371715404093, 1.0863153393147513, 1.103375853272155]
20	animate/a66.jpg	animate	inanimate	left	1.067	[0.0, 0.0, 0.0, 0.0, 0.0, 0.0, 0.0, 0.0, 0.0, 0.0, 0.0, 0.0, 0.0, 0.0, 0.0, 0.0, 0.0, 0.0, 0.0, 0.0, 0.0, 0.0, 0.0, 0.0, 0.0, 0.0, 0.0, 0.0, 0.0, 0.0, 0.0, 0.0, 0.0, 0.0, 0.0, 0.0, 0.0, 0.0, 0.0, 0.0, 0.0, 0.0, 0.0, 0.0, 0.0, 0.0, 0.0, 0.0, 0.0, 0.0, 0.0, 0.0, -4.0, -67.0, -112.0, -317.0, -474.0, -621.0, -750.0, -845.0, -887.0, -892.0, -892.0, -892.0]	[-490.0, -490.0, -490.0, -490.0, -490.0, -490.0, -490.0, -490.0, -490.0, -490.0, -490.0, -490.0, -490.0, -490.0, -490.0, -490.0, -490.0, -490.0, -490.0, -490.0, -490.0, -490.0, -490.0, -490.0, -490.0, -490.0, -490.0, -490.0, -490.0, -490.0, -490.0, -490.0, -490.0, -490.0, -490.0, -490.0, -490.0, -490.0, -490.0, -490.0, -490.0, -490.0, -490.0, -490.0, -490.0, -490.0, -490.0, -490.0, -490.0, -490.0, -490.0, -490.0, -482.0, -318.0, -227.0, 23.0, 171.0, 289.0, 369.0, 419.0, 439.0, 443.0, 443.0, 443.0]	[0.004566832911223173, 0.009305561194196343, 0.024325585458427668, 0.04104169423226267, 0.058001856319606304, 0.07435273856390268, 0.09126852720510215, 0.10763920680619776, 0.1246454487554729, 0.14095502975396812, 0.15796297846827656, 0.17444732203148305, 0.1912938200403005, 0.20767132635228336, 0.22457277902867645, 0.2408035120461136, 0.2579159085871652, 0.27407052426133305, 0.2912214915268123, 0.30776181374676526, 0.32463903177995235, 0.34094997809734195, 0.35803199594374746, 0.3743371396558359, 0.391242005629465, 0.4074092507362366, 0.42458206322044134, 0.4410360282054171, 0.4579630808439106, 0.47408151521813124, 0.4913297623861581, 0.5075543514685705, 0.5246285187313333, 0.5409568729810417, 0.557960384292528, 0.5743177519179881, 0.5913355991942808, 0.6076697561657056, 0.6245978327933699, 0.6409886510809883, 0.6579641731223091, 0.6743526019854471, 0.6912660013185814, 0.7077861849684268, 0.7246217603096738, 0.7411480877781287, 0.7579915138194337, 0.7743372761178762, 0.7913476141402498, 0.8077223896980286, 0.8246323757339269, 0.8409682393539697, 0.8579174786573276, 0.8743298009503633, 0.8913148802239448, 0.9077452932251617, 0.9246324099367484, 0.9408044336596504, 0.9579898754600435, 0.9743574830936268, 0.9912507437402382, 1.0074770394712687, 1.024487377377227, 1.041080606286414]
21	inanimate/n50.jpg	inanimate	animate	left	0.913	[0.0, 0.0, 0.0, 0.0, 0.0, 0.0, 0.0, 0.0, 0.0, 0.0, 0.0, 0.0, 0.0, 0.0, 0.0, 0.0, 0.0, 0.0, 0.0, 0.0, 0.0, 0.0, 0.0, 0.0, 0.0, 0.0, 0.0, 0.0, 0.0, 0.0, 0.0, 0.0, 0.0, 0.0, 0.0, 0.0, 0.0, 0.0, 9.0, 67.0, 194.0, 266.0, 307.0, 309.0, 287.0, 223.0, 101.0, -65.0, -244.0, -436.0, -670.0, -754.0, -769.0, -769.0, -769.0]	[-490.0, -490.0, -490.0, -490.0, -490.0, -490.0, -490.0, -490.0, -490.0, -490.0, -490.0, -490.0, -490.0, -490.0, -490.0, -490.0, -490.0, -490.0, -490.0, -490.0, -490.0, -490.0, -490.0, -490.0, -490.0, -490.0, -490.0, -490.0, -490.0, -490.0, -490.0, -490.0, -490.0, -490.0, -490.0, -490.0, -490.0, -490.0, -477.0, -396.0, -204.0, -83.0, 0.0, 30.0, 53.0, 91.0, 156.0, 250.0, 341.0, 399.0, 442.0, 452.0, 454.0, 454.0, 454.0]	[0.016017672838643193, 0.024729860364459455, 0.030565292108803988, 0.04754422733094543, 0.06374697107821703, 0.0807112290058285, 0.09704572742339224, 0.11413798527792096, 0.13061038218438625, 0.14755893882829696, 0.16388490376994014, 0.18079318315722048, 0.19715703616384417, 0.21413494739681482, 0.23031311517115682, 0.2474367757095024, 0.2638347619213164, 0.2807717133546248, 0.29720076092053205, 0.3141585335833952, 0.33053262648172677, 0.3475760737201199, 0.3638631267240271, 0.3808854114031419, 0.39694820845033973, 0.41415139962919056, 0.43055279925465584, 0.447568598552607, 0.4638314169133082, 0.4808294668328017, 0.49721960246097296, 0.5142039990751073, 0.530540204141289, 0.5475222114473581, 0.5638952803565189, 0.5808223329950124, 0.5969564687693492, 0.6140821772860363, 0.63058802485466, 0.6475618401309475, 0.6638796131592244, 0.6808575245086104, 0.6972811106825247, 0.7141603766940534, 0.7305201337439939, 0.747568700928241, 0.7636864527594298, 0.7807701772544533, 0.797212878242135, 0.8142238988075405, 0.8305969678331167, 0.8474304951960221, 0.8638834360754117, 0.8807627020869404, 0.8969534991774708]
22	animate/a47.jpg	animate	inanimate	left	0.962	[0.0, 0.0, 0.0, 0.0, 0.0, 0.0, 0.0, 0.0, 0.0, 0.0, 0.0, 0.0, 0.0, 0.0, 0.0, 0.0, 0.0, 0.0, 0.0, 0.0, 0.0, 0.0, 0.0, 0.0, 0.0, 0.0, 0.0, 0.0, 0.0, 0.0, 0.0, 0.0, 0.0, 0.0, 0.0, 0.0, 0.0, 0.0, 22.0, 94.0, 209.0, 419.0, 563.0, 671.0, 729.0, 746.0, 746.0, 728.0, 625.0, 425.0, 153.0, -142.0, -444.0, -775.0, -865.0, -876.0, -876.0, -876.0]	[-490.0, -490.0, -490.0, -490.0, -490.0, -490.0, -490.0, -490.0, -490.0, -490.0, -490.0, -490.0, -490.0, -490.0, -490.0, -490.0, -490.0, -490.0, -490.0, -490.0, -490.0, -490.0, -490.0, -490.0, -490.0, -490.0, -490.0, -490.0, -490.0, -490.0, -490.0, -490.0, -490.0, -490.0, -490.0, -490.0, -490.0, -490.0, -455.0, -372.0, -230.0, 0.0, 145.0, 237.0, 283.0, 301.0, 305.0, 310.0, 316.0, 316.0, 318.0, 332.0, 337.0, 337.0, 338.0, 341.0, 341.0, 341.0]	[0.0023751326370984316, 0.008935897261835635, 0.019996798248030245, 0.03662552568130195, 0.053600706392899156, 0.06998503929935396, 0.08702473191078752, 0.10307182767428458, 0.12011049629654735, 0.13669723982457072, 0.15360483643598855, 0.16974409227259457, 0.1869117848109454, 0.20327529637143016, 0.22024296771269292, 0.23651636741124094, 0.2534546840470284, 0.27010389149654657, 0.28693127492442727, 0.30326816253364086, 0.32029317785054445, 0.3366235800785944, 0.3535762327956036, 0.3699950403533876, 0.38696168770547956, 0.4033279300201684, 0.42037205991800874, 0.43660688889212906, 0.45373225619550794, 0.46979641856160015, 0.4869132525054738, 0.503390769357793, 0.5203191874315962, 0.5366451523732394, 0.5536967916414142, 0.5699555140454322, 0.5869180653244257, 0.6033228782471269, 0.6202925975667313, 0.6366608878597617, 0.6535736045334488, 0.6700582894263789, 0.68701162468642, 0.7033809389686212, 0.7202247063396499, 0.7364421273814514, 0.7536087959306315, 0.7697371289832518, 0.7870215575676411, 0.8033133891876787, 0.8202455618884414, 0.8365978094516322, 0.8535610435064882, 0.8697057605022565, 0.8869540076702833, 0.9033236632822081, 0.9203493612585589, 0.9363548144465312]
23	inanimate/n44.jpg	animate	inanimate	right	1.023	[0.0, 0.0, 0.0, 0.0, 0.0, 0.0, 0.0, 0.0, 0.0, 0.0, 0.0, 0.0, 0.0, 0.0, 0.0, 0.0, 0.0, 0.0, 0.0, 0.0, 0.0, 0.0, 0.0, 0.0, 0.0, 0.0, 0.0, 0.0, 0.0, 0.0, 0.0, 0.0, 0.0, 0.0, 0.0, 0.0, 0.0, 0.0, 0.0, 0.0, 0.0, 0.0, 0.0, 0.0, 0.0, 0.0, 0.0, 0.0, 0.0, 37.0, 140.0, 282.0, 419.0, 544.0, 661.0, 786.0, 909.0, 959.0, 959.0, 959.0, 959.0, 959.0]	[-490.0, -490.0, -490.0, -490.0, -490.0, -490.0, -490.0, -490.0, -490.0, -490.0, -490.0, -490.0, -490.0, -490.0, -490.0, -490.0, -490.0, -490.0, -490.0, -490.0, -490.0, -490.0, -490.0, -490.0, -490.0, -490.0, -490.0, -490.0, -490.0, -490.0, -490.0, -490.0, -490.0, -490.0, -490.0, -490.0, -490.0, -490.0, -490.0, -490.0, -490.0, -490.0, -490.0, -490.0, -490.0, -490.0, -490.0, -490.0, -487.0, -418.0, -285.0, -110.0, 69.0, 214.0, 343.0, 468.0, 540.0, 540.0, 540.0, 540.0, 540.0, 540.0]	[0.012699334183707833, 0.018646040465682745, 0.023652032599784434, 0.04032513336278498, 0.05751262325793505, 0.07382800686173141, 0.09076939558144659, 0.10717216052580625, 0.1241521198535338, 0.14025860757101327, 0.15729522821493447, 0.1735891078133136, 0.19080424564890563, 0.20715342136099935, 0.22411221801303327, 0.24047368159517646, 0.25746353960130364, 0.27361440064851195, 0.2907377198571339, 0.30715789273381233, 0.3240767534589395, 0.3404952196869999, 0.35741544573102146, 0.37363354943227023, 0.39081148197874427, 0.4069189936853945, 0.42396209959406406, 0.44025427266024053, 0.45722501596901566, 0.47376943414565176, 0.4908132227137685, 0.5071879983879626, 0.5240607790183276, 0.5402710321359336, 0.557394010014832, 0.5739234095672145, 0.5908849368570372, 0.6071044058771804, 0.6240539865102619, 0.6407049007248133, 0.6575691479956731, 0.673873950378038, 0.6907310297247022, 0.7071979652391747, 0.7241424259264022, 0.7404769242275506, 0.7574852141551673, 0.7738238085294142, 0.7907965998165309, 0.807179908733815, 0.8241697667399421, 0.8406623023329303, 0.857465109671466, 0.8738101893104613, 0.8907952685840428, 0.9072086148662493, 0.9241930114803836, 0.9405298992060125, 0.9574132611742243, 0.9738979460671544, 0.9908898520516232, 1.0069878064095974]
24	inanimate/n29.jpg	animate	inanimate	right	1.707	[0.0, 0.0, 0.0, 0.0, 0.0, 0.0, 0.0, 0.0, 0.0, 0.0, 0.0, 0.0, 0.0, 0.0, 0.0, 0.0, 0.0, 0.0, 0.0, 0.0, 0.0, 0.0, 0.0, 0.0, 0.0, 0.0, 0.0, 0.0, 0.0, 0.0, 0.0, 0.0, 0.0, 0.0, 0.0, 0.0, 0.0, 0.0, 0.0, 0.0, 0.0, 0.0, 0.0, 0.0, 0.0, 0.0, 0.0, 0.0, 0.0, 0.0, 6.0, 64.0, 166.0, 292.0, 434.0, 575.0, 729.0, 806.0, 869.0, 905.0, 917.0, 917.0, 917.0, 917.0, 917.0, 917.0, 917.0, 917.0, 917.0, 917.0, 917.0, 917.0, 917.0, 917.0, 917.0, 917.0, 917.0, 917.0, 917.0, 917.0, 917.0, 917.0, 917.0, 917.0, 917.0, 917.0, 917.0, 917.0, 917.0, 917.0, 917.0, 917.0, 917.0, 917.0, 917.0, 917.0, 917.0, 917.0, 917.0, 917.0, 917.0, 917.0, 917.0]	[-490.0, -490.0, -490.0, -490.0, -490.0, -490.0, -490.0, -490.0, -490.0, -490.0, -490.0, -490.0, -490.0, -490.0, -490.0, -490.0, -490.0, -490.0, -490.0, -490.0, -490.0, -490.0, -490.0, -490.0, -490.0, -490.0, -490.0, -490.0, -490.0, -490.0, -490.0, -490.0, -490.0, -490.0, -490.0, -490.0, -490.0, -490.0, -490.0, -490.0, -490.0, -490.0, -490.0, -490.0, -490.0, -490.0, -490.0, -490.0, -490.0, -490.0, -477.0, -410.0, -304.0, -154.0, 26.0, 192.0, 361.0, 440.0, 497.0, 523.0, 532.0, 533.0, 533.0, 533.0, 533.0, 533.0, 533.0, 533.0, 533.0, 533.0, 533.0, 533.0, 533.0, 533.0, 533.0, 533.0, 533.0, 533.0, 533.0, 533.0, 533.0, 533.0, 533.0, 533.0, 533.0, 533.0, 533.0, 533.0, 533.0, 533.0, 533.0, 533.0, 533.0, 533.0, 533.0, 533.0, 533.0, 533.0, 533.0, 533.0, 533.0, 533.0, 533.0]	[0.015031322371214628, 0.022942742332816124, 0.028401683550328016, 0.04535126418340951, 0.061483693309128284, 0.0785527405096218, 0.09505449212156236, 0.11202967271674424, 0.1284208323340863, 0.1454294635914266, 0.16169637790881097, 0.17853843863122165, 0.1947971610352397, 0.21196348825469613, 0.228424962493591, 0.24538887909147888, 0.2617240600520745, 0.2786879767663777, 0.29517573362682015, 0.31202427961397916, 0.328463225858286, 0.3452827585861087, 0.36164797691162676, 0.3785774188581854, 0.39503138384316117, 0.41206971113570035, 0.4284216173691675, 0.445406696642749, 0.4617708909790963, 0.47864367172587663, 0.49485494871623814, 0.5118939586682245, 0.528352360939607, 0.5453613335266709, 0.5614538266090676, 0.5783999939449131, 0.5949956121621653, 0.6120353046571836, 0.6283875523367897, 0.6452989036915824, 0.6616856259061024, 0.6786276972852647, 0.6948976835701615, 0.7119834561599419, 0.7284408344421536, 0.7454006550833583, 0.7617607533466071, 0.7787103340961039, 0.7948390084784478, 0.811988951638341, 0.8283978606341407, 0.8453843052266166, 0.8615252675954252, 0.8787653228500858, 0.8947854533325881, 0.9119173057843, 0.9284449986880645, 0.9453345047077164, 0.9617010883521289, 0.9786161943338811, 0.9950684525538236, 1.0120081346249208, 1.028345363563858, 1.0452618348645046, 1.0617157998494804, 1.078585508512333, 1.0950408386997879, 1.111998611362651, 1.1281252377666533, 1.145391916972585, 1.1617096900008619, 1.1785995373502374, 1.1950292675755918, 1.2119935255032033, 1.2283338265260682, 1.2453980951104313, 1.2617141613736749, 1.2786367767257616, 1.29492109909188, 1.3120099436491728, 1.328375844634138, 1.3453677506186068, 1.3614585370523855, 1.378600288182497, 1.3951488024322316, 1.4120198764139786, 1.4284093293827027, 1.445414547342807, 1.4618234563386068, 1.4786924823420122, 1.4950269806431606, 1.5119943106546998, 1.528394686174579, 1.5452527896268293, 1.5617016344331205, 1.578681593760848, 1.5950020974269137, 1.6119158380897716, 1.6283653656719252, 1.6453173357294872, 1.661669583292678, 1.678624966647476, 1.6950236355187371]
25	inanimate/n20.jpg	inanimate	animate	left	0.889	[0.0, 0.0, 0.0, 0.0, 0.0, 0.0, 0.0, 0.0, 0.0, 0.0, 0.0, 0.0, 0.0, 0.0, 0.0, 0.0, 0.0, 0.0, 0.0, 0.0, 0.0, 0.0, 0.0, 0.0, 0.0, 0.0, 0.0, 0.0, 0.0, -1.0, 73.0, 199.0, 351.0, 496.0, 610.0, 710.0, 752.0, 792.0, 818.0, 829.0, 829.0, 813.0, 758.0, 610.0, 393.0, 148.0, -69.0, -296.0, -572.0, -684.0, -733.0, -745.0, -746.0, -746.0]	[-490.0, -490.0, -490.0, -490.0, -490.0, -490.0, -490.0, -490.0, -490.0, -490.0, -490.0, -490.0, -490.0, -490.0, -490.0, -490.0, -490.0, -490.0, -490.0, -490.0, -490.0, -490.0, -490.0, -490.0, -490.0, -490.0, -490.0, -490.0, -490.0, -485.0, -376.0, -218.0, -69.0, 52.0, 138.0, 230.0, 281.0, 329.0, 367.0, 389.0, 395.0, 399.0, 399.0, 387.0, 369.0, 369.0, 381.0, 411.0, 449.0, 455.0, 462.0, 466.0, 467.0, 467.0]	[0.014052037731744349, 0.020582082332111895, 0.026615828624926507, 0.04357667325530201, 0.05981457431335002, 0.07675937633030117, 0.09291603998281062, 0.10985913535114378, 0.12649366550613195, 0.1434500728501007, 0.15987263503484428, 0.17687853565439582, 0.1931812900584191, 0.2100916173076257, 0.22653841425199062, 0.24347468290943652, 0.25985833315644413, 0.2767522765789181, 0.2931618681177497, 0.31017015816178173, 0.32649987773038447, 0.34476256708148867, 0.35983686335384846, 0.3768209186382592, 0.3932308516232297, 0.41005038435105234, 0.42651970917358994, 0.4435597431147471, 0.4598467961186543, 0.4768113954924047, 0.4932097230339423, 0.510171250323765, 0.5264763940358534, 0.5434696653392166, 0.559849219629541, 0.5767308749491349, 0.5931619704933837, 0.6100931192049757, 0.6264218149008229, 0.6434212301392108, 0.6598837283672765, 0.6767271544085816, 0.6931548366555944, 0.7101245559751987, 0.726503427606076, 0.7434670028742403, 0.7598441678564996, 0.7768377804895863, 0.7932463481556624, 0.8101754487724975, 0.826334843179211, 0.8435097037581727, 0.8598595620132983, 0.8767903692787513]
26	animate/a68.jpg	animate	inanimate	left	1.264	[0.0, 0.0, 0.0, 0.0, 0.0, 0.0, 0.0, 0.0, 0.0, 0.0, 0.0, 0.0, 0.0, 0.0, 0.0, 0.0, 0.0, 0.0, 0.0, 0.0, 0.0, 0.0, 0.0, 0.0, 9.0, 82.0, 188.0, 298.0, 410.0, 579.0, 672.0, 724.0, 747.0, 758.0, 764.0, 771.0, 775.0, 776.0, 776.0, 776.0, 774.0, 764.0, 764.0, 764.0, 764.0, 764.0, 751.0, 696.0, 580.0, 448.0, 288.0, 97.0, -156.0, -512.0, -661.0, -754.0, -807.0, -845.0, -870.0, -886.0, -888.0, -888.0, -888.0, -888.0, -888.0, -888.0, -888.0, -888.0, -888.0, -888.0, -888.0, -888.0, -888.0, -888.0, -888.0, -888.0, -888.0]	[-490.0, -490.0, -490.0, -490.0, -490.0, -490.0, -490.0, -490.0, -490.0, -490.0, -490.0, -490.0, -490.0, -490.0, -490.0, -490.0, -490.0, -490.0, -490.0, -490.0, -490.0, -490.0, -490.0, -490.0, -468.0, -340.0, -191.0, -54.0, 60.0, 216.0, 306.0, 368.0, 402.0, 420.0, 430.0, 443.0, 450.0, 453.0, 454.0, 455.0, 455.0, 454.0, 454.0, 454.0, 454.0, 454.0, 453.0, 447.0, 437.0, 435.0, 435.0, 437.0, 460.0, 467.0, 467.0, 474.0, 483.0, 489.0, 492.0, 494.0, 495.0, 495.0, 495.0, 495.0, 495.0, 495.0, 495.0, 495.0, 495.0, 495.0, 495.0, 495.0, 495.0, 495.0, 495.0, 495.0, 495.0]	[0.007728499593213201, 0.0121665132464841, 0.017191961407661438, 0.030240786727517843, 0.04726819135248661, 0.0637020175345242, 0.080798712791875, 0.09697653923649341, 0.11397970910184085, 0.1303220581030473, 0.14735014538746327, 0.16359419038053602, 0.1807557389838621, 0.19710696255788207, 0.21403094322886318, 0.23044770280830562, 0.24738431279547513, 0.26382906176149845, 0.2808578317053616, 0.2971312314039096, 0.31407432665582746, 0.3304787982488051, 0.34737444831989706, 0.36380008258856833, 0.38084352982696146, 0.39714764954987913, 0.41414501680992544, 0.4304235364543274, 0.44743046106304973, 0.463811039342545, 0.48074252938386053, 0.49703913973644376, 0.5141361762071028, 0.5302430053707212, 0.547423668554984, 0.563832918764092, 0.5807500728406012, 0.5971279204823077, 0.6141000291099772, 0.6304741220083088, 0.6473745506955311, 0.6638076943345368, 0.6808316855458543, 0.697169597260654, 0.7141379511449486, 0.7302758415462449, 0.747329187579453, 0.7637070351047441, 0.7806835811352357, 0.7972082019550726, 0.8141830413369462, 0.8305141262244433, 0.8474715575575829, 0.8638261945452541, 0.8807986445026472, 0.8971450894605368, 0.9141782968072221, 0.9305636537028477, 0.947412199806422, 0.963831007364206, 0.9808386146323755, 0.9971864249091595, 1.0141500002937391, 1.030222354689613, 1.0471770553849638, 1.0635432975832373, 1.080719864810817, 1.0971048804931343, 1.1140264717396349, 1.1302189754787832, 1.147225558757782, 1.1635504997102544, 1.1807076110271737, 1.1972540771821514, 1.214094431255944, 1.230489004170522, 1.247535182046704]
27	animate/a18.jpg	animate	inanimate	left	0.917	[0.0, 0.0, 0.0, 0.0, 0.0, 0.0, 0.0, 0.0, 0.0, 0.0, 0.0, 0.0, 0.0, 0.0, 0.0, 0.0, 0.0, 0.0, 0.0, -1.0, -4.0, -10.0, -13.0, -23.0, -33.0, -41.0, -50.0, -54.0, -21.0, 55.0, 186.0, 338.0, 495.0, 639.0, 837.0, 925.0, 959.0, 959.0, 959.0, 959.0, 959.0, 956.0, 942.0, 905.0, 824.0, 681.0, 323.0, 45.0, -187.0, -381.0, -521.0, -622.0, -671.0, -688.0, -689.0, -689.0]	[-490.0, -491.0, -491.0, -491.0, -491.0, -491.0, -491.0, -491.0, -491.0, -491.0, -491.0, -491.0, -491.0, -491.0, -491.0, -491.0, -491.0, -491.0, -491.0, -491.0, -491.0, -489.0, -486.0, -474.0, -463.0, -448.0, -407.0, -327.0, -226.0, -108.0, 23.0, 137.0, 215.0, 268.0, 327.0, 364.0, 388.0, 394.0, 398.0, 399.0, 400.0, 404.0, 408.0, 409.0, 409.0, 409.0, 434.0, 439.0, 439.0, 441.0, 456.0, 471.0, 479.0, 481.0, 481.0, 481.0]	[0.007171546225436032, 0.012266626232303679, 0.018888148246333003, 0.02981797733809799, 0.046395163517445326, 0.06333723478019238, 0.07963725843001157, 0.0965841084253043, 0.11301179067231715, 0.12992792075965554, 0.14628255763091147, 0.163277194253169, 0.1796748392516747, 0.19661998259834945, 0.21299134485889226, 0.2299730108352378, 0.24612933315802366, 0.2632847377099097, 0.2796578067354858, 0.29669647535774857, 0.3127602963941172, 0.3297238717786968, 0.3463027646066621, 0.363200121326372, 0.379465670324862, 0.3966251708334312, 0.41314808500465006, 0.4299730791244656, 0.44633488403633237, 0.4632349713938311, 0.4796278376597911, 0.49661121028475463, 0.5127566100563854, 0.5298761746380478, 0.546392603428103, 0.5633234108099714, 0.5795811091084033, 0.5965730150928721, 0.6127730282023549, 0.6298738194163889, 0.6463899069931358, 0.6632268476532772, 0.6796558952191845, 0.6965215079253539, 0.7128891155589372, 0.7299028668785468, 0.7463728744769469, 0.7633077776990831, 0.7796313534490764, 0.7966290620388463, 0.8130601575830951, 0.829914164962247, 0.8463401405606419, 0.863260707934387, 0.8796648381976411, 0.8965461521875113]
28	animate/a25.jpg	animate	inanimate	left	1.296	[0.0, 0.0, 0.0, 0.0, 0.0, 0.0, 0.0, 0.0, 0.0, 0.0, 0.0, 0.0, 0.0, 0.0, 0.0, 0.0, 0.0, 0.0, 0.0, 1.0, 1.0, -1.0, -1.0, -1.0, -1.0, -1.0, -1.0, -1.0, -1.0, -1.0, -1.0, -1.0, -1.0, 15.0, 47.0, 91.0, 167.0, 324.0, 452.0, 579.0, 676.0, 735.0, 750.0, 752.0, 737.0, 639.0, 432.0, 136.0, -338.0, -632.0, -841.0, -960.0, -960.0, -960.0, -960.0, -960.0, -960.0, -960.0, -960.0, -960.0, -960.0, -960.0, -960.0, -960.0, -960.0, -960.0, -960.0, -939.0, -909.0, -888.0, -875.0, -870.0, -866.0, -866.0, -866.0, -866.0, -866.0, -866.0]	[-490.0, -490.0, -490.0, -490.0, -490.0, -490.0, -490.0, -490.0, -490.0, -490.0, -490.0, -490.0, -490.0, -490.0, -490.0, -490.0, -490.0, -490.0, -489.0, -487.0, -488.0, -497.0, -497.0, -497.0, -497.0, -497.0, -497.0, -497.0, -497.0, -497.0, -497.0, -497.0, -497.0, -475.0, -424.0, -354.0, -238.0, -24.0, 106.0, 227.0, 321.0, 379.0, 407.0, 424.0, 439.0, 459.0, 482.0, 505.0, 512.0, 512.0, 500.0, 489.0, 490.0, 496.0, 501.0, 501.0, 501.0, 501.0, 501.0, 501.0, 501.0, 501.0, 501.0, 501.0, 501.0, 501.0, 501.0, 495.0, 482.0, 475.0, 470.0, 468.0, 466.0, 466.0, 466.0, 466.0, 466.0, 466.0]	[0.004423472797498107, 0.009798104758374393, 0.023785254918038845, 0.04069148632697761, 0.057110976544208825, 0.07403290923684835, 0.09043055411893874, 0.1074231427628547, 0.12378972640726715, 0.14070483238901943, 0.1570813147118315, 0.17398549802601337, 0.1902066736947745, 0.2073316996684298, 0.22380307246930897, 0.24071886122692376, 0.2568762075388804, 0.27389678556937724, 0.2904476890107617, 0.30740034172777086, 0.32380993326660246, 0.3407653166214004, 0.3572360068792477, 0.37411868618801236, 0.39045659790281206, 0.40742938918992877, 0.4238007514504716, 0.4408107480267063, 0.4568882224848494, 0.47387022979091853, 0.4904187440406531, 0.5074239620007575, 0.5238031749613583, 0.5408073689322919, 0.557082133833319, 0.5740641411393881, 0.5902057862840593, 0.6073540227953345, 0.6237789744045585, 0.6409046829212457, 0.6568654214497656, 0.6739204740151763, 0.6902105991030112, 0.7074090115493163, 0.7236175579018891, 0.7406920664943755, 0.7569931142497808, 0.7740338308503851, 0.7904505904298276, 0.8073868590872735, 0.8237766533857211, 0.8407757272943854, 0.8569337563822046, 0.8740086063044146, 0.8904502831865102, 0.9073346692603081, 0.9235770076047629, 0.9407395800808445, 0.9571222063386813, 0.974065643036738, 0.9904687493108213, 1.0074743086006492, 1.023779110983014, 1.0407713581807911, 1.0571164378197864, 1.0740759171312675, 1.090410415432416, 1.1073954948224127, 1.1237770970910788, 1.1407662723213434, 1.1571308079874143, 1.1740493273828179, 1.1905203588539734, 1.207487347535789, 1.2238737285370007, 1.2408410584321246, 1.2568622129037976, 1.2738988335477188]
29	inanimate/n43.jpg	inanimate	animate	left	1.404	[0.0, 0.0, 0.0, 0.0, 0.0, 0.0, 0.0, 0.0, 0.0, 0.0, 0.0, 0.0, 0.0, 0.0, 0.0, 0.0, 0.0, 0.0, 0.0, 0.0, 0.0, 0.0, 0.0, 1.0, 56.0, 171.0, 316.0, 461.0, 592.0, 709.0, 810.0, 869.0, 891.0, 891.0, 891.0, 891.0, 887.0, 868.0, 832.0, 745.0, 629.0, 521.0, 429.0, 368.0, 302.0, 245.0, 163.0, 71.0, -32.0, -151.0, -283.0, -444.0, -614.0, -758.0, -888.0, -896.0, -901.0, -901.0, -901.0, -901.0, -901.0, -901.0, -901.0, -901.0, -901.0, -901.0, -901.0, -901.0, -901.0, -901.0, -901.0, -901.0, -901.0, -901.0, -901.0, -901.0, -901.0, -901.0, -901.0, -901.0, -901.0, -901.0, -901.0, -901.0, -901.0]	[-490.0, -490.0, -490.0, -490.0, -490.0, -490.0, -490.0, -490.0, -490.0, -490.0, -490.0, -490.0, -490.0, -490.0, -490.0, -490.0, -490.0, -490.0, -490.0, -490.0, -490.0, -490.0, -490.0, -488.0, -413.0, -256.0, -77.0, 103.0, 266.0, 374.0, 435.0, 457.0, 464.0, 464.0, 464.0, 464.0, 464.0, 464.0, 462.0, 450.0, 433.0, 420.0, 418.0, 415.0, 415.0, 415.0, 413.0, 413.0, 413.0, 413.0, 424.0, 446.0, 468.0, 470.0, 481.0, 481.0, 483.0, 483.0, 483.0, 483.0, 483.0, 483.0, 483.0, 483.0, 483.0, 483.0, 483.0, 483.0, 483.0, 483.0, 483.0, 483.0, 483.0, 483.0, 483.0, 483.0, 483.0, 483.0, 483.0, 483.0, 483.0, 483.0, 483.0, 483.0, 483.0]	[0.011431623017415404, 0.016353988437913358, 0.020799852907657623, 0.03787777479737997, 0.05492019804660231, 0.0713198910234496, 0.08830804226454347, 0.10464936727657914, 0.12168837722856551, 0.1376934889703989, 0.15464306971989572, 0.17155954102054238, 0.18787936202716082, 0.204573625465855, 0.2222843790659681, 0.23768294183537364, 0.25472843705210835, 0.27130118594504893, 0.2882330173160881, 0.30470575555227697, 0.321492861607112, 0.337960138451308, 0.3563252277672291, 0.3711878975154832, 0.3881245075026527, 0.4046651709359139, 0.4215048423502594, 0.4379564179107547, 0.4547186066629365, 0.471298182150349, 0.4881928082322702, 0.5046795411035419, 0.5215287698665634, 0.5377806654432788, 0.5549179794033989, 0.5711688511073589, 0.5881607570918277, 0.6043727167416364, 0.6217308731283993, 0.637708337046206, 0.6547405202873051, 0.6710804798640311, 0.6881454312242568, 0.7043563668848947, 0.7214909500908107, 0.7377291924785823, 0.7549989436520264, 0.7711344446288422, 0.7881683346349746, 0.8043925822712481, 0.8215831441339105, 0.8377872532000765, 0.8548569831764325, 0.871201038826257, 0.8880796221783385, 0.9074130735825747, 0.921409098431468, 0.9407241179142147, 0.9547706600278616, 0.9740436954889446, 0.9880950162187219, 1.0054060687543824, 1.0215371324447915, 1.0387106277048588, 1.0548829927574843, 1.0714601789368317, 1.0881366929970682, 1.1044462739955634, 1.1212217747233808, 1.1408719833707437, 1.1546379496576265, 1.1741823450429365, 1.188062657834962, 1.2072769840015098, 1.2212951955152676, 1.240698961657472, 1.254598730476573, 1.2720917135011405, 1.2880046654026955, 1.3060615308349952, 1.321047421777621, 1.340901747578755, 1.3546349459793419, 1.3728641845518723, 1.387686577043496]
30	animate/a68.jpg	inanimate	animate	right	1.063	[0.0, 0.0, 0.0, 0.0, 0.0, 0.0, 0.0, 0.0, 0.0, 0.0, 0.0, 0.0, 0.0, 0.0, 0.0, 0.0, 0.0, 0.0, 0.0, 0.0, 6.0, 65.0, 155.0, 284.0, 433.0, 579.0, 703.0, 797.0, 845.0, 860.0, 860.0, 860.0, 860.0, 860.0, 836.0, 780.0, 684.0, 573.0, 436.0, 299.0, 158.0, 11.0, -150.0, -378.0, -508.0, -613.0, -697.0, -763.0, -795.0, -807.0, -809.0, -809.0, -809.0, -809.0, -805.0, -654.0, -416.0, -139.0, 157.0, 440.0, 694.0, 877.0, 959.0, 959.0]	[-490.0, -490.0, -490.0, -490.0, -490.0, -490.0, -490.0, -490.0, -490.0, -490.0, -490.0, -490.0, -490.0, -490.0, -490.0, -490.0, -490.0, -490.0, -490.0, -490.0, -480.0, -383.0, -238.0, -49.0, 156.0, 321.0, 424.0, 485.0, 514.0, 523.0, 524.0, 524.0, 524.0, 524.0, 518.0, 507.0, 501.0, 501.0, 511.0, 511.0, 511.0, 499.0, 484.0, 477.0, 477.0, 477.0, 477.0, 477.0, 477.0, 476.0, 476.0, 476.0, 476.0, 476.0, 476.0, 476.0, 476.0, 476.0, 476.0, 474.0, 474.0, 474.0, 474.0, 474.0]	[0.007031258195638657, 0.012917889864183962, 0.029026084230281413, 0.045648326398804784, 0.06484319665469229, 0.0788098667981103, 0.09814092889428139, 0.11247726285364479, 0.13188341830391437, 0.14569034450687468, 0.16511288390029222, 0.1790109461871907, 0.19675310235470533, 0.2124093717429787, 0.23169230588246137, 0.24567843205295503, 0.2635499535826966, 0.27878774842247367, 0.2966626832494512, 0.3121281473431736, 0.32935762114357203, 0.34575390082318336, 0.3627714067697525, 0.37921069434378296, 0.39596605638507754, 0.41237360006198287, 0.42924911133013666, 0.44576827087439597, 0.4626192062860355, 0.47907146450597793, 0.4960142185445875, 0.512391724740155, 0.5292808894300833, 0.545801755739376, 0.5628711442695931, 0.5788410988170654, 0.5959190207067877, 0.612432036199607, 0.6292908223113045, 0.6457816511392593, 0.6625796798616648, 0.67883908492513, 0.6959668414201587, 0.7125003370456398, 0.7294250003760681, 0.7455297814449295, 0.7626561726210639, 0.7788442390738055, 0.7959648276446387, 0.8121365100378171, 0.8292693865951151, 0.8454762262990698, 0.8625753108644858, 0.8788087745197117, 0.8959751017391682, 0.912165557499975, 0.9292636180762202, 0.9455223403638229, 0.9627518141642213, 0.9788077846169472, 0.9959300798363984, 1.0121543275890872, 1.0292940308572724, 1.045503601199016]
31	inanimate/n71.jpg	inanimate	animate	left	1.167	[0.0, 0.0, 0.0, 0.0, 0.0, 0.0, 0.0, 0.0, 0.0, 0.0, 0.0, 0.0, 0.0, 0.0, 0.0, 0.0, 0.0, 0.0, 0.0, 0.0, 0.0, 0.0, 0.0, 0.0, 4.0, 60.0, 203.0, 406.0, 644.0, 869.0, 959.0, 959.0, 959.0, 959.0, 959.0, 958.0, 927.0, 846.0, 724.0, 559.0, 352.0, 33.0, -62.0, -313.0, -448.0, -565.0, -659.0, -725.0, -766.0, -799.0, -827.0, -851.0, -869.0, -879.0, -880.0, -880.0, -880.0, -880.0, -880.0, -880.0, -880.0, -880.0, -880.0, -880.0, -880.0, -880.0, -880.0, -880.0, -880.0, -880.0]	[-490.0, -490.0, -490.0, -490.0, -490.0, -490.0, -490.0, -490.0, -490.0, -490.0, -490.0, -490.0, -490.0, -490.0, -490.0, -490.0, -490.0, -490.0, -490.0, -490.0, -490.0, -490.0, -490.0, -490.0, -487.0, -419.0, -262.0, -52.0, 176.0, 366.0, 500.0, 540.0, 540.0, 540.0, 540.0, 540.0, 540.0, 540.0, 540.0, 540.0, 540.0, 530.0, 525.0, 525.0, 525.0, 525.0, 525.0, 525.0, 524.0, 524.0, 524.0, 524.0, 524.0, 524.0, 524.0, 524.0, 524.0, 524.0, 524.0, 524.0, 524.0, 524.0, 524.0, 524.0, 524.0, 524.0, 524.0, 524.0, 524.0, 524.0]	[0.00012233376037329435, 0.0058126988587901, 0.015318144694902003, 0.0320591707713902, 0.048672879580408335, 0.06526747380848974, 0.08214127842802554, 0.09875771799124777, 0.11539361346513033, 0.13203189824707806, 0.14872855099383742, 0.16540165187325329, 0.18222869385499507, 0.1984648882644251, 0.2153151409002021, 0.23230841220356524, 0.24848657997790724, 0.2656378885731101, 0.28179386956617236, 0.2988393648993224, 0.3151349511463195, 0.3323302917415276, 0.34845077409408987, 0.3657031173352152, 0.3818150663282722, 0.3990233775693923, 0.41513293725438416, 0.432287659146823, 0.4484648029319942, 0.4655980208190158, 0.48179291386622936, 0.49885001440998167, 0.5154101339867339, 0.5321931440848857, 0.5486228743102401, 0.565527057624422, 0.5822383877821267, 0.598993067163974, 0.6182882892899215, 0.6323102554306388, 0.651585680199787, 0.6654803290730342, 0.6847260579233989, 0.6988350640749559, 0.7180661155143753, 0.732163175009191, 0.7499046485172585, 0.7654708059271798, 0.7830812075408176, 0.7988668421749026, 0.816029756097123, 0.832190515822731, 0.8486574513372034, 0.8656602799892426, 0.8819862449308857, 0.8986876764101908, 0.9155573850730434, 0.9322096646064892, 0.9485001309076324, 0.9653609648812562, 0.981876369798556, 0.9986194438533857, 1.0180699726333842, 1.0317659656284377, 1.0503310761414468, 1.0653784070163965, 1.0830263553652912, 1.0987915099831298, 1.1157407492864877, 1.1321114288875833]
32	inanimate/n33.jpg	animate	inanimate	right	2.601	[0.0, 0.0, 0.0, 0.0, 0.0, 0.0, 0.0, 0.0, 0.0, 0.0, 0.0, 0.0, 0.0, 0.0, 0.0, 0.0, 0.0, 0.0, 0.0, 81.0, 151.0, 407.0, 600.0, 790.0, 926.0, 959.0, 959.0, 959.0, 959.0, 959.0, 959.0, 952.0, 926.0, 866.0, 694.0, 537.0, 341.0, 140.0, -24.0, -185.0, -338.0, -473.0, -614.0, -736.0, -834.0, -917.0, -939.0, -943.0, -943.0, -943.0, -943.0, -943.0, -943.0, -943.0, -943.0, -912.0, -786.0, -575.0, -190.0, 91.0, 357.0, 588.0, 747.0, 815.0, 829.0, 829.0, 830.0, 832.0, 834.0, 838.0, 839.0, 839.0, 839.0, 839.0, 839.0, 839.0, 839.0, 839.0, 839.0, 839.0, 839.0, 839.0, 839.0, 839.0, 839.0, 839.0, 839.0, 840.0, 840.0, 839.0, 839.0, 839.0, 839.0, 839.0, 839.0, 839.0, 839.0, 839.0, 839.0, 839.0, 839.0, 839.0, 839.0, 839.0, 839.0, 839.0, 839.0, 839.0, 839.0, 839.0, 839.0, 839.0, 839.0, 839.0, 839.0, 839.0, 839.0, 839.0, 839.0, 839.0, 839.0, 839.0, 839.0, 839.0, 839.0, 839.0, 839.0, 839.0, 839.0, 839.0, 839.0, 839.0, 839.0, 839.0, 839.0, 839.0, 839.0, 839.0, 839.0, 839.0, 839.0, 839.0, 839.0, 839.0, 839.0, 839.0, 839.0, 839.0, 839.0, 839.0, 839.0, 839.0, 839.0, 839.0, 839.0, 839.0, 839.0]	[-490.0, -490.0, -490.0, -490.0, -490.0, -490.0, -490.0, -490.0, -490.0, -490.0, -490.0, -490.0, -490.0, -490.0, -490.0, -490.0, -490.0, -490.0, -490.0, -366.0, -269.0, 85.0, 288.0, 427.0, 505.0, 540.0, 540.0, 540.0, 540.0, 540.0, 540.0, 540.0, 540.0, 540.0, 519.0, 495.0, 470.0, 464.0, 464.0, 471.0, 471.0, 471.0, 471.0, 471.0, 477.0, 488.0, 491.0, 492.0, 492.0, 492.0, 492.0, 492.0, 492.0, 492.0, 492.0, 497.0, 507.0, 519.0, 519.0, 519.0, 519.0, 506.0, 482.0, 474.0, 472.0, 472.0, 472.0, 472.0, 473.0, 475.0, 475.0, 475.0, 475.0, 475.0, 475.0, 475.0, 475.0, 475.0, 475.0, 475.0, 475.0, 475.0, 475.0, 475.0, 475.0, 475.0, 475.0, 475.0, 472.0, 470.0, 470.0, 470.0, 470.0, 470.0, 470.0, 470.0, 470.0, 470.0, 470.0, 470.0, 470.0, 470.0, 470.0, 470.0, 470.0, 470.0, 470.0, 470.0, 470.0, 470.0, 470.0, 470.0, 470.0, 470.0, 470.0, 470.0, 470.0, 470.0, 470.0, 470.0, 470.0, 470.0, 470.0, 470.0, 470.0, 470.0, 470.0, 470.0, 470.0, 470.0, 470.0, 470.0, 470.0, 470.0, 470.0, 470.0, 470.0, 470.0, 470.0, 470.0, 470.0, 470.0, 470.0, 470.0, 470.0, 470.0, 470.0, 470.0, 470.0, 470.0, 470.0, 470.0, 470.0, 470.0, 470.0, 470.0, 470.0]	[0.012980592902749777, 0.018126190290786326, 0.023986198008060455, 0.04131943709217012, 0.05786146596074104, 0.07449497212655842, 0.09108820091933012, 0.10787530697416514, 0.12443269591312855, 0.1411924953572452, 0.15775910019874573, 0.17454313416965306, 0.19095136050600559, 0.20790401310659945, 0.22700057935435325, 0.24116624682210386, 0.2576178223825991, 0.27460153633728623, 0.2936759159201756, 0.3078299779444933, 0.3271330507704988, 0.341350942151621, 0.35888420254923403, 0.3745739224832505, 0.39183718827553093, 0.40803447063080966, 0.42491339542903006, 0.44129806966520846, 0.4586579328170046, 0.47468181792646646, 0.4910258735762909, 0.5080061741173267, 0.5242205231916159, 0.5410342531977221, 0.5575264474609867, 0.5745098200859502, 0.5910498009761795, 0.6078464643796906, 0.6241222533863038, 0.6409653380978853, 0.6588849875843152, 0.6740947931539267, 0.6915655895136297, 0.7074406533502042, 0.7253254868555814, 0.7410650415113196, 0.7582644780632108, 0.7756369704147801, 0.7912393091246486, 0.8077420847257599, 0.824630566756241, 0.8410459610167891, 0.8579317122930661, 0.8744085466023535, 0.8912919085705653, 0.9077567961066961, 0.9246309421723709, 0.9410845657112077, 0.9578320771688595, 0.9743898073211312, 0.9913096920354292, 1.0077404462499544, 1.02472825627774, 1.0410927919438109, 1.0580413485877216, 1.0742884655483067, 1.0912650115787983, 1.1075732271419838, 1.124479117221199, 1.1408265861682594, 1.1579942787066102, 1.174157769070007, 1.1913268269272521, 1.2074722266988829, 1.224664836539887, 1.2408044335898012, 1.2579042009310797, 1.274150293902494, 1.291279757162556, 1.307572954101488, 1.3247126573696733, 1.3408307504141703, 1.357882389682345, 1.3744039385346696, 1.3911514499923214, 1.4076552495826036, 1.4245177902048454, 1.4410731310490519, 1.4577779758255929, 1.4743626713752747, 1.4911627480760217, 1.5076761050149798, 1.5246591363102198, 1.541099447873421, 1.5578582233283669, 1.5743493934860453, 1.5912713261786848, 1.610555625637062, 1.6245031811995432, 1.6438366326037794, 1.6578265134012327, 1.6752986751962453, 1.6911696430761367, 1.70873703667894, 1.7246045912615955, 1.7413490306353197, 1.757921096868813, 1.774631403037347, 1.7913045038003474, 1.8076052101096138, 1.824409724213183, 1.8410480089951307, 1.8576907311799005, 1.8744983171345666, 1.8910304474411532, 1.9076714628608897, 1.9243264730321243, 1.9410490670707077, 1.9577907759230584, 1.9741447301348671, 1.9909465136006474, 2.0079438808606938, 2.0243906778050587, 2.041318754432723, 2.0578877485822886, 2.0746216067345813, 2.0910619182977825, 2.107797483098693, 2.1242111707106233, 2.141333807259798, 2.1577754841418937, 2.1745854595210403, 2.191012459108606, 2.2078408665256575, 2.224471642053686, 2.241251921397634, 2.257779272971675, 2.2745684270048514, 2.2910732505843043, 2.307879130006768, 2.3243853187887, 2.3412447875598446, 2.357597376452759, 2.3746247810777277, 2.3911313113057986, 2.4079784920904785, 2.4241607557050884, 2.441269738948904, 2.4574605360394344, 2.474655876518227, 2.490806737681851, 2.507911624852568, 2.5241522565484047, 2.54132131440565, 2.557460911455564, 2.5746129027102143, 2.5908057477790862]
33	inanimate/n63.jpg	inanimate	animate	left	1.459	[0.0, 0.0, 0.0, 0.0, 1.0, 3.0, 3.0, 3.0, 3.0, 3.0, 4.0, 4.0, 4.0, 4.0, 4.0, 4.0, 4.0, 4.0, 4.0, 5.0, 5.0, 5.0, 1.0, -3.0, 1.0, 52.0, 155.0, 310.0, 523.0, 758.0, 959.0, 959.0, 959.0, 959.0, 959.0, 959.0, 955.0, 935.0, 892.0, 811.0, 704.0, 568.0, 414.0, 271.0, 130.0, -55.0, -165.0, -268.0, -360.0, -457.0, -571.0, -688.0, -796.0, -881.0, -944.0, -960.0, -960.0, -960.0, -960.0, -960.0, -960.0, -960.0, -960.0, -960.0, -960.0, -960.0, -960.0, -960.0, -960.0, -960.0, -960.0, -960.0, -960.0, -960.0, -960.0, -960.0, -960.0, -960.0, -960.0, -960.0, -960.0, -960.0, -960.0, -960.0, -946.0, -912.0, -894.0, -890.0]	[-490.0, -490.0, -490.0, -490.0, -487.0, -485.0, -485.0, -485.0, -485.0, -485.0, -485.0, -485.0, -485.0, -485.0, -485.0, -485.0, -485.0, -485.0, -485.0, -484.0, -480.0, -472.0, -457.0, -419.0, -342.0, -210.0, -28.0, 185.0, 389.0, 540.0, 540.0, 540.0, 540.0, 540.0, 540.0, 540.0, 537.0, 536.0, 536.0, 536.0, 526.0, 506.0, 484.0, 465.0, 442.0, 414.0, 408.0, 408.0, 408.0, 408.0, 408.0, 404.0, 404.0, 404.0, 416.0, 429.0, 435.0, 435.0, 435.0, 435.0, 435.0, 435.0, 435.0, 435.0, 435.0, 435.0, 435.0, 435.0, 435.0, 435.0, 435.0, 435.0, 435.0, 435.0, 435.0, 435.0, 435.0, 435.0, 435.0, 435.0, 435.0, 435.0, 435.0, 435.0, 438.0, 443.0, 444.0, 444.0]	[0.0008579068817198277, 0.006666031898930669, 0.017059626523405313, 0.03372658335138112, 0.050645444076508284, 0.06683624105062336, 0.08396092569455504, 0.10036266653332859, 0.11735457251779735, 0.1337371988920495, 0.15061851288191974, 0.16703561379108578, 0.18397802649997175, 0.20041424199007452, 0.21743208926636726, 0.23386932886205614, 0.2507608829764649, 0.267033941228874, 0.2840139005566016, 0.3003617108333856, 0.3173962834989652, 0.3338430803269148, 0.35073668241966516, 0.36679265287239105, 0.3838316628243774, 0.40046824095770717, 0.4173488722881302, 0.4336912212893367, 0.45071862591430545, 0.4668496896047145, 0.4840252328431234, 0.5001993045443669, 0.5172605011612177, 0.5335584768326953, 0.5506736040115356, 0.566843579756096, 0.5839457362890244, 0.6004154025577009, 0.617384439217858, 0.6337196201784536, 0.6505999101791531, 0.6670784511370584, 0.6841113170376047, 0.7003604820929468, 0.7173936893232167, 0.7336585556622595, 0.7506450002547354, 0.7668214613804594, 0.7840150952106342, 0.8004560894332826, 0.8173766568070278, 0.8336838484974578, 0.8506726823979989, 0.8671604393748567, 0.8840069373836741, 0.9001653078012168, 0.9173002323368564, 0.9335132159758359, 0.9505757779115811, 0.9670587561558932, 0.9840168701484799, 1.0003540990874171, 1.0173067518044263, 1.0336907433811575, 1.0506529533304274, 1.066836582380347, 1.0839179176837206, 1.100349354557693, 1.1173009832855314, 1.1337361747864634, 1.1507564114872366, 1.1668635818641633, 1.1839735890971497, 1.2004705619765446, 1.2174682706827298, 1.2337481556460261, 1.2506356136873364, 1.2670315519208089, 1.283944268594496, 1.3004088148009032, 1.3174075474962592, 1.333513011224568, 1.3505697704385966, 1.3670455807587132, 1.384076398680918, 1.4003880276577547, 1.4173328296747059, 1.4337291092379019]
34	animate/a56.jpg	inanimate	animate	right	0.835	[0.0, 0.0, 0.0, 0.0, 0.0, 0.0, 0.0, 0.0, 0.0, 0.0, 0.0, 0.0, 0.0, 0.0, 0.0, 0.0, 0.0, 1.0, 86.0, 250.0, 474.0, 715.0, 951.0, 959.0, 959.0, 959.0, 959.0, 959.0, 937.0, 885.0, 804.0, 726.0, 667.0, 594.0, 518.0, 431.0, 331.0, 241.0, 210.0, 209.0, 218.0, 255.0, 346.0, 467.0, 608.0, 741.0, 838.0, 872.0, 874.0, 874.0]	[-490.0, -490.0, -490.0, -490.0, -490.0, -490.0, -490.0, -490.0, -490.0, -490.0, -490.0, -490.0, -490.0, -490.0, -490.0, -490.0, -490.0, -483.0, -408.0, -235.0, -10.0, 230.0, 441.0, 540.0, 540.0, 540.0, 540.0, 540.0, 537.0, 529.0, 518.0, 509.0, 505.0, 505.0, 505.0, 505.0, 505.0, 505.0, 505.0, 505.0, 505.0, 505.0, 497.0, 480.0, 462.0, 441.0, 429.0, 424.0, 423.0, 423.0]	[0.005501983338035643, 0.011728924233466387, 0.026154346182011068, 0.04308822541497648, 0.059420334408059716, 0.07769940770231187, 0.09255764016415924, 0.10970178071875125, 0.12612024694681168, 0.1430193103151396, 0.1592664272757247, 0.1763764345087111, 0.1927631568396464, 0.2098735054023564, 0.22611755039542913, 0.24318932835012674, 0.25951119733508676, 0.2763576953439042, 0.29285705753136426, 0.3097414436051622, 0.32610768591985106, 0.34312143723946065, 0.3594276048243046, 0.37644101481419057, 0.39277960907202214, 0.4097718563862145, 0.42612751736305654, 0.44314058602321893, 0.459221473778598, 0.47642159298993647, 0.492825040477328, 0.5097913464996964, 0.52608420222532, 0.5430703054880723, 0.5594164091162384, 0.5764485923573375, 0.5925438161939383, 0.609774655313231, 0.6260876496089622, 0.6431891235988587, 0.6592280273325741, 0.6763520292006433, 0.6928718714043498, 0.7097630840726197, 0.7260958757251501, 0.7430621817475185, 0.7592580987839028, 0.7763687886763364, 0.7926073723938316, 0.8098177316132933]
35	animate/a70.jpg	animate	inanimate	left	1.005	[0.0, 0.0, 0.0, 0.0, 0.0, 0.0, 0.0, 0.0, 0.0, 0.0, 0.0, 0.0, 0.0, -1.0, 12.0, 102.0, 242.0, 407.0, 567.0, 714.0, 834.0, 910.0, 959.0, 959.0, 959.0, 958.0, 945.0, 922.0, 908.0, 903.0, 896.0, 873.0, 823.0, 755.0, 731.0, 717.0, 693.0, 657.0, 615.0, 593.0, 589.0, 589.0, 589.0, 588.0, 592.0, 611.0, 645.0, 651.0, 651.0, 651.0, 595.0, 449.0, 252.0, -3.0, -273.0, -536.0, -712.0, -814.0, -816.0, -816.0, -816.0]	[-490.0, -490.0, -490.0, -490.0, -490.0, -490.0, -490.0, -490.0, -490.0, -490.0, -490.0, -490.0, -490.0, -489.0, -464.0, -393.0, -271.0, -105.0, 80.0, 255.0, 397.0, 479.0, 522.0, 532.0, 535.0, 539.0, 540.0, 540.0, 540.0, 540.0, 540.0, 537.0, 531.0, 526.0, 526.0, 526.0, 525.0, 520.0, 510.0, 501.0, 501.0, 501.0, 501.0, 500.0, 499.0, 496.0, 491.0, 490.0, 490.0, 490.0, 490.0, 490.0, 490.0, 507.0, 517.0, 535.0, 540.0, 540.0, 540.0, 540.0, 540.0]	[0.007018526550382376, 0.012528667808510363, 0.017702937126159668, 0.02896283532027155, 0.04553353623487055, 0.06250803417060524, 0.07885379646904767, 0.09598189441021532, 0.11238943797070533, 0.12931205332279205, 0.1457895701751113, 0.16263743361923844, 0.17878454003948718, 0.19605838716961443, 0.21232734946534038, 0.22931823146063834, 0.24563907645642757, 0.2626483903732151, 0.27896616340149194, 0.2960027839289978, 0.31233694090042263, 0.32937048957683146, 0.34564354782924056, 0.36265490984078497, 0.37909078411757946, 0.396087127388455, 0.4123069377383217, 0.4293326357146725, 0.4455828247591853, 0.46257677872199565, 0.47875426372047514, 0.49593526823446155, 0.5123411051463336, 0.5292753258254379, 0.5457152960589156, 0.5625795434461907, 0.5790867563337088, 0.5960400917101651, 0.6123100779950619, 0.6294030186254531, 0.6457323968643323, 0.6625802603084594, 0.6788058732636273, 0.6959503551479429, 0.7124162667896599, 0.7293634581146762, 0.7456535830860958, 0.7626458304002881, 0.7790752192959189, 0.7960459626046941, 0.8123360875761136, 0.8292542656417936, 0.8454450626159087, 0.8625629205489531, 0.8790288320742548, 0.8960616980912164, 0.9123644523788244, 0.929234161041677, 0.9458017899887636, 0.9625906026922166, 0.9790360342012718]
36	animate/a50.jpg	animate	inanimate	left	1.215	[0.0, 0.0, 0.0, 0.0, 0.0, 0.0, 0.0, 0.0, 0.0, 0.0, 0.0, 0.0, 0.0, 0.0, 0.0, 3.0, 29.0, 92.0, 190.0, 298.0, 383.0, 459.0, 505.0, 564.0, 632.0, 682.0, 714.0, 730.0, 742.0, 753.0, 757.0, 757.0, 757.0, 757.0, 745.0, 744.0, 744.0, 744.0, 744.0, 744.0, 744.0, 744.0, 744.0, 744.0, 742.0, 725.0, 659.0, 452.0, 243.0, 16.0, -229.0, -455.0, -649.0, -782.0, -866.0, -891.0, -904.0, -905.0, -905.0, -905.0, -905.0, -905.0, -905.0, -905.0, -905.0, -905.0, -905.0, -905.0, -905.0, -905.0, -905.0, -905.0, -905.0]	[-490.0, -490.0, -490.0, -490.0, -490.0, -490.0, -490.0, -490.0, -490.0, -490.0, -490.0, -490.0, -490.0, -490.0, -490.0, -481.0, -418.0, -301.0, -153.0, 14.0, 131.0, 217.0, 258.0, 310.0, 370.0, 411.0, 431.0, 439.0, 447.0, 455.0, 460.0, 461.0, 461.0, 461.0, 461.0, 461.0, 461.0, 461.0, 461.0, 461.0, 461.0, 461.0, 461.0, 461.0, 461.0, 460.0, 456.0, 440.0, 429.0, 429.0, 429.0, 429.0, 429.0, 429.0, 429.0, 430.0, 432.0, 433.0, 433.0, 433.0, 433.0, 433.0, 433.0, 433.0, 433.0, 433.0, 433.0, 433.0, 433.0, 433.0, 433.0, 433.0, 433.0]	[0.014118597493506968, 0.019443736178800464, 0.026476223254576325, 0.04312133463099599, 0.06020028062630445, 0.07638766430318356, 0.0934420342091471, 0.10980622854549438, 0.12693261972162873, 0.14304593414999545, 0.16020202136132866, 0.17662287701386958, 0.1935956683009863, 0.20999706792645156, 0.22699375252705067, 0.24325247493106872, 0.26032049814239144, 0.2765915085328743, 0.293662945041433, 0.30996808875352144, 0.3269466826459393, 0.3433037089416757, 0.36020106566138566, 0.37636762810871005, 0.3935063072713092, 0.41001898155082017, 0.42699416214600205, 0.44334436173085123, 0.4601621878100559, 0.47670080338139087, 0.4935001974226907, 0.510017650318332, 0.5269358282675967, 0.5432689612498507, 0.5601748513290659, 0.5766373495571315, 0.5935241248225793, 0.6101023351075128, 0.6269959370838478, 0.6430051448987797, 0.6602090187370777, 0.6766438690247014, 0.6935262070037425, 0.7097214413806796, 0.726866947254166, 0.7433318347902969, 0.7602592288749292, 0.7763858552789316, 0.7934279371984303, 0.809996931347996, 0.8269233013270423, 0.8432717943796888, 0.8603036362910643, 0.8766603212570772, 0.8935699659632519, 0.9099884321913123, 0.9269414261216298, 0.9433063031174242, 0.960228918469511, 0.9763671502005309, 0.9933259468525648, 1.009696967783384, 1.026834281743504, 1.0433244279120117, 1.0602269045775756, 1.0763787896139547, 1.0935611595632508, 1.1099823564291, 1.126913505140692, 1.143309784703888, 1.160287696053274, 1.1766529142623767, 1.193570068338886]
37	inanimate/n42.jpg	inanimate	animate	left	1.38	[0.0, 0.0, 0.0, 0.0, 0.0, 0.0, 0.0, 0.0, 0.0, 0.0, 0.0, -3.0, -9.0, -13.0, -14.0, -14.0, -14.0, -14.0, -14.0, -14.0, 5.0, 106.0, 263.0, 407.0, 531.0, 655.0, 779.0, 875.0, 928.0, 948.0, 948.0, 948.0, 948.0, 948.0, 948.0, 948.0, 947.0, 947.0, 947.0, 947.0, 945.0, 934.0, 913.0, 881.0, 877.0, 877.0, 877.0, 877.0, 876.0, 856.0, 761.0, 599.0, 381.0, 162.0, -82.0, -414.0, -562.0, -638.0, -658.0, -660.0, -660.0, -660.0, -660.0, -660.0, -660.0, -660.0, -660.0, -660.0, -660.0, -660.0, -660.0, -660.0, -660.0, -660.0, -660.0, -660.0, -660.0, -660.0, -663.0, -684.0, -719.0, -736.0, -736.0]	[-490.0, -490.0, -490.0, -490.0, -490.0, -490.0, -490.0, -490.0, -490.0, -490.0, -490.0, -489.0, -489.0, -490.0, -490.0, -490.0, -490.0, -490.0, -490.0, -490.0, -454.0, -290.0, -48.0, 194.0, 377.0, 514.0, 540.0, 540.0, 540.0, 540.0, 540.0, 540.0, 540.0, 540.0, 540.0, 539.0, 538.0, 538.0, 538.0, 538.0, 536.0, 530.0, 521.0, 509.0, 508.0, 508.0, 508.0, 508.0, 508.0, 505.0, 491.0, 491.0, 489.0, 489.0, 513.0, 540.0, 540.0, 540.0, 540.0, 540.0, 540.0, 540.0, 540.0, 540.0, 540.0, 540.0, 540.0, 540.0, 540.0, 540.0, 540.0, 540.0, 540.0, 540.0, 540.0, 540.0, 540.0, 540.0, 531.0, 495.0, 457.0, 441.0, 440.0]	[0.01134321780409664, 0.01764627592638135, 0.024533696356229484, 0.03803376411087811, 0.05506219272501767, 0.07135948573704809, 0.08823772775940597, 0.10471592738758773, 0.12163478799629956, 0.13774195837322623, 0.15486288827378303, 0.17109942401293665, 0.1881892925594002, 0.20463199354708195, 0.2216597395017743, 0.23795566707849503, 0.25497556244954467, 0.2713110847398639, 0.28829684667289257, 0.3046665022848174, 0.32167172024492174, 0.338000415940769, 0.3548650045413524, 0.37113021221011877, 0.38834432605654, 0.40465254173614085, 0.42161167971789837, 0.4379724607570097, 0.4549527612980455, 0.4713906835531816, 0.48835630691610277, 0.5046047893119976, 0.5216431164881214, 0.538002873538062, 0.5549958035117015, 0.5712825150694698, 0.5883331303484738, 0.6046413460280746, 0.621643150690943, 0.6380066622514278, 0.6549398589413613, 0.6710842347238213, 0.6882109672296792, 0.7046744894469157, 0.721634651417844, 0.7379909950541332, 0.7548979091225192, 0.7712661994155496, 0.7881830120459199, 0.8046554089523852, 0.8216817895881832, 0.8380026345839724, 0.8549286632332951, 0.8712747668614611, 0.8883448381675407, 0.9046240404713899, 0.9216743144206703, 0.9379548820434138, 0.9549959399737418, 0.97105498239398, 0.9882004882674664, 1.0046155411982909, 1.0215937938774005, 1.0380706280702725, 1.055009968811646, 1.0711400085128844, 1.0882735677296296, 1.1046954473713413, 1.1216460519935936, 1.1380218516569585, 1.1548867815872654, 1.1710567573318258, 1.1881616446189582, 1.2046797801740468, 1.2216556434286758, 1.2379986750893295, 1.2548810130683705, 1.2710936554940417, 1.2882620306918398, 1.3046941502252594, 1.3217116562882438, 1.3380120212677866, 1.3549551165197045]
38	animate/a17.jpg	animate	inanimate	left	1.01	[0.0, 0.0, 0.0, 0.0, 0.0, -2.0, -2.0, -2.0, -2.0, -2.0, -2.0, -2.0, -3.0, -3.0, -3.0, -3.0, -1.0, 2.0, 8.0, 49.0, 104.0, 164.0, 213.0, 261.0, 305.0, 336.0, 375.0, 435.0, 523.0, 643.0, 821.0, 879.0, 959.0, 959.0, 959.0, 959.0, 959.0, 957.0, 951.0, 935.0, 886.0, 768.0, 496.0, 410.0, 309.0, 322.0, 390.0, 490.0, 561.0, 579.0, 576.0, 547.0, 444.0, 268.0, 42.0, -207.0, -566.0, -713.0, -759.0, -761.0, -761.0]	[-490.0, -490.0, -490.0, -490.0, -489.0, -482.0, -482.0, -482.0, -482.0, -482.0, -482.0, -485.0, -488.0, -489.0, -489.0, -489.0, -489.0, -476.0, -453.0, -328.0, -199.0, -61.0, 49.0, 130.0, 185.0, 217.0, 246.0, 286.0, 335.0, 380.0, 427.0, 437.0, 444.0, 445.0, 445.0, 445.0, 445.0, 445.0, 443.0, 438.0, 423.0, 392.0, 355.0, 350.0, 350.0, 360.0, 391.0, 418.0, 439.0, 448.0, 451.0, 451.0, 451.0, 451.0, 451.0, 469.0, 497.0, 510.0, 517.0, 517.0, 517.0]	[0.01206947211176157, 0.020262150559574366, 0.024712452315725386, 0.039210919523611665, 0.05578230309765786, 0.07277420908212662, 0.08905716601293534, 0.10597500274889171, 0.1223975649336353, 0.1393478283425793, 0.15578984655439854, 0.17274932586587965, 0.18906095484271646, 0.20597981556784362, 0.22218358318787068, 0.23924682778306305, 0.2557618913706392, 0.27272990404162556, 0.28911423694808036, 0.305970974965021, 0.3224061665823683, 0.33941445650998503, 0.35579640010837466, 0.37275656207930297, 0.38906989782117307, 0.40603381441906095, 0.4223963019903749, 0.4393646559910849, 0.455782781005837, 0.47283783357124776, 0.4888740066671744, 0.5060437471838668, 0.5221843683393672, 0.5392971062101424, 0.5557691617868841, 0.5727095264010131, 0.5890713314292952, 0.6060543627245352, 0.6221765517257154, 0.639300212264061, 0.6558244918705896, 0.6728204938117415, 0.6891553334426135, 0.7060407435055822, 0.7222018445609137, 0.7393640757072717, 0.7558777739759535, 0.7727119839983061, 0.789078226312995, 0.8060503349406645, 0.822439446579665, 0.8392910646507517, 0.8557368374895304, 0.8727526367874816, 0.8890786017291248, 0.906018283800222, 0.9221851874608546, 0.9393037280533463, 0.9555092024384066, 0.9726536843227223, 0.9890564492670819]
