trialIndex	stimulus	isAnimate	left_option	right_option	response	response_time	xTrajectory	yTrajectory	tTrajectory
0	足球	False	animate	inanimate	right	1.676	[0.0, 0.0, 0.0, 0.0, 0.0, 0.0, 0.0, 0.0, 0.0, 0.0, -1.0, -1.0, -1.0, -1.0, -1.0, -1.0, -1.0, -1.0, -1.0, 1.0, 10.0, 19.0, 28.0, 39.0, 49.0, 55.0, 58.0, 59.0, 59.0, 59.0, 59.0, 59.0, 59.0, 59.0, 59.0, 59.0, 59.0, 59.0, 59.0, 59.0, 59.0, 59.0, 59.0, 59.0, 59.0, 59.0, 59.0, 59.0, 59.0, 59.0, 59.0, 59.0, 59.0, 59.0, 59.0, 59.0, 59.0, 59.0, 66.0, 80.0, 105.0, 160.0, 262.0, 424.0, 591.0, 799.0, 867.0, 888.0, 890.0, 890.0, 890.0, 887.0, 850.0, 744.0, 569.0, 348.0, 60.0, -17.0, -21.0, -19.0, 6.0, 53.0, 131.0, 239.0, 379.0, 502.0, 602.0, 618.0, 641.0, 659.0, 663.0, 663.0, 665.0, 669.0, 673.0, 684.0, 703.0, 716.0, 717.0, 717.0]	[-490.0, -490.0, -490.0, -490.0, -490.0, -490.0, -490.0, -490.0, -490.0, -490.0, -482.0, -464.0, -438.0, -400.0, -351.0, -296.0, -212.0, -157.0, -133.0, -61.0, -23.0, 2.0, 23.0, 48.0, 70.0, 95.0, 116.0, 129.0, 133.0, 133.0, 133.0, 133.0, 133.0, 133.0, 133.0, 133.0, 133.0, 133.0, 133.0, 133.0, 133.0, 133.0, 133.0, 133.0, 133.0, 133.0, 133.0, 133.0, 133.0, 133.0, 133.0, 133.0, 133.0, 133.0, 133.0, 133.0, 133.0, 134.0, 134.0, 134.0, 139.0, 157.0, 185.0, 230.0, 281.0, 315.0, 323.0, 325.0, 327.0, 327.0, 327.0, 327.0, 327.0, 327.0, 327.0, 327.0, 341.0, 354.0, 355.0, 360.0, 372.0, 388.0, 406.0, 421.0, 436.0, 446.0, 461.0, 465.0, 468.0, 471.0, 472.0, 472.0, 473.0, 474.0, 475.0, 476.0, 477.0, 477.0, 477.0, 477.0]	[0.016692864010110497, 0.021360594895668328, 0.031525496393442154, 0.050051012192852795, 0.06631280656438321, 0.08182605728507042, 0.09964091749861836, 0.1166345301317051, 0.13179074635263532, 0.1497759318444878, 0.1662937260698527, 0.1818083421094343, 0.19967064762022346, 0.21652602031826973, 0.23161704186350107, 0.24983467522542924, 0.2662026241887361, 0.28184319217689335, 0.2997058390174061, 0.31665064103435725, 0.33161605207715183, 0.3498790826415643, 0.36629618366714567, 0.38180090102832764, 0.39963077986612916, 0.4165745578939095, 0.43159492348786443, 0.44979139417409897, 0.4661501271184534, 0.481874663149938, 0.4995079340878874, 0.5165984852937981, 0.5320250374497846, 0.5498153216904029, 0.5661566465860233, 0.5818279345985502, 0.599750314722769, 0.6165568768046796, 0.631334554636851, 0.6497743958607316, 0.666166920796968, 0.6818143153795972, 0.6995943596120924, 0.7164937643101439, 0.7315404126420617, 0.7498362112091854, 0.7661092695780098, 0.7818491655634716, 0.7996083884499967, 0.8164658091263846, 0.8316025694366544, 0.8498270293930545, 0.8660990637727082, 0.8818249650066718, 0.8995961345499381, 0.9169853522907943, 0.9315746142528951, 0.9498093142174184, 0.9662083244184032, 0.9817990578012541, 0.9996340567013249, 1.0165341440588236, 1.0316067336825654, 1.049809006974101, 1.0661967532942072, 1.0818458546418697, 1.099704405409284, 1.1166068821912631, 1.131591749144718, 1.1498411264037713, 1.1665128619642928, 1.1817882034229115, 1.1995877036824822, 1.216541380272247, 1.2316740445094183, 1.249816925963387, 1.266427221475169, 1.282481143833138, 1.2996635137824342, 1.3166779476450756, 1.3315505160717294, 1.3498166187200695, 1.366126882378012, 1.3817991943797097, 1.399413350620307, 1.416557491174899, 1.4314607796259224, 1.4497719382634386, 1.4660637698834762, 1.48184599110391, 1.4996530007338151, 1.5166623146506026, 1.5315666269743815, 1.5497644629795104, 1.5661006680456921, 1.5818589959526435, 1.5996561067877337, 1.616474274196662, 1.6316994397202507, 1.649812966468744]
1	电话	False	inanimate	animate	left	1.141	[0.0, 0.0, 0.0, 0.0, 0.0, 0.0, 0.0, 0.0, 0.0, 0.0, 0.0, 0.0, 0.0, 0.0, 0.0, 0.0, 0.0, 0.0, 0.0, 0.0, 0.0, 0.0, 0.0, 0.0, 0.0, 0.0, 0.0, 0.0, 0.0, 0.0, 0.0, 0.0, 0.0, 0.0, 0.0, 0.0, 0.0, 0.0, 0.0, 0.0, 0.0, 0.0, 0.0, 0.0, 0.0, 0.0, 0.0, 0.0, 4.0, 29.0, 98.0, 148.0, 346.0, 464.0, 549.0, 572.0, 569.0, 538.0, 456.0, 289.0, 46.0, -366.0, -598.0, -687.0, -845.0, -879.0, -891.0, -892.0]	[-490.0, -490.0, -490.0, -490.0, -490.0, -490.0, -490.0, -490.0, -490.0, -490.0, -490.0, -490.0, -490.0, -490.0, -490.0, -490.0, -490.0, -490.0, -490.0, -490.0, -490.0, -490.0, -490.0, -490.0, -490.0, -490.0, -490.0, -490.0, -490.0, -490.0, -490.0, -490.0, -490.0, -490.0, -490.0, -490.0, -490.0, -490.0, -490.0, -490.0, -490.0, -490.0, -490.0, -490.0, -490.0, -490.0, -490.0, -490.0, -488.0, -451.0, -358.0, -288.0, -12.0, 166.0, 295.0, 346.0, 359.0, 370.0, 384.0, 401.0, 405.0, 405.0, 405.0, 405.0, 424.0, 439.0, 447.0, 448.0]	[0.002351648872718215, 0.007844040752388537, 0.019672600086778402, 0.03808615857269615, 0.05427422502543777, 0.06979600910563022, 0.08755079458933324, 0.10453655663877726, 0.11958969023544341, 0.1378428222378716, 0.1544210324063897, 0.16979877382982522, 0.18763991678133607, 0.20449255872517824, 0.21954978839494288, 0.23792170430533588, 0.25439512520097196, 0.2697465840028599, 0.2875877268379554, 0.3045144382631406, 0.319564841222018, 0.3378370878053829, 0.3544579646550119, 0.36981659149751067, 0.3875563583569601, 0.40453665901441127, 0.4195334726246074, 0.4377965033054352, 0.4544399081496522, 0.46978385758120567, 0.4876400191569701, 0.5045285011874512, 0.5195632027462125, 0.5378207721514627, 0.5542754196794704, 0.5697453210595995, 0.5875455039786175, 0.6045186365954578, 0.6194799515651539, 0.6377907688729465, 0.6544167657848448, 0.6698115738108754, 0.6877127913758159, 0.7045319827739149, 0.7195421083597466, 0.7378751123324037, 0.7544369385577738, 0.7697924933163449, 0.7877288681920618, 0.8045446461765096, 0.8194916251813993, 0.8378072212217376, 0.8542024767957628, 0.8698331461055204, 0.8874565183650702, 0.9044866537442431, 0.9194237340707332, 0.9376024553785101, 0.9542158228578046, 0.9697205403354019, 0.9873797525651753, 1.004421834484674, 1.0195329948328435, 1.0377434601541609, 1.054286171682179, 1.0697823556838557, 1.0873794454382733, 1.1045259753009304]
2	螳螂	True	animate	inanimate	left	1.569	[0.0, 0.0, 0.0, 0.0, 0.0, 0.0, 0.0, 0.0, 0.0, 0.0, 0.0, 0.0, 0.0, 0.0, 0.0, 0.0, 0.0, 0.0, 0.0, 0.0, 0.0, 0.0, 0.0, 0.0, 0.0, 0.0, 0.0, 0.0, 0.0, 0.0, 0.0, 0.0, 0.0, 0.0, 0.0, 0.0, 0.0, 0.0, 0.0, 0.0, 0.0, 0.0, 0.0, 0.0, 0.0, 0.0, 0.0, 0.0, 0.0, 0.0, 4.0, 52.0, 151.0, 280.0, 407.0, 534.0, 550.0, 550.0, 541.0, 482.0, 328.0, 85.0, -206.0, -513.0, -784.0, -960.0, -960.0, -960.0, -960.0, -960.0, -960.0, -960.0, -960.0, -960.0, -960.0, -960.0, -960.0, -959.0, -957.0, -957.0, -957.0, -957.0, -944.0, -899.0, -865.0, -861.0, -861.0, -861.0, -861.0, -861.0, -861.0, -861.0, -861.0, -861.0, -861.0]	[-490.0, -490.0, -490.0, -490.0, -490.0, -490.0, -490.0, -490.0, -490.0, -490.0, -490.0, -490.0, -490.0, -490.0, -490.0, -490.0, -490.0, -490.0, -490.0, -490.0, -490.0, -490.0, -490.0, -490.0, -490.0, -490.0, -490.0, -490.0, -490.0, -490.0, -490.0, -490.0, -490.0, -490.0, -490.0, -490.0, -490.0, -490.0, -490.0, -490.0, -490.0, -490.0, -490.0, -490.0, -490.0, -490.0, -490.0, -490.0, -490.0, -483.0, -457.0, -381.0, -258.0, -98.0, 70.0, 227.0, 242.0, 242.0, 243.0, 243.0, 243.0, 248.0, 248.0, 250.0, 266.0, 312.0, 356.0, 390.0, 392.0, 392.0, 392.0, 392.0, 392.0, 392.0, 392.0, 392.0, 392.0, 396.0, 400.0, 400.0, 400.0, 400.0, 407.0, 434.0, 454.0, 457.0, 457.0, 457.0, 457.0, 457.0, 457.0, 457.0, 457.0, 457.0, 457.0]	[0.012910551275126636, 0.020357416826300323, 0.025909541989676654, 0.04256967210676521, 0.05894854373764247, 0.07436451443936676, 0.09215138538274914, 0.10910096601583064, 0.1241803823504597, 0.14248403161764145, 0.15899534046184272, 0.17443110863678157, 0.1922230995260179, 0.20915527211036533, 0.22399473120458424, 0.24242603906895965, 0.25894963601604104, 0.27441168669611216, 0.29224532027728856, 0.30913380230776966, 0.3241637252504006, 0.34242095320951194, 0.35896264074835926, 0.3743632514961064, 0.39206683717202395, 0.40906693506985903, 0.42415317799896, 0.44236603274475783, 0.4587302269646898, 0.474430869682692, 0.49209451931528747, 0.5091485478915274, 0.5241627695504576, 0.5424275068799034, 0.5589698770781979, 0.5743971117772162, 0.5924304252257571, 0.6091335633536801, 0.624165192944929, 0.6424705489771441, 0.6589767378754914, 0.6743367299204692, 0.6921246248530224, 0.7091793360887095, 0.7241188058396801, 0.7425245137419552, 0.7589719933457673, 0.774326182785444, 0.7921499176882207, 0.8090861863456666, 0.8241034799721092, 0.8424016679637134, 0.8589372114511207, 0.8743470382178202, 0.8922168530989438, 0.9090258044889197, 0.9241731460206211, 0.9424201340880245, 0.9588177789701149, 0.9743805229663849, 0.9923814097419381, 1.0091200465103611, 1.0241032069316134, 1.042344392160885, 1.0587614931864664, 1.0742617731448263, 1.0919571667909622, 1.1089695527916774, 1.1241506863152608, 1.1424481916474178, 1.1586253353161737, 1.1743420206476003, 1.192189990193583, 1.2090709628537297, 1.224160277750343, 1.2424485670635477, 1.258896729326807, 1.2743587801232934, 1.2921876349719241, 1.3091996795265004, 1.3241852292558178, 1.34247044660151, 1.3587093715323135, 1.37437588092871, 1.392302357009612, 1.409091511159204, 1.4241760473232716, 1.4423349713906646, 1.4588121470296755, 1.4743912749690935, 1.4919811966829002, 1.5090601425617933, 1.5239869829965755, 1.5423848401987925, 1.5589115091133863]
3	猴子	True	inanimate	animate	right	1.464	[0.0, -5.0, -5.0, -6.0, -7.0, -7.0, -7.0, -7.0, -7.0, -7.0, -7.0, -7.0, -7.0, -7.0, -7.0, -7.0, -7.0, -7.0, -7.0, -7.0, -7.0, -7.0, -7.0, -7.0, -7.0, -7.0, -7.0, -7.0, -7.0, -7.0, -8.0, -12.0, -18.0, -25.0, -34.0, -50.0, -72.0, -175.0, -273.0, -340.0, -534.0, -625.0, -649.0, -650.0, -646.0, -643.0, -628.0, -579.0, -439.0, -107.0, 138.0, 252.0, 541.0, 711.0, 847.0, 931.0, 959.0, 959.0, 959.0, 959.0, 959.0, 959.0, 959.0, 959.0, 959.0, 959.0, 959.0, 959.0, 959.0, 959.0, 959.0, 959.0, 959.0, 959.0, 959.0, 959.0, 959.0, 959.0, 959.0, 959.0, 959.0, 959.0, 959.0, 959.0, 959.0, 959.0, 959.0, 959.0]	[-490.0, -501.0, -501.0, -504.0, -505.0, -505.0, -505.0, -505.0, -505.0, -505.0, -505.0, -505.0, -505.0, -507.0, -509.0, -509.0, -509.0, -509.0, -509.0, -509.0, -509.0, -509.0, -509.0, -509.0, -509.0, -509.0, -509.0, -509.0, -509.0, -509.0, -509.0, -503.0, -497.0, -493.0, -488.0, -477.0, -457.0, -308.0, -159.0, -67.0, 195.0, 308.0, 340.0, 344.0, 349.0, 350.0, 352.0, 352.0, 352.0, 352.0, 352.0, 352.0, 383.0, 411.0, 417.0, 417.0, 417.0, 417.0, 417.0, 417.0, 417.0, 417.0, 417.0, 417.0, 417.0, 417.0, 417.0, 417.0, 417.0, 417.0, 417.0, 417.0, 417.0, 417.0, 417.0, 417.0, 417.0, 417.0, 417.0, 418.0, 418.0, 418.0, 418.0, 418.0, 419.0, 421.0, 421.0, 421.0]	[0.007215987658128142, 0.011731142760254443, 0.01553905545733869, 0.03136701532639563, 0.047753396327607334, 0.06311782577540725, 0.08091049932409078, 0.09787987731397152, 0.1129797735484317, 0.1312154975021258, 0.14775684371124953, 0.16318544384557754, 0.1809863094240427, 0.19791643403004855, 0.21297605300787836, 0.23121519037522376, 0.24786030186805874, 0.26313905662391335, 0.2811385780805722, 0.2979181748814881, 0.3129539005458355, 0.33122307516168803, 0.34766406938433647, 0.36313226411584765, 0.38090548175387084, 0.39791616098955274, 0.41297407331876457, 0.4311698613455519, 0.44769448216538876, 0.4631954448996112, 0.481075499788858, 0.49789366719778627, 0.512926320778206, 0.5311842313967645, 0.5476750603411347, 0.5631241403752938, 0.5808901899727061, 0.5978486452950165, 0.612778557697311, 0.63117470825091, 0.6475426572142169, 0.6631354385754094, 0.6808434614213184, 0.6978544821031392, 0.712912394432351, 0.7311901024077088, 0.7476075446465984, 0.7631184060592204, 0.7808039009105414, 0.7978224309626967, 0.8129127698484808, 0.831160781905055, 0.8474236001493409, 0.8631157095078379, 0.8811449268832803, 0.8978627423057333, 0.9129500093404204, 0.9312638986157253, 0.9477769141085446, 0.9630764903267846, 0.9811176543589681, 0.9978914484381676, 1.0128961127484217, 1.0312417460372671, 1.0475602017249912, 1.0631195324240252, 1.0811142751481384, 1.0979355146409944, 1.1129200402647257, 1.1312489481642842, 1.1477879050653428, 1.1631038652267307, 1.181075397413224, 1.1979174580192193, 1.2129016424296424, 1.2312411316670477, 1.247708408627659, 1.2631656806915998, 1.2808965728618205, 1.297899060184136, 1.312740225926973, 1.331213517813012, 1.3477238026680425, 1.3631039335159585, 1.381057716323994, 1.3979257183382288, 1.4129802172537893, 1.431274650618434]
4	足球	False	inanimate	animate	left	1.651	[0.0, 0.0, 0.0, 0.0, 0.0, 0.0, 0.0, 0.0, 0.0, 0.0, 0.0, 0.0, 0.0, 0.0, 0.0, 0.0, 0.0, 0.0, 0.0, 0.0, 0.0, 0.0, 0.0, 0.0, 0.0, 0.0, 0.0, 0.0, 0.0, 0.0, 0.0, 0.0, 0.0, 0.0, 0.0, 0.0, 0.0, 0.0, 0.0, 0.0, 0.0, 0.0, 0.0, 0.0, 0.0, 0.0, 0.0, 0.0, 0.0, 0.0, 0.0, 0.0, 0.0, 0.0, 0.0, 0.0, 0.0, 0.0, 0.0, -10.0, -45.0, -102.0, -174.0, -252.0, -318.0, -358.0, -362.0, -322.0, -215.0, -41.0, 197.0, 416.0, 548.0, 574.0, 574.0, 548.0, 442.0, 283.0, 67.0, -277.0, -443.0, -552.0, -598.0, -609.0, -611.0, -611.0, -611.0, -611.0, -611.0, -612.0, -618.0, -643.0, -656.0, -660.0, -667.0, -677.0, -720.0, -769.0, -789.0, -789.0]	[-490.0, -490.0, -490.0, -490.0, -490.0, -490.0, -490.0, -490.0, -490.0, -490.0, -490.0, -490.0, -490.0, -490.0, -490.0, -490.0, -490.0, -490.0, -490.0, -490.0, -490.0, -490.0, -490.0, -490.0, -490.0, -490.0, -490.0, -490.0, -490.0, -490.0, -490.0, -490.0, -490.0, -490.0, -490.0, -490.0, -490.0, -490.0, -490.0, -490.0, -490.0, -490.0, -490.0, -490.0, -490.0, -490.0, -490.0, -490.0, -490.0, -490.0, -490.0, -490.0, -490.0, -490.0, -490.0, -490.0, -490.0, -490.0, -490.0, -477.0, -425.0, -339.0, -236.0, -142.0, -76.0, -26.0, 9.0, 66.0, 121.0, 195.0, 270.0, 341.0, 379.0, 386.0, 386.0, 386.0, 388.0, 414.0, 448.0, 499.0, 527.0, 540.0, 540.0, 540.0, 540.0, 540.0, 540.0, 540.0, 540.0, 540.0, 537.0, 532.0, 532.0, 531.0, 529.0, 525.0, 508.0, 486.0, 476.0, 475.0]	[0.014534853282384574, 0.02114476985298097, 0.027618835913017392, 0.04614605847746134, 0.06244710611645132, 0.07785693288315088, 0.09581139835063368, 0.11266438174061477, 0.12767655530478805, 0.14592900464776903, 0.16257889475673437, 0.17785594298038632, 0.19581791781820357, 0.21261935983784497, 0.22768102679401636, 0.24607717734761536, 0.26248779299203306, 0.2779269744642079, 0.29567561601288617, 0.31257809267845005, 0.32768788759130985, 0.3459673022152856, 0.3625223017297685, 0.3779051632154733, 0.39565448742359877, 0.4126388841541484, 0.4276773404562846, 0.44601546437479556, 0.46239058126229793, 0.4779598106397316, 0.4956466709263623, 0.5126112703001127, 0.5276992198778316, 0.5459632745478302, 0.5624708287650719, 0.5778728048317134, 0.5956757183885202, 0.6126666003838181, 0.6276965233264491, 0.645987884607166, 0.6622612843057141, 0.6779295002343133, 0.6957996564451605, 0.7126028052298352, 0.7277054321020842, 0.7459848467260599, 0.7625067370245233, 0.7778841371182352, 0.7958580586127937, 0.8126014739973471, 0.8277600795263425, 0.8459398249397054, 0.8622876352164894, 0.8779384432127699, 0.8956502208020538, 0.9126260841730982, 0.9276273350697011, 0.9459617043612525, 0.9625313812866807, 0.9778442693641409, 0.9958062442019582, 1.012621339643374, 1.0276263452833518, 1.0458470506127924, 1.0624146794434637, 1.077846351545304, 1.0955359424697235, 1.1125589098082855, 1.1276632433291525, 1.1458682473748922, 1.162254286929965, 1.1778682309668511, 1.195497747277841, 1.2125814718892798, 1.227677954826504, 1.2460153960855678, 1.2623478464083746, 1.2778365211561322, 1.2954803734319285, 1.3125535167055205, 1.3276571675669402, 1.3458980115829036, 1.3621915499679744, 1.3779082351829857, 1.3954780182102695, 1.4126272788271308, 1.4274097352754325, 1.4456280511803925, 1.4623294826596975, 1.4778301040641963, 1.4954596203751862, 1.5125406143488362, 1.5276415345724672, 1.5459352851612493, 1.5621557781705633, 1.577876559458673, 1.5955582997994497, 1.6125519124325365, 1.6276149447076023, 1.6459537512855604]
5	苹果	False	inanimate	animate	left	1.031	[0.0, 0.0, 0.0, 0.0, 0.0, 0.0, 0.0, 0.0, 0.0, 0.0, 0.0, 0.0, 0.0, 0.0, 0.0, 0.0, 0.0, 0.0, 0.0, 0.0, 0.0, 0.0, 0.0, 0.0, 0.0, 0.0, 0.0, 0.0, 0.0, 0.0, 0.0, 0.0, 0.0, 0.0, 0.0, 0.0, 0.0, 0.0, 0.0, 0.0, 0.0, 0.0, -4.0, -22.0, -72.0, -166.0, -368.0, -478.0, -518.0, -520.0, -510.0, -507.0, -518.0, -534.0, -563.0, -617.0, -742.0, -778.0, -838.0, -843.0, -844.0, -846.0, -846.0]	[-490.0, -490.0, -490.0, -490.0, -490.0, -490.0, -490.0, -490.0, -490.0, -490.0, -490.0, -490.0, -490.0, -490.0, -490.0, -490.0, -490.0, -490.0, -490.0, -490.0, -490.0, -490.0, -490.0, -490.0, -490.0, -490.0, -490.0, -490.0, -490.0, -490.0, -490.0, -490.0, -490.0, -490.0, -490.0, -490.0, -490.0, -490.0, -490.0, -490.0, -490.0, -490.0, -484.0, -469.0, -432.0, -348.0, -131.0, 3.0, 102.0, 184.0, 260.0, 298.0, 314.0, 322.0, 329.0, 335.0, 373.0, 387.0, 421.0, 435.0, 447.0, 452.0, 452.0]	[0.014465903979726136, 0.02068977279122919, 0.02736522536724806, 0.04593306651804596, 0.062256642151623964, 0.07777364749927074, 0.09562946774531156, 0.11241725645959377, 0.12751954211853445, 0.14560951676685363, 0.16222663898952305, 0.1776381724048406, 0.19548443530220538, 0.2123831573408097, 0.22731272829696536, 0.24569761485327035, 0.2622502250596881, 0.27767268125899136, 0.29536944010760635, 0.31234632746782154, 0.32739468244835734, 0.34564440103713423, 0.3621949632652104, 0.3776437019696459, 0.3953783488832414, 0.41238732158672065, 0.4271735326619819, 0.4455174593022093, 0.4624294933164492, 0.4777123441454023, 0.49554085766430944, 0.5123948650434613, 0.5271602547727525, 0.5456229653209448, 0.5622284822165966, 0.5776659569237381, 0.5956159851048142, 0.612378173856996, 0.627298187580891, 0.6455834048101678, 0.6622343190247193, 0.677659505745396, 0.6955552619183436, 0.712369674583897, 0.7274685469456017, 0.7456254229182377, 0.7622118251165375, 0.7776414492400363, 0.7955638293642551, 0.8123103168327361, 0.8273279517889023, 0.8456438890425488, 0.862097512697801, 0.8775916487211362, 0.8954628289211541, 0.9122328682569787, 0.9274788551265374, 0.9455493738641962, 0.9621350934030488, 0.9777432347182184, 0.9954976789886132, 1.0123366677435115, 1.0273013960104436]
6	松鼠	True	inanimate	animate	right	1.618	[0.0, 0.0, 0.0, 0.0, 0.0, 0.0, 0.0, 0.0, 0.0, 0.0, 0.0, 0.0, 0.0, 0.0, 0.0, 0.0, 0.0, 0.0, 0.0, 0.0, 0.0, 0.0, 0.0, 0.0, 0.0, 0.0, 0.0, 0.0, 0.0, 0.0, 0.0, 0.0, 0.0, 0.0, 0.0, 0.0, 0.0, 0.0, 0.0, 0.0, 0.0, 0.0, 0.0, 0.0, 0.0, 0.0, 0.0, 0.0, 0.0, 0.0, 0.0, 0.0, -6.0, -16.0, -24.0, -67.0, -130.0, -209.0, -281.0, -334.0, -371.0, -399.0, -437.0, -475.0, -527.0, -545.0, -550.0, -559.0, -560.0, -560.0, -558.0, -542.0, -481.0, -343.0, -145.0, 95.0, 394.0, 510.0, 557.0, 575.0, 578.0, 578.0, 578.0, 578.0, 578.0, 578.0, 579.0, 566.0, 551.0, 551.0, 551.0, 559.0, 597.0, 677.0, 763.0, 815.0, 837.0, 839.0]	[-490.0, -490.0, -490.0, -490.0, -490.0, -490.0, -490.0, -490.0, -490.0, -490.0, -490.0, -490.0, -490.0, -490.0, -490.0, -490.0, -490.0, -490.0, -490.0, -490.0, -490.0, -490.0, -490.0, -490.0, -490.0, -490.0, -490.0, -490.0, -490.0, -490.0, -490.0, -490.0, -490.0, -490.0, -490.0, -490.0, -490.0, -490.0, -490.0, -490.0, -490.0, -490.0, -490.0, -490.0, -490.0, -490.0, -490.0, -490.0, -490.0, -490.0, -490.0, -490.0, -483.0, -472.0, -466.0, -398.0, -298.0, -189.0, -89.0, -15.0, 44.0, 99.0, 163.0, 213.0, 263.0, 278.0, 283.0, 299.0, 311.0, 320.0, 324.0, 332.0, 347.0, 388.0, 433.0, 470.0, 490.0, 490.0, 490.0, 494.0, 494.0, 494.0, 494.0, 494.0, 494.0, 494.0, 493.0, 485.0, 477.0, 477.0, 477.0, 477.0, 477.0, 475.0, 464.0, 456.0, 452.0, 452.0]	[0.01525097037665546, 0.020323863835074008, 0.028706664801575243, 0.046825652942061424, 0.06382950558327138, 0.07885942852590233, 0.09714123245794326, 0.11367506929673254, 0.12902891752310097, 0.14690180437173694, 0.16376263834536076, 0.1788400065852329, 0.19711327727418393, 0.2136761274887249, 0.22908390627708286, 0.2468520038528368, 0.26381694443989545, 0.27887588075827807, 0.2971354980254546, 0.3135921936482191, 0.32909827632829547, 0.34692030458245426, 0.36379991192370653, 0.37857793108560145, 0.39698534563649446, 0.4136574224103242, 0.4290713451337069, 0.4469800720689818, 0.46379141276702285, 0.47883737832307816, 0.49710416374728084, 0.513708315207623, 0.5290611393284053, 0.5470620261039585, 0.5637791588669643, 0.5788206871366128, 0.5972175204660743, 0.6136793360346928, 0.6290884801419452, 0.646960684331134, 0.6637747556669638, 0.6787504067178816, 0.6970677092904225, 0.7136025702347979, 0.7290267329663038, 0.747010211693123, 0.7638113124994561, 0.7786920728394762, 0.7971786767011508, 0.8135578896617517, 0.8290441751014441, 0.8468402619473636, 0.8637993999291211, 0.8788562882691622, 0.8972176228417084, 0.91361253708601, 0.9290012011770159, 0.9468959333607927, 0.9637506233993918, 0.9787733784178272, 0.9970507450634614, 1.013485595351085, 1.0290380993392318, 1.0468819729285315, 1.0637271056184545, 1.078781604534015, 1.0969961659284309, 1.113737192004919, 1.129013898782432, 1.1470414096256718, 1.1637766329804435, 1.178857414633967, 1.197090749279596, 1.213506143540144, 1.2290084715932608, 1.246611705282703, 1.263665733858943, 1.278840382117778, 1.2970351461553946, 1.3135119803482667, 1.3290149910608307, 1.3467496379744262, 1.3637418852886185, 1.3788578242529184, 1.3970734095200896, 1.4134847078239545, 1.4290474518202245, 1.4465742269530892, 1.4637258767616004, 1.4788865303853527, 1.497084025060758, 1.5135001019807532, 1.52903178462293, 1.5470702181337401, 1.563781889504753, 1.5788182978285477, 1.5972485817037523, 1.613295336253941]
7	厨师	True	animate	inanimate	left	1.14	[0.0, 0.0, 0.0, 0.0, 0.0, 0.0, 0.0, 0.0, 0.0, 0.0, 0.0, 0.0, 0.0, 0.0, 0.0, 0.0, 0.0, 0.0, 0.0, 0.0, 0.0, 0.0, 0.0, 0.0, 0.0, 0.0, 0.0, 0.0, 0.0, 0.0, 0.0, 0.0, 0.0, 0.0, 0.0, 0.0, 0.0, 0.0, 0.0, 0.0, 0.0, 0.0, 0.0, 0.0, 0.0, 0.0, 0.0, 0.0, 0.0, -13.0, -46.0, -110.0, -212.0, -340.0, -465.0, -582.0, -713.0, -745.0, -817.0, -841.0, -858.0, -863.0, -866.0, -868.0, -868.0, -868.0, -868.0, -868.0]	[-490.0, -490.0, -490.0, -490.0, -490.0, -490.0, -490.0, -490.0, -490.0, -490.0, -490.0, -490.0, -490.0, -490.0, -490.0, -490.0, -490.0, -490.0, -490.0, -490.0, -490.0, -490.0, -490.0, -490.0, -490.0, -490.0, -490.0, -490.0, -490.0, -490.0, -490.0, -490.0, -490.0, -490.0, -490.0, -490.0, -490.0, -490.0, -490.0, -490.0, -490.0, -490.0, -490.0, -490.0, -490.0, -490.0, -490.0, -490.0, -490.0, -476.0, -413.0, -288.0, -114.0, 70.0, 218.0, 325.0, 423.0, 444.0, 486.0, 500.0, 513.0, 520.0, 529.0, 533.0, 534.0, 534.0, 534.0, 534.0]	[0.0008508069440722466, 0.005641076480969787, 0.01659855351317674, 0.034935312112793326, 0.051312135765329, 0.06680831988342106, 0.08449791080784053, 0.10146899544633925, 0.11669279565103352, 0.1347735543968156, 0.15131114586256444, 0.1668680872535333, 0.18466076080221683, 0.20150896557606757, 0.21665698976721615, 0.23476130049675703, 0.2513459960464388, 0.2667776681482792, 0.2845484963618219, 0.3014827170409262, 0.31656827731058, 0.3347797666210681, 0.3513620728626847, 0.36677463026717305, 0.3846376184374094, 0.4014557858463377, 0.4163058262784034, 0.4348228087183088, 0.451371664297767, 0.4668313256697729, 0.48448780726175755, 0.5014582092408091, 0.5165396735537797, 0.5348078241804615, 0.551156317233108, 0.5667576318373904, 0.5844629241619259, 0.6014831607462838, 0.61651547299698, 0.6347747490508482, 0.6513027832843363, 0.6668232019292191, 0.6846595661481842, 0.7014726134948432, 0.7166243924293667, 0.7347037858562544, 0.7513151053572074, 0.766719812178053, 0.7846933922264725, 0.8014429516624659, 0.8166240853024647, 0.8348236279562116, 0.8510376355843619, 0.8667416915996, 0.8845449464861304, 0.9013494605896994, 0.9165527807781473, 0.9346328568644822, 0.9511936589842662, 0.9667700564023107, 0.9845135780051351, 1.0014341452624649, 1.0163295830134302, 1.0347117389319465, 1.0509452025871724, 1.0667786238482222, 1.0845695907482877, 1.1014201848302037]
8	衬衫	False	animate	inanimate	right	1.132	[0.0, 0.0, 0.0, 0.0, 0.0, 0.0, 0.0, 0.0, 0.0, 0.0, 0.0, 0.0, 0.0, 0.0, 0.0, 0.0, 0.0, 0.0, 0.0, 0.0, 0.0, 0.0, 0.0, 0.0, 0.0, 0.0, 0.0, 0.0, 0.0, 0.0, 0.0, 0.0, 0.0, 0.0, 0.0, 0.0, 0.0, 0.0, 0.0, 0.0, 0.0, 0.0, 0.0, 0.0, 0.0, 0.0, 0.0, 0.0, 0.0, 0.0, 0.0, 0.0, -5.0, -19.0, -52.0, -105.0, -151.0, -168.0, -167.0, -134.0, -37.0, 121.0, 324.0, 537.0, 705.0, 835.0, 932.0, 959.0, 959.0]	[-490.0, -490.0, -490.0, -490.0, -490.0, -490.0, -490.0, -490.0, -490.0, -490.0, -490.0, -490.0, -490.0, -490.0, -490.0, -490.0, -490.0, -490.0, -490.0, -490.0, -490.0, -490.0, -490.0, -490.0, -490.0, -490.0, -490.0, -490.0, -490.0, -490.0, -490.0, -490.0, -490.0, -490.0, -490.0, -490.0, -490.0, -490.0, -490.0, -490.0, -490.0, -490.0, -490.0, -490.0, -490.0, -490.0, -490.0, -490.0, -490.0, -490.0, -490.0, -490.0, -480.0, -461.0, -409.0, -282.0, -154.0, -89.0, 7.0, 42.0, 103.0, 171.0, 237.0, 271.0, 295.0, 313.0, 343.0, 385.0, 386.0]	[0.014846490579657257, 0.0216482364339754, 0.028342462377622724, 0.04690381814725697, 0.06320964451879263, 0.07857748726382852, 0.09655857679899782, 0.11359963472932577, 0.12836604844778776, 0.14660859911236912, 0.16308850538916886, 0.17854953208006918, 0.19636473362334073, 0.21330885298084468, 0.22836949594784528, 0.24664788658265024, 0.26304553158115596, 0.27859735290985554, 0.2963859305018559, 0.313361793756485, 0.3281507355859503, 0.3466325607150793, 0.3631517202593386, 0.378536629723385, 0.3962938046315685, 0.4132198332808912, 0.4283565935911611, 0.44662235490977764, 0.4629657279001549, 0.47860390646383166, 0.4963859987910837, 0.5133345554349944, 0.5283091823803261, 0.5466370662907138, 0.5631930899107829, 0.5785554713802412, 0.5965054994449019, 0.613300456199795, 0.628351200488396, 0.6467797777149826, 0.6631996093783528, 0.6785766681423411, 0.6964700350072235, 0.7132878609700128, 0.7282938907155767, 0.7467084731906652, 0.7630996328080073, 0.778605715604499, 0.796501130447723, 0.8132861885242164, 0.8283007515128702, 0.846670278115198, 0.8631440403405577, 0.8785685444017872, 0.8965397351421416, 0.9132541372673586, 0.9281297776615247, 0.9464962322963402, 0.9631266663782299, 0.978522157180123, 0.996294692158699, 1.013271579402499, 1.0283298330614343, 1.0465389330638573, 1.063061164575629, 1.0785426712827757, 1.0966176274232566, 1.1132456721970811, 1.128353760461323]
9	花瓶	False	inanimate	animate	left	1.332	[0.0, 0.0, 0.0, 0.0, 0.0, 0.0, 0.0, 0.0, 0.0, 0.0, 0.0, 0.0, 0.0, 0.0, 0.0, 0.0, 0.0, 0.0, 0.0, 0.0, 0.0, 0.0, 0.0, 0.0, 0.0, 0.0, 0.0, 0.0, 0.0, 0.0, 0.0, 0.0, 0.0, 0.0, 0.0, 0.0, 0.0, 0.0, 0.0, 0.0, 0.0, 0.0, 0.0, 0.0, 0.0, 0.0, 0.0, 0.0, 0.0, 0.0, 0.0, 0.0, 0.0, 0.0, 0.0, 0.0, 0.0, 0.0, 0.0, 0.0, 0.0, 3.0, 43.0, 119.0, 260.0, 343.0, 374.0, 377.0, 365.0, 327.0, 246.0, 129.0, -28.0, -236.0, -459.0, -631.0, -749.0, -769.0, -772.0, -772.0]	[-490.0, -490.0, -490.0, -490.0, -490.0, -490.0, -490.0, -490.0, -490.0, -490.0, -490.0, -490.0, -490.0, -490.0, -490.0, -490.0, -490.0, -490.0, -490.0, -490.0, -490.0, -490.0, -490.0, -490.0, -490.0, -490.0, -490.0, -490.0, -490.0, -490.0, -490.0, -490.0, -490.0, -490.0, -490.0, -490.0, -490.0, -490.0, -490.0, -490.0, -490.0, -490.0, -490.0, -490.0, -490.0, -490.0, -490.0, -490.0, -490.0, -490.0, -490.0, -490.0, -490.0, -490.0, -490.0, -490.0, -490.0, -490.0, -490.0, -490.0, -481.0, -448.0, -339.0, -205.0, 13.0, 115.0, 149.0, 152.0, 161.0, 182.0, 220.0, 263.0, 313.0, 380.0, 430.0, 472.0, 510.0, 519.0, 520.0, 520.0]	[0.008125299238599837, 0.012941168854013085, 0.017106457380577922, 0.033162769163027406, 0.04966690996661782, 0.065049430122599, 0.08280421572271734, 0.09977939631789923, 0.1146854154067114, 0.13309180596843362, 0.14958604821003973, 0.16501294157933444, 0.1830356736900285, 0.19975587853696197, 0.21458134287968278, 0.23297032550908625, 0.24962499435059726, 0.26513039437122643, 0.2830022572306916, 0.3025019378401339, 0.3148462516255677, 0.3330993835115805, 0.34965404169633985, 0.36508434847928584, 0.38301355531439185, 0.3998330880422145, 0.4149107977282256, 0.4330611884361133, 0.44971107854507864, 0.46510144928470254, 0.4829760427819565, 0.49984302080702037, 0.5146114826202393, 0.5330721451900899, 0.5496257793856785, 0.5650854407576844, 0.5829835862386972, 0.5997652310179546, 0.6145579274743795, 0.6329551020171493, 0.6496445868397132, 0.6650380296632648, 0.6829559723846614, 0.6998352385126054, 0.714923529420048, 0.7330404694657773, 0.7496422316180542, 0.7650633223820478, 0.7829911638982594, 0.7997717845719308, 0.8149252701550722, 0.8330466476036236, 0.8496292950585485, 0.865084177814424, 0.8829386327415705, 0.8998394027585164, 0.9146580405067652, 0.9330845697550103, 0.949666534550488, 0.9650780679658055, 0.98295505088754, 0.999768098234199, 1.0149120264686644, 1.033093819860369, 1.049574067350477, 1.065070251468569, 1.082898082328029, 1.0996886016801, 1.114561852766201, 1.132986675365828, 1.1494891095208004, 1.1649842696497217, 1.1828499884577468, 1.1997033131774515, 1.214724361547269, 1.2329781762091443, 1.2495389783289284, 1.2649959090631455, 1.2828800599090755, 1.2997040300397202]
10	公路	False	animate	inanimate	right	1.566	[0.0, 0.0, 0.0, 0.0, 0.0, 0.0, 0.0, 0.0, 0.0, 0.0, 0.0, 0.0, 0.0, 0.0, 0.0, 0.0, 0.0, 0.0, 0.0, 0.0, 0.0, 0.0, 0.0, 0.0, 0.0, 0.0, 0.0, 0.0, 0.0, 0.0, 0.0, 0.0, 0.0, 0.0, 0.0, 0.0, 0.0, 0.0, 0.0, 0.0, 0.0, 0.0, 0.0, 0.0, 0.0, 0.0, 0.0, 0.0, 0.0, 0.0, 0.0, 0.0, 0.0, 0.0, 0.0, -23.0, -43.0, -54.0, -58.0, -59.0, -59.0, -57.0, -9.0, 30.0, 204.0, 355.0, 503.0, 624.0, 705.0, 744.0, 765.0, 773.0, 775.0, 775.0, 775.0, 775.0, 775.0, 775.0, 775.0, 775.0, 775.0, 775.0, 775.0, 771.0, 770.0, 769.0, 768.0, 768.0, 768.0, 768.0, 768.0, 768.0, 768.0, 768.0]	[-490.0, -490.0, -490.0, -490.0, -490.0, -490.0, -490.0, -490.0, -490.0, -490.0, -490.0, -490.0, -490.0, -490.0, -490.0, -490.0, -490.0, -490.0, -490.0, -490.0, -490.0, -490.0, -490.0, -490.0, -490.0, -490.0, -490.0, -490.0, -490.0, -490.0, -490.0, -490.0, -490.0, -490.0, -490.0, -490.0, -490.0, -490.0, -490.0, -490.0, -490.0, -490.0, -490.0, -490.0, -490.0, -490.0, -490.0, -490.0, -490.0, -490.0, -490.0, -490.0, -490.0, -490.0, -486.0, -459.0, -441.0, -432.0, -430.0, -430.0, -429.0, -410.0, -309.0, -237.0, 7.0, 119.0, 204.0, 256.0, 277.0, 298.0, 314.0, 321.0, 322.0, 322.0, 322.0, 322.0, 322.0, 322.0, 322.0, 322.0, 322.0, 337.0, 359.0, 378.0, 388.0, 394.0, 396.0, 396.0, 396.0, 396.0, 396.0, 396.0, 396.0, 396.0]	[0.00885950680822134, 0.01330980856437236, 0.01830965664703399, 0.03473870421294123, 0.05104145861696452, 0.06655573332682252, 0.08443066815380007, 0.10122664889786392, 0.11602753726765513, 0.13434927724301815, 0.1510735780466348, 0.16654382075648755, 0.18442728894297034, 0.20119562174659222, 0.21608320868108422, 0.23452339135110378, 0.25112139876000583, 0.2665660415077582, 0.28442834701854736, 0.3012178424978629, 0.31636825611349195, 0.334525132086128, 0.3510951502248645, 0.3665599316591397, 0.38443554926197976, 0.4012707832735032, 0.4162600876297802, 0.43447499023750424, 0.4509542138548568, 0.46650774183217436, 0.48444104462396353, 0.5012295161141083, 0.5164294230053201, 0.5345368057023734, 0.5508986106142402, 0.5665924266213551, 0.5842977188294753, 0.6012735822005197, 0.6160574039677158, 0.6345023651374504, 0.6510372260818258, 0.6665074687916785, 0.6844022009754553, 0.701238117646426, 0.716235272702761, 0.7345665699103847, 0.7508587429765612, 0.7666894334834069, 0.7844401231268421, 0.8012688717572019, 0.8163226881297305, 0.8345532920211554, 0.8510785956168547, 0.8665048064431176, 0.884545287815854, 0.9012255566194654, 0.9160281517542899, 0.9344423928996548, 0.9510810191277415, 0.9664710485376418, 0.9844596473267302, 1.00118804408703, 1.0160182871622965, 1.0344693923834711, 1.0508643066277727, 1.0664618667215109, 1.0843094948213547, 1.101161454222165, 1.1160405079135671, 1.1345271117752418, 1.1509800527710468, 1.1665407487889752, 1.1843392249429598, 1.201218149624765, 1.216207453981042, 1.2343755940673873, 1.2509527802467346, 1.2665093803079799, 1.2843426724430174, 1.3011280718492344, 1.316377472016029, 1.3343872334808111, 1.3508691877359524, 1.366486203740351, 1.3842345039593056, 1.4010857807006687, 1.4160153516568244, 1.4343603022862226, 1.4509692324791104, 1.466515933861956, 1.4842703781323507, 1.5011486201547086, 1.5164488789159805, 1.534555237623863]
11	鸭子	True	inanimate	animate	right	1.334	[0.0, 0.0, 0.0, 0.0, 0.0, 0.0, 0.0, 0.0, 0.0, 0.0, 0.0, 0.0, 0.0, 0.0, 0.0, 0.0, 0.0, 0.0, 0.0, 0.0, 0.0, 0.0, 0.0, 0.0, 0.0, 0.0, 0.0, 0.0, 0.0, 0.0, 0.0, 0.0, 0.0, 0.0, 0.0, 0.0, 0.0, 0.0, 0.0, 0.0, 0.0, 0.0, 0.0, 0.0, 0.0, 0.0, 0.0, 0.0, 0.0, 0.0, -6.0, -11.0, -61.0, -123.0, -200.0, -288.0, -379.0, -469.0, -552.0, -629.0, -701.0, -787.0, -818.0, -826.0, -843.0, -845.0, -846.0, -846.0, -846.0, -846.0, -842.0, -796.0, -605.0, -147.0, 175.0, 450.0, 674.0, 828.0, 899.0, 909.0, 909.0]	[-490.0, -490.0, -490.0, -490.0, -490.0, -490.0, -490.0, -490.0, -490.0, -490.0, -490.0, -490.0, -490.0, -490.0, -490.0, -490.0, -490.0, -490.0, -490.0, -490.0, -490.0, -490.0, -490.0, -490.0, -490.0, -490.0, -490.0, -490.0, -490.0, -490.0, -490.0, -490.0, -490.0, -490.0, -490.0, -490.0, -490.0, -490.0, -490.0, -490.0, -490.0, -490.0, -490.0, -490.0, -490.0, -490.0, -490.0, -490.0, -488.0, -469.0, -453.0, -443.0, -367.0, -280.0, -171.0, -44.0, 83.0, 188.0, 292.0, 371.0, 424.0, 466.0, 483.0, 489.0, 496.0, 498.0, 498.0, 498.0, 498.0, 498.0, 497.0, 495.0, 517.0, 540.0, 540.0, 540.0, 512.0, 507.0, 507.0, 507.0, 507.0]	[0.0070917424745857716, 0.011576860211789608, 0.016434031073004007, 0.031349607394076884, 0.04777421767357737, 0.06308164447546005, 0.08083677140530199, 0.0977723574033007, 0.11287532572168857, 0.13117590302135795, 0.14768038515467197, 0.16315916122402996, 0.18094364285934716, 0.19782427418977022, 0.21285965852439404, 0.2311998304212466, 0.24768417398445308, 0.26305747812148184, 0.28108191688079387, 0.2978451296221465, 0.3129030419513583, 0.3311940619023517, 0.3477091253735125, 0.36310837091878057, 0.38110311364289373, 0.397846870473586, 0.4129116093972698, 0.43113982409704477, 0.44768560759257525, 0.4631677969591692, 0.48105877451598644, 0.49788206187076867, 0.5128577129216865, 0.5312187061645091, 0.5477047563763335, 0.5630514365620911, 0.5808045153971761, 0.5977964213816449, 0.6128591123269871, 0.6312794975237921, 0.6476399372331798, 0.6630678545916453, 0.6807683681836352, 0.6978718901518732, 0.712925365078263, 0.7311464117374271, 0.7476850273087621, 0.7630600380944088, 0.7809458955889568, 0.7977988789789379, 0.8128554259892553, 0.8311669259564951, 0.8476594614330679, 0.8630750909214839, 0.8812149002915248, 0.8979197450680658, 0.9128718440188095, 0.9310522720916197, 0.9475461730035022, 0.963045087759383, 0.9808316172566265, 0.997727608657442, 1.0126274836948141, 1.0310553782619536, 1.0475649804575369, 1.0630761831998825, 1.0810364512726665, 1.0977300320519134, 1.1129128723405302, 1.1310922763077542, 1.1476090465439484, 1.1631465319078416, 1.1807453281944618, 1.1978099382249638, 1.2128729705000296, 1.2311213237699121, 1.247368099517189, 1.2631008274620399, 1.2811829515267164, 1.2978478602599353, 1.3128712979378179]
12	画家	True	animate	inanimate	left	1.469	[0.0, 0.0, 0.0, 0.0, 0.0, 0.0, 0.0, 0.0, 0.0, 0.0, 0.0, 0.0, 0.0, 0.0, 0.0, 0.0, 0.0, 0.0, 0.0, 0.0, 0.0, 0.0, 0.0, 0.0, 0.0, 0.0, 0.0, 0.0, -1.0, -1.0, -1.0, -1.0, -1.0, -1.0, -1.0, -1.0, -1.0, -1.0, -1.0, -2.0, 10.0, 43.0, 122.0, 225.0, 344.0, 437.0, 503.0, 560.0, 608.0, 639.0, 653.0, 653.0, 653.0, 653.0, 651.0, 637.0, 618.0, 575.0, 485.0, 350.0, 197.0, 26.0, -149.0, -309.0, -480.0, -570.0, -630.0, -665.0, -692.0, -712.0, -732.0, -739.0, -739.0, -739.0, -739.0, -739.0, -739.0, -739.0, -739.0, -741.0, -745.0, -751.0, -753.0, -753.0, -753.0, -753.0, -753.0, -753.0, -753.0]	[-490.0, -490.0, -490.0, -490.0, -490.0, -490.0, -490.0, -490.0, -490.0, -490.0, -490.0, -490.0, -490.0, -490.0, -490.0, -490.0, -490.0, -490.0, -490.0, -490.0, -490.0, -490.0, -490.0, -490.0, -490.0, -490.0, -490.0, -490.0, -490.0, -489.0, -489.0, -489.0, -489.0, -489.0, -489.0, -489.0, -489.0, -489.0, -489.0, -489.0, -452.0, -379.0, -256.0, -117.0, -4.0, 68.0, 130.0, 217.0, 317.0, 389.0, 419.0, 419.0, 419.0, 419.0, 419.0, 419.0, 419.0, 418.0, 418.0, 433.0, 455.0, 481.0, 503.0, 526.0, 540.0, 540.0, 540.0, 540.0, 540.0, 540.0, 540.0, 540.0, 540.0, 540.0, 540.0, 540.0, 540.0, 540.0, 540.0, 538.0, 531.0, 521.0, 514.0, 514.0, 514.0, 514.0, 514.0, 514.0, 514.0]	[0.008582685608416796, 0.012817606097087264, 0.01779151288792491, 0.03416287526488304, 0.05057622154708952, 0.06606045889202505, 0.08370601781643927, 0.10073649452533573, 0.11564490280579776, 0.13403320277575403, 0.15043391974177212, 0.16598813037853688, 0.18391324125695974, 0.20075154723599553, 0.2158186755841598, 0.23402197286486626, 0.25055273773614317, 0.26602161512710154, 0.28374670480843633, 0.3003662162227556, 0.3155296004842967, 0.3339735376648605, 0.3505790545605123, 0.3659233453217894, 0.38394573610275984, 0.4007034875685349, 0.41583137318957597, 0.4339763025054708, 0.450586598017253, 0.4660005207406357, 0.48392392497044057, 0.5007076177280396, 0.5157474393490702, 0.5339698513271287, 0.5505726374685764, 0.565966080292128, 0.5839413671055809, 0.6006974118063226, 0.6156723801977932, 0.6340425894595683, 0.6505603836849332, 0.6660033196676522, 0.6839912357972935, 0.7007254352793097, 0.7159400194650516, 0.7340255569433793, 0.7504918097984046, 0.7660354392137378, 0.7838315260596573, 0.8006404774496332, 0.8157980589894578, 0.8339126097271219, 0.8505184679524973, 0.8659996333299205, 0.8838592082029209, 0.9006200316362083, 0.9157072985544801, 0.9340788731351495, 0.9504673021147028, 0.9659686061786488, 0.9838281810516492, 1.0006204070523381, 1.0158343085786328, 1.0339464700082317, 1.0504936188226566, 1.0659758083056659, 1.083881463157013, 1.1006487718550488, 1.1156653828220442, 1.1339963388163596, 1.1504997969605029, 1.1659539970569313, 1.183584537357092, 1.2007283365819603, 1.2156002223491669, 1.2339584849542007, 1.2502216446446255, 1.2660120578948408, 1.2838190674083307, 1.3006491814740002, 1.315600256435573, 1.334091980359517, 1.3504486653255299, 1.3660349613055587, 1.3838440189138055, 1.4006840315414593, 1.4157422852003947, 1.433870489243418, 1.4504582567606121]
13	蚂蚁	True	animate	inanimate	left	1.774	[0.0, 0.0, 0.0, 0.0, 0.0, 0.0, 0.0, 0.0, 0.0, 0.0, 0.0, 0.0, 0.0, 0.0, 0.0, 0.0, 0.0, 0.0, 0.0, 0.0, 0.0, 0.0, 0.0, 0.0, 0.0, 0.0, 0.0, 0.0, 0.0, 0.0, 0.0, 0.0, 0.0, 0.0, 0.0, 0.0, 0.0, 0.0, 0.0, 0.0, 0.0, 0.0, 0.0, 0.0, -3.0, -6.0, -9.0, -10.0, -10.0, -11.0, -11.0, -11.0, -32.0, -69.0, -134.0, -205.0, -279.0, -355.0, -421.0, -475.0, -502.0, -513.0, -516.0, -516.0, -517.0, -521.0, -523.0, -524.0, -524.0, -528.0, -549.0, -560.0, -587.0, -619.0, -633.0, -639.0, -643.0, -645.0, -648.0, -649.0, -649.0, -649.0, -650.0, -653.0, -655.0, -658.0, -658.0, -658.0, -658.0, -658.0, -658.0, -658.0, -660.0, -660.0, -665.0, -665.0, -665.0, -666.0, -666.0, -666.0, -668.0, -668.0, -668.0, -668.0, -668.0, -668.0]	[-490.0, -490.0, -490.0, -490.0, -490.0, -490.0, -490.0, -490.0, -490.0, -490.0, -490.0, -490.0, -490.0, -490.0, -490.0, -490.0, -490.0, -490.0, -490.0, -490.0, -490.0, -490.0, -490.0, -490.0, -490.0, -490.0, -490.0, -490.0, -490.0, -490.0, -490.0, -490.0, -490.0, -490.0, -490.0, -490.0, -490.0, -490.0, -490.0, -490.0, -490.0, -490.0, -490.0, -487.0, -477.0, -470.0, -463.0, -459.0, -459.0, -458.0, -455.0, -447.0, -352.0, -243.0, -141.0, -50.0, 36.0, 124.0, 191.0, 235.0, 258.0, 278.0, 286.0, 291.0, 302.0, 309.0, 313.0, 314.0, 314.0, 319.0, 331.0, 335.0, 347.0, 355.0, 360.0, 363.0, 365.0, 367.0, 368.0, 369.0, 369.0, 369.0, 371.0, 372.0, 373.0, 375.0, 375.0, 375.0, 375.0, 375.0, 375.0, 375.0, 376.0, 376.0, 379.0, 380.0, 380.0, 380.0, 380.0, 380.0, 380.0, 380.0, 380.0, 380.0, 380.0, 380.0]	[0.0055724685080349445, 0.010697585879825056, 0.025822740863077343, 0.044486837927252054, 0.06098415213637054, 0.07636598963290453, 0.0943870150949806, 0.11113111313898116, 0.12609242810867727, 0.14444147481117398, 0.16097155690658838, 0.17634725046809763, 0.19434335851110518, 0.21105980861466378, 0.2261436622356996, 0.24443502351641655, 0.26094599114730954, 0.2763780045788735, 0.2941263047978282, 0.31105506408493966, 0.3261232164222747, 0.344395121675916, 0.36090984393376857, 0.3763326413463801, 0.3941792455734685, 0.41110117826610804, 0.4261153999250382, 0.4443886704975739, 0.4607986034825444, 0.4763156088301912, 0.49421375431120396, 0.5110653723822907, 0.5261051940033212, 0.5443842672975734, 0.5609419975662604, 0.5763528483221307, 0.5943349617300555, 0.6111060251714662, 0.6260786041384563, 0.6443737201625481, 0.6607662450987846, 0.6763928184518591, 0.6941561372950673, 0.7112139206146821, 0.7260776142356917, 0.7444495302625, 0.7609116871608421, 0.776268265908584, 0.7941261341329664, 0.8111170161282644, 0.826080379076302, 0.8443529671058059, 0.8607809906825423, 0.876350220059976, 0.8944453147705644, 0.9112184261903167, 0.9260602745926008, 0.9442785906139761, 0.9605820275610313, 0.9762516089249402, 0.9942347463220358, 1.0109569991473109, 1.02585141279269, 1.044207968749106, 1.0607373683014885, 1.0763468749355525, 1.0944457243895158, 1.1110546544659883, 1.126084236195311, 1.1442776347976178, 1.1608148850500584, 1.1762742050923407, 1.194451219867915, 1.210961846052669, 1.2258497744333, 1.2442073543788865, 1.260807751212269, 1.2762988152680919, 1.2942188060842454, 1.310991576174274, 1.3261034190654755, 1.3443234417354688, 1.3608309959527105, 1.3762691534357145, 1.394179586903192, 1.41102233028505, 1.4261437305249274, 1.4443309851922095, 1.4606122355908155, 1.4763883127598092, 1.4942864583572373, 1.5110237296903506, 1.5259690020466223, 1.544298934051767, 1.560790445539169, 1.576299600303173, 1.594253041781485, 1.6110353692201898, 1.6258208976360038, 1.6441924722166732, 1.6607679517474025, 1.6763221623841673, 1.6939018440898508, 1.7110275527229533, 1.726114819641225, 1.7443293809192255]
14	月亮	False	inanimate	animate	left	1.77	[0.0, 0.0, 0.0, 0.0, 0.0, 0.0, 0.0, 0.0, 0.0, 0.0, 0.0, 0.0, 0.0, 0.0, 0.0, 0.0, 0.0, 0.0, 0.0, 0.0, 0.0, 0.0, 0.0, 0.0, 0.0, 0.0, 0.0, 0.0, 0.0, 0.0, 0.0, 0.0, 0.0, 0.0, 0.0, 0.0, -18.0, -77.0, -106.0, -133.0, -175.0, -233.0, -324.0, -435.0, -534.0, -581.0, -590.0, -594.0, -603.0, -624.0, -639.0, -645.0, -647.0, -627.0, -566.0, -480.0, -436.0, -430.0, -430.0, -430.0, -430.0, -428.0, -400.0, -376.0, -259.0, -159.0, -86.0, -45.0, -36.0, -36.0, -36.0, -63.0, -161.0, -385.0, -558.0, -639.0, -836.0, -915.0, -959.0, -960.0, -960.0, -960.0, -960.0, -960.0, -960.0, -960.0, -960.0, -960.0, -960.0, -960.0, -960.0, -960.0, -960.0, -960.0, -960.0, -960.0, -960.0, -960.0, -956.0, -944.0, -933.0, -922.0, -916.0, -916.0, -914.0, -914.0, -914.0]	[-490.0, -490.0, -490.0, -490.0, -490.0, -490.0, -490.0, -490.0, -490.0, -490.0, -490.0, -490.0, -490.0, -490.0, -490.0, -490.0, -490.0, -490.0, -490.0, -490.0, -490.0, -490.0, -490.0, -490.0, -490.0, -490.0, -490.0, -490.0, -490.0, -490.0, -490.0, -490.0, -490.0, -490.0, -490.0, -490.0, -474.0, -410.0, -381.0, -351.0, -303.0, -221.0, -91.0, 55.0, 176.0, 237.0, 267.0, 298.0, 326.0, 353.0, 364.0, 368.0, 375.0, 393.0, 430.0, 466.0, 478.0, 480.0, 480.0, 480.0, 480.0, 480.0, 480.0, 480.0, 480.0, 480.0, 480.0, 480.0, 478.0, 478.0, 478.0, 478.0, 478.0, 478.0, 479.0, 479.0, 479.0, 479.0, 479.0, 479.0, 479.0, 479.0, 479.0, 479.0, 479.0, 479.0, 479.0, 479.0, 479.0, 479.0, 479.0, 479.0, 479.0, 479.0, 479.0, 479.0, 479.0, 479.0, 472.0, 459.0, 449.0, 442.0, 439.0, 439.0, 439.0, 439.0, 439.0]	[0.01305152173154056, 0.020464936620555818, 0.03476782003417611, 0.04286936251446605, 0.05919362080749124, 0.07467956491746008, 0.09251592913642526, 0.10940714180469513, 0.12450499006081372, 0.14274310343898833, 0.15937285486143082, 0.17466594569850713, 0.19271427777130157, 0.20945325586944818, 0.22448590956628323, 0.24275371886324137, 0.2593554810155183, 0.274614438530989, 0.29248937335796654, 0.3094331513857469, 0.3245132502634078, 0.3428042703308165, 0.35934390977490693, 0.3746943445876241, 0.39262867148499936, 0.4094229454640299, 0.4244979245122522, 0.44286506169009954, 0.4593176612397656, 0.47466024546884, 0.4925409829011187, 0.5093857743777335, 0.5244245720095932, 0.5428278904873878, 0.5592890233965591, 0.5746879276121035, 0.5926222543930635, 0.6093868324533105, 0.6245113046607003, 0.6426743248011917, 0.659325921558775, 0.6746326657012105, 0.6926366245606914, 0.7095756238559261, 0.7244754988932982, 0.7426743588875979, 0.759138222434558, 0.7746402091579512, 0.7922915708040819, 0.8093118073884398, 0.8244140930473804, 0.8426156836794689, 0.8590245926752687, 0.8746388780418783, 0.8926076794741675, 0.9094599802047014, 0.9244649858446792, 0.9426727205282077, 0.9591157627291977, 0.9746587094850838, 0.9923325990093872, 1.009345326339826, 1.024474918609485, 1.0425915173254907, 1.0591953274561092, 1.0746805889066309, 1.0925271931337193, 1.1095177336828783, 1.1244367234176025, 1.142713748733513, 1.1591134417103603, 1.174635567003861, 1.1924060540040955, 1.2093983012018725, 1.2244551895419136, 1.2426687268307433, 1.2591575077967718, 1.2746574465418234, 1.292676082579419, 1.3095601273234934, 1.3244149463716894, 1.3429350008955225, 1.3592459472129121, 1.3746697686146945, 1.3925747408065945, 1.40944376681, 1.4244446764932945, 1.4427899684524164, 1.4592787493020296, 1.4746493228012696, 1.4922839590581134, 1.5093666596803814, 1.5244849879527465, 1.5426824826281518, 1.5591562448535115, 1.5746619862038642, 1.5923502118093893, 1.6093141285236925, 1.6244594220770523, 1.6428327033063397, 1.659224545583129, 1.6747159509686753, 1.6925915685715154, 1.7107426419388503, 1.724513728171587, 1.7427829027874395, 1.7591593851102516]
15	沙发	False	inanimate	animate	left	0.979	[0.0, 0.0, 0.0, 0.0, 0.0, 0.0, 0.0, 0.0, 0.0, 0.0, 0.0, 0.0, 0.0, 0.0, 0.0, 0.0, 0.0, 0.0, 0.0, 0.0, 0.0, 0.0, 0.0, 0.0, 0.0, 0.0, 0.0, 0.0, 0.0, 0.0, 0.0, 0.0, 0.0, 0.0, -6.0, -18.0, -58.0, -135.0, -303.0, -362.0, -558.0, -680.0, -784.0, -849.0, -884.0, -892.0, -892.0, -888.0, -883.0, -881.0, -881.0, -881.0, -880.0, -879.0, -877.0, -877.0, -877.0, -877.0, -877.0, -877.0]	[-490.0, -490.0, -490.0, -490.0, -490.0, -490.0, -490.0, -490.0, -490.0, -490.0, -490.0, -490.0, -490.0, -490.0, -490.0, -490.0, -490.0, -490.0, -490.0, -490.0, -490.0, -490.0, -490.0, -490.0, -490.0, -490.0, -490.0, -490.0, -490.0, -490.0, -490.0, -490.0, -490.0, -490.0, -488.0, -485.0, -468.0, -427.0, -282.0, -221.0, -24.0, 89.0, 190.0, 265.0, 317.0, 346.0, 365.0, 382.0, 393.0, 398.0, 398.0, 398.0, 400.0, 404.0, 409.0, 412.0, 413.0, 413.0, 413.0, 413.0]	[0.013458288623951375, 0.019009731127880514, 0.025116181350313127, 0.04380860913079232, 0.060246190056204796, 0.07563109940383583, 0.09355040756054223, 0.11038939631544054, 0.1254787112120539, 0.14369941665790975, 0.16021823475603014, 0.17563215759582818, 0.19339240447152406, 0.21037645975593477, 0.22514765220694244, 0.24358032550662756, 0.2602407969534397, 0.2756673489930108, 0.2935770999174565, 0.3102805792586878, 0.3255013074958697, 0.34367354353889823, 0.3602237644372508, 0.37564553786069155, 0.3935201313579455, 0.4103577547939494, 0.4255163603229448, 0.4436568523524329, 0.46023164922371507, 0.4756192893255502, 0.4934252748498693, 0.5103612021775916, 0.5252508372068405, 0.5436602998524904, 0.560309165972285, 0.5756688168039545, 0.5935942688956857, 0.61035099637229, 0.6252310740528628, 0.643543939338997, 0.6601061068940908, 0.675634034909308, 0.6934475298039615, 0.7102547745453194, 0.7254410281311721, 0.7436979147605598, 0.7601378849940374, 0.7755873063579202, 0.7934567799093202, 0.8102984993020073, 0.8254243369447067, 0.8435132876038551, 0.8601109537994489, 0.8756112338742241, 0.8934373580850661, 0.9102695201290771, 0.9254301736364141, 0.9435341430362314, 0.9601434145588428, 0.9756088786525652]
16	钥匙	False	inanimate	animate	left	1.105	[0.0, 0.0, 0.0, 0.0, 0.0, 0.0, 0.0, 0.0, 0.0, 0.0, 0.0, 0.0, 0.0, 0.0, 0.0, 0.0, 0.0, 0.0, 0.0, 0.0, 0.0, 0.0, 0.0, 0.0, 0.0, 0.0, 0.0, 0.0, 0.0, 0.0, 0.0, 0.0, 1.0, -2.0, -17.0, -43.0, -105.0, -183.0, -271.0, -359.0, -444.0, -538.0, -635.0, -735.0, -770.0, -788.0, -798.0, -803.0, -804.0, -804.0, -804.0, -804.0, -804.0, -804.0, -804.0, -804.0, -804.0, -804.0, -804.0, -804.0, -804.0, -804.0, -804.0, -804.0, -804.0, -804.0, -804.0]	[-490.0, -490.0, -490.0, -490.0, -490.0, -490.0, -490.0, -490.0, -490.0, -490.0, -490.0, -490.0, -490.0, -490.0, -490.0, -490.0, -490.0, -490.0, -490.0, -490.0, -490.0, -490.0, -490.0, -490.0, -490.0, -490.0, -490.0, -490.0, -490.0, -490.0, -490.0, -490.0, -490.0, -487.0, -479.0, -465.0, -422.0, -374.0, -302.0, -180.0, -17.0, 159.0, 305.0, 453.0, 512.0, 540.0, 540.0, 540.0, 540.0, 540.0, 540.0, 540.0, 540.0, 540.0, 540.0, 540.0, 540.0, 540.0, 540.0, 540.0, 540.0, 540.0, 540.0, 540.0, 540.0, 540.0, 540.0]	[0.016063002054579556, 0.021089815418235958, 0.030255976133048534, 0.04840056411921978, 0.06389640690758824, 0.08297795441467315, 0.09878406906500459, 0.11515850329305977, 0.13063864468131214, 0.14850982488133013, 0.16532253101468086, 0.1804026298923418, 0.19861207122448832, 0.21515102812554687, 0.2306127374758944, 0.24829004053026438, 0.26537342369556427, 0.2804320186842233, 0.2986329266568646, 0.31514560093637556, 0.3306458810111508, 0.34856587182730436, 0.3653359111631289, 0.3803392101544887, 0.3986015581758693, 0.41517669637687504, 0.4306721977191046, 0.44859457795973867, 0.4653345800470561, 0.480425942922011, 0.4985558537300676, 0.5149808052228764, 0.5306401465786621, 0.5485693534137681, 0.5653165235416964, 0.5804300730815157, 0.5987419143784791, 0.6151344393147156, 0.630622431403026, 0.6484273929381743, 0.6652390749659389, 0.6805140752112493, 0.6985511432867497, 0.715049481485039, 0.730658988119103, 0.7485086643137038, 0.7651964424876496, 0.7803765520220622, 0.7986180786974728, 0.8151416755281389, 0.8306730169570073, 0.848432581173256, 0.8652681566309184, 0.8802694075275213, 0.8985307315597311, 0.915103139122948, 0.9307655523298308, 0.9481571594951674, 0.9652849159901962, 0.9804308923194185, 0.9984956083353609, 1.015120581141673, 1.030610621208325, 1.0482285321922973, 1.0668421119917184, 1.0801537638762966, 1.0986796211218461]
17	铅笔	False	animate	inanimate	right	1.033	[0.0, 0.0, 0.0, 0.0, 0.0, 0.0, 0.0, 0.0, 0.0, 0.0, 0.0, 0.0, 0.0, 0.0, 0.0, 0.0, 0.0, 0.0, 0.0, 0.0, 0.0, 0.0, 0.0, 0.0, 0.0, 0.0, 0.0, 0.0, 0.0, 0.0, 0.0, 0.0, 0.0, 0.0, 0.0, 0.0, 0.0, 0.0, 0.0, -2.0, -27.0, -86.0, -187.0, -309.0, -528.0, -602.0, -723.0, -728.0, -707.0, -645.0, -496.0, -219.0, 156.0, 565.0, 953.0, 959.0, 959.0, 959.0, 959.0, 959.0, 954.0, 944.0]	[-490.0, -490.0, -490.0, -490.0, -490.0, -490.0, -490.0, -490.0, -490.0, -490.0, -490.0, -490.0, -490.0, -490.0, -490.0, -490.0, -490.0, -490.0, -490.0, -490.0, -490.0, -490.0, -490.0, -490.0, -490.0, -490.0, -490.0, -490.0, -490.0, -490.0, -490.0, -490.0, -490.0, -490.0, -490.0, -490.0, -490.0, -490.0, -490.0, -486.0, -450.0, -368.0, -250.0, -110.0, 113.0, 181.0, 351.0, 396.0, 412.0, 418.0, 420.0, 420.0, 425.0, 425.0, 418.0, 414.0, 422.0, 427.0, 432.0, 437.0, 450.0, 459.0]	[0.006498505361378193, 0.012219590484164655, 0.028281363542191684, 0.0461743890773505, 0.06310348981060088, 0.07800985011272132, 0.09628994739614427, 0.11290980025660247, 0.1282366830855608, 0.14615052996668965, 0.16309021192137152, 0.1780675696209073, 0.19634493626654148, 0.2126415465027094, 0.22830395982600749, 0.24619288940448314, 0.26304280071053654, 0.27800275036133826, 0.2962200423935428, 0.31288734055124223, 0.3282739566639066, 0.34606936085037887, 0.363041810807772, 0.3780263365479186, 0.3962808338692412, 0.4127771240891889, 0.4282750147394836, 0.4462318696314469, 0.463073589024134, 0.47801339998841286, 0.49621396663133055, 0.5129113021539524, 0.5282521796179935, 0.546250335755758, 0.5631091217510402, 0.5780250394018367, 0.5962723687989637, 0.6128898322349414, 0.6283126297639683, 0.6461745939450338, 0.6629726226674393, 0.6780527215451002, 0.6962556776124984, 0.7127888317918405, 0.7281983172288164, 0.7461060200585052, 0.7629078034078702, 0.7780244250316173, 0.7962089490611106, 0.8128844392485917, 0.8282983619719744, 0.8461599848233163, 0.8628433255944401, 0.8780292378505692, 0.8962598418584093, 0.9128493160242215, 0.9282035054638982, 0.9461750376503915, 0.9629860370187089, 0.978026199969463, 0.9962469052989036, 1.0129845180781558]
18	奶牛	True	inanimate	animate	right	1.067	[0.0, 0.0, 0.0, 0.0, 0.0, 0.0, 0.0, 0.0, 0.0, 0.0, 0.0, 0.0, 0.0, 0.0, 0.0, 0.0, 0.0, 0.0, 0.0, 0.0, 0.0, 0.0, 0.0, 0.0, 0.0, 0.0, 0.0, 0.0, 0.0, 0.0, 0.0, 0.0, 0.0, 0.0, 0.0, 0.0, 0.0, 0.0, 0.0, 0.0, 0.0, 0.0, 0.0, 0.0, 0.0, 0.0, 0.0, 0.0, 0.0, 0.0, 0.0, 0.0, 14.0, 121.0, 176.0, 383.0, 538.0, 697.0, 814.0, 881.0, 925.0, 943.0, 949.0, 949.0, 949.0]	[-490.0, -490.0, -490.0, -490.0, -490.0, -490.0, -490.0, -490.0, -490.0, -490.0, -490.0, -490.0, -490.0, -490.0, -490.0, -490.0, -490.0, -490.0, -490.0, -490.0, -490.0, -490.0, -490.0, -490.0, -490.0, -490.0, -490.0, -490.0, -490.0, -490.0, -490.0, -490.0, -490.0, -490.0, -490.0, -490.0, -490.0, -490.0, -490.0, -490.0, -490.0, -490.0, -490.0, -490.0, -490.0, -490.0, -490.0, -490.0, -490.0, -490.0, -490.0, -490.0, -476.0, -372.0, -330.0, -165.0, 15.0, 226.0, 389.0, 458.0, 488.0, 500.0, 505.0, 505.0, 505.0]	[0.006827891920693219, 0.011095239082351327, 0.017124547972343862, 0.030608573113568127, 0.04702635668218136, 0.06248158076778054, 0.08034115564078093, 0.09722383494954556, 0.11213019536808133, 0.1305673059541732, 0.14711547875776887, 0.16249185497872531, 0.18023025651928037, 0.19725322374142706, 0.21222204808145761, 0.23047859349753708, 0.24684688379056752, 0.2623997291084379, 0.2802060559624806, 0.29723550856579095, 0.3122814742382616, 0.33050968893803656, 0.3470827790442854, 0.36245642451103777, 0.3803852900164202, 0.39720652939286083, 0.4122316737193614, 0.4304445283487439, 0.4469821199309081, 0.4624933226732537, 0.4803549455245957, 0.4972417209064588, 0.5119388439925388, 0.5302936933003366, 0.5468940901337191, 0.5624909674515948, 0.5803761422866955, 0.5972482403740287, 0.6121511873789132, 0.6304647353244945, 0.6469931108877063, 0.662392356316559, 0.6801980005111545, 0.6971994638442993, 0.712220853427425, 0.7304272227920592, 0.750594892539084, 0.7622196758165956, 0.780442429240793, 0.7972677645739168, 0.8122925675706938, 0.8304709475487471, 0.8470757817849517, 0.8624514752300456, 0.88030149275437, 0.8972346894443035, 0.9119915458140895, 0.9303897444624454, 0.9471454478334635, 0.9625508373137563, 0.9803557988489047, 0.997362723457627, 1.0123342784354463, 1.0304580451920629, 1.0470656100660563]
19	记者	True	inanimate	animate	right	0.956	[0.0, -4.0, -4.0, -4.0, -4.0, -4.0, -4.0, -4.0, -4.0, -4.0, -4.0, -4.0, -4.0, -4.0, -4.0, -4.0, -4.0, -4.0, -4.0, -4.0, -4.0, -4.0, -4.0, -4.0, -4.0, -4.0, -4.0, -4.0, -4.0, -4.0, -4.0, -4.0, -4.0, -4.0, -4.0, -4.0, -4.0, -17.0, -45.0, -65.0, -100.0, -122.0, -134.0, -163.0, -158.0, -64.0, 114.0, 333.0, 549.0, 721.0, 864.0, 959.0, 959.0, 959.0, 959.0, 959.0, 959.0, 959.0]	[-490.0, -489.0, -489.0, -489.0, -489.0, -489.0, -489.0, -489.0, -489.0, -489.0, -489.0, -489.0, -489.0, -489.0, -489.0, -489.0, -489.0, -489.0, -489.0, -489.0, -489.0, -489.0, -489.0, -489.0, -489.0, -489.0, -489.0, -489.0, -489.0, -489.0, -489.0, -489.0, -489.0, -489.0, -489.0, -489.0, -489.0, -488.0, -480.0, -476.0, -466.0, -461.0, -457.0, -438.0, -402.0, -287.0, -128.0, 27.0, 187.0, 339.0, 495.0, 540.0, 540.0, 540.0, 540.0, 540.0, 540.0, 540.0]	[0.002068001078441739, 0.007567560882307589, 0.018872173852287233, 0.037525006919167936, 0.05382980918511748, 0.06920686806552112, 0.08714187750592828, 0.10408804484177381, 0.11894218123052269, 0.13713353197090328, 0.15379229676909745, 0.16915604355745018, 0.1870828609680757, 0.20397270831745118, 0.21869679680094123, 0.23713800334371626, 0.2538121282123029, 0.26907552301418036, 0.2869890285655856, 0.30391812918242067, 0.3189521481981501, 0.3372994881356135, 0.35360224242322147, 0.36921755177900195, 0.386897926684469, 0.404019539244473, 0.41895013430621475, 0.4371817623032257, 0.4538207297446206, 0.4691305459709838, 0.4871085634222254, 0.5039909014012665, 0.5189846430439502, 0.5372029590653256, 0.5538019905798137, 0.5692217160249129, 0.5871345388004556, 0.6040885568363592, 0.6189901385223493, 0.6372183532221243, 0.6538433260284364, 0.6692732914816588, 0.6871127276681364, 0.7039145110175014, 0.7189905140548944, 0.7371791340410709, 0.7535324057098478, 0.7692313416628167, 0.786968719214201, 0.8038988438202068, 0.8189154547872022, 0.8371989654842764, 0.8536153837339953, 0.8691020105034113, 0.8870592066086829, 0.9039937686175108, 0.9189670302439481, 0.9371727169491351]
20	蜘蛛	True	inanimate	animate	right	1.533	[0.0, 0.0, 0.0, 0.0, 0.0, 0.0, 0.0, 0.0, 0.0, 0.0, 0.0, 0.0, 0.0, 0.0, 0.0, 0.0, 0.0, 0.0, 0.0, 0.0, 0.0, 0.0, 0.0, 0.0, 0.0, 0.0, 0.0, 0.0, 0.0, 0.0, 0.0, 0.0, 0.0, 0.0, 0.0, 0.0, 0.0, 0.0, 0.0, 0.0, 0.0, 0.0, 0.0, 0.0, 0.0, 0.0, 0.0, 0.0, 0.0, 0.0, 0.0, 0.0, 0.0, 0.0, 0.0, 0.0, 0.0, 0.0, 22.0, 32.0, 54.0, 55.0, 17.0, -12.0, -143.0, -264.0, -378.0, -458.0, -525.0, -548.0, -549.0, -544.0, -519.0, -375.0, -201.0, -95.0, 236.0, 446.0, 622.0, 746.0, 819.0, 843.0, 844.0, 844.0, 841.0, 836.0, 834.0, 834.0, 834.0, 834.0, 834.0, 834.0, 834.0]	[-490.0, -490.0, -490.0, -490.0, -490.0, -490.0, -490.0, -490.0, -490.0, -490.0, -490.0, -490.0, -490.0, -490.0, -490.0, -490.0, -490.0, -490.0, -490.0, -490.0, -490.0, -490.0, -490.0, -490.0, -490.0, -490.0, -490.0, -490.0, -490.0, -490.0, -490.0, -490.0, -490.0, -490.0, -490.0, -490.0, -490.0, -490.0, -490.0, -490.0, -490.0, -490.0, -490.0, -490.0, -490.0, -490.0, -490.0, -490.0, -490.0, -490.0, -490.0, -490.0, -490.0, -490.0, -490.0, -481.0, -462.0, -421.0, -261.0, -184.0, -11.0, 184.0, 268.0, 297.0, 354.0, 389.0, 422.0, 442.0, 456.0, 463.0, 466.0, 467.0, 473.0, 481.0, 490.0, 503.0, 524.0, 524.0, 524.0, 524.0, 524.0, 524.0, 524.0, 524.0, 524.0, 524.0, 524.0, 524.0, 524.0, 524.0, 524.0, 524.0, 524.0]	[0.0157974447356537, 0.02277327049523592, 0.030068242806009948, 0.04869001463521272, 0.0649043635930866, 0.080310094403103, 0.09818229859229177, 0.11504279123619199, 0.1297856530873105, 0.14826167561113834, 0.1648139444878325, 0.180264389840886, 0.19827312731649727, 0.21504862804431468, 0.22988876979798079, 0.24834124033804983, 0.26491023460403085, 0.28022414667066187, 0.29828510817606, 0.314989952952601, 0.33008268114645034, 0.34836789849214256, 0.3649205086985603, 0.38025626621674746, 0.398239403613843, 0.415005688322708, 0.43009978195186704, 0.44833550602197647, 0.4648768521146849, 0.4802409403491765, 0.4982517258031294, 0.5150006024632603, 0.5300277947681025, 0.548411657451652, 0.5648376329336315, 0.5802457530517131, 0.5981333173112944, 0.6149798153201118, 0.6300476262113079, 0.6483266996219754, 0.6647117151878774, 0.6802201872924343, 0.6981569033814594, 0.7149399134796113, 0.7300142097519711, 0.7484390323515981, 0.764821658609435, 0.7802485519787297, 0.7981716148788109, 0.8149621342308819, 0.8300391612574458, 0.8483257438056171, 0.8648558260174468, 0.8802933008410037, 0.8981644810410216, 0.9151324935955927, 0.9297835368197411, 0.9482622899813578, 0.9647483401931822, 0.9802356496220455, 0.9980774751165882, 1.0148894985904917, 1.030042301514186, 1.048303966759704, 1.0647534943418577, 1.0802844944410026, 1.0982717279111966, 1.115104572614655, 1.1301307409303263, 1.148237782297656, 1.1647054004715756, 1.18021080060862, 1.1980816394789144, 1.2148957108147442, 1.2300119911087677, 1.248259661719203, 1.2647190879797563, 1.2802958267275244, 1.298188852146268, 1.3150397875579074, 1.329880270641297, 1.3484016904840246, 1.3648525833850726, 1.380237492849119, 1.3981349556706846, 1.4149510751012713, 1.429875526111573, 1.4481662047328427, 1.464853300130926, 1.4802163642598316, 1.498208717792295, 1.5149971891660243, 1.530007656197995]
21	诗人	True	animate	inanimate	left	1.29	[0.0, 0.0, 0.0, 0.0, 0.0, 0.0, 0.0, 0.0, 0.0, 0.0, 0.0, 0.0, 0.0, 0.0, 0.0, 0.0, 6.0, 8.0, 8.0, 8.0, 12.0, 17.0, 35.0, 35.0, 35.0, 35.0, 35.0, 35.0, 35.0, 35.0, 35.0, 35.0, 42.0, 50.0, 51.0, 53.0, 53.0, 54.0, 54.0, 54.0, 54.0, 54.0, 54.0, 54.0, 54.0, 52.0, 45.0, 4.0, -25.0, -171.0, -310.0, -460.0, -587.0, -685.0, -720.0, -728.0, -729.0, -729.0, -729.0, -729.0, -729.0, -729.0, -729.0, -729.0, -729.0, -729.0, -729.0, -729.0, -725.0, -725.0, -725.0, -724.0, -724.0, -724.0, -724.0, -721.0, -722.0, -723.0]	[-490.0, -490.0, -490.0, -490.0, -490.0, -490.0, -490.0, -490.0, -490.0, -490.0, -490.0, -490.0, -490.0, -490.0, -490.0, -489.0, -478.0, -471.0, -470.0, -470.0, -475.0, -496.0, -539.0, -539.0, -539.0, -539.0, -539.0, -539.0, -539.0, -539.0, -539.0, -539.0, -539.0, -539.0, -539.0, -539.0, -539.0, -537.0, -534.0, -528.0, -518.0, -506.0, -491.0, -479.0, -467.0, -452.0, -427.0, -337.0, -281.0, -65.0, 84.0, 195.0, 264.0, 293.0, 303.0, 304.0, 305.0, 305.0, 305.0, 305.0, 305.0, 305.0, 305.0, 305.0, 305.0, 305.0, 305.0, 305.0, 304.0, 304.0, 304.0, 305.0, 316.0, 357.0, 376.0, 389.0, 394.0, 395.0]	[0.008174792514182627, 0.012945947470143437, 0.017277806531637907, 0.033505808911286294, 0.04981880320701748, 0.06532317923847586, 0.08324317005462945, 0.10009683610405773, 0.11509569780901074, 0.13327339512761682, 0.14977309864480048, 0.16519760282244533, 0.18328962556552142, 0.20004191563930362, 0.21507115592248738, 0.2333799252519384, 0.25006702065002173, 0.26523415953852236, 0.2831756543600932, 0.30006993911229074, 0.3148745821090415, 0.33330315933562815, 0.3499158442718908, 0.36522736703045666, 0.3831913898466155, 0.4000392531743273, 0.41508282953873277, 0.43334893218707293, 0.4498261077096686, 0.46522193984128535, 0.48325320531148463, 0.5000778579851612, 0.5150712582981214, 0.5332298410357907, 0.5498858751961961, 0.5652284593088552, 0.5832651860546321, 0.6000546815339476, 0.6150142898550257, 0.6333619711222127, 0.6498838613042608, 0.6654240773059428, 0.6830180949764326, 0.7000499370042235, 0.7150839559035376, 0.7332695039222017, 0.7498593194177374, 0.7652356955222785, 0.7831536383600906, 0.7999926271149889, 0.8150242567062378, 0.8332442793762311, 0.849647726980038, 0.865436774911359, 0.8828236033441499, 0.9000428372528404, 0.9148485043551773, 0.9331675135763362, 0.9497105664340779, 0.9652337158331648, 0.9830769067630172, 1.0000333139905706, 1.0150608476251364, 1.0334464169573039, 1.0498498645611107, 1.0652617393061519, 1.0831407700898126, 1.100114926812239, 1.1149420978035778, 1.1331576831871644, 1.1497857280774042, 1.165220472146757, 1.1830571776954457, 1.1999511210015044, 1.2150882226414979, 1.2332034559221938, 1.2498270634096116, 1.2652655622223392]
22	海豚	True	animate	inanimate	left	1.828	[0.0, 0.0, 0.0, 0.0, 0.0, 0.0, 0.0, 0.0, 0.0, 0.0, 0.0, 0.0, 0.0, 0.0, 0.0, 0.0, 0.0, 0.0, 0.0, 0.0, 0.0, 0.0, 0.0, 0.0, 0.0, 0.0, 0.0, 0.0, 0.0, 0.0, 0.0, 0.0, 0.0, 0.0, 0.0, 0.0, 0.0, 0.0, 0.0, 0.0, 0.0, 0.0, 0.0, 0.0, 0.0, 0.0, 0.0, 0.0, 0.0, 0.0, 0.0, 0.0, 0.0, 0.0, 0.0, 0.0, 0.0, 0.0, -4.0, -43.0, -127.0, -268.0, -451.0, -671.0, -881.0, -960.0, -960.0, -960.0, -960.0, -960.0, -960.0, -960.0, -960.0, -960.0, -960.0, -960.0, -960.0, -960.0, -960.0, -952.0, -906.0, -856.0, -776.0, -704.0, -615.0, -543.0, -516.0, -513.0, -513.0, -512.0, -512.0, -513.0, -513.0, -513.0, -539.0, -572.0, -612.0, -657.0, -702.0, -750.0, -778.0, -787.0, -787.0, -787.0, -787.0, -787.0, -787.0, -787.0, -787.0, -787.0]	[-490.0, -490.0, -490.0, -490.0, -490.0, -490.0, -490.0, -490.0, -490.0, -490.0, -490.0, -490.0, -490.0, -490.0, -490.0, -490.0, -490.0, -490.0, -490.0, -490.0, -490.0, -490.0, -490.0, -490.0, -490.0, -490.0, -490.0, -490.0, -490.0, -490.0, -490.0, -490.0, -490.0, -490.0, -490.0, -490.0, -490.0, -490.0, -490.0, -490.0, -490.0, -490.0, -490.0, -490.0, -490.0, -490.0, -490.0, -490.0, -490.0, -490.0, -490.0, -490.0, -490.0, -490.0, -490.0, -490.0, -490.0, -490.0, -467.0, -370.0, -195.0, 36.0, 264.0, 449.0, 540.0, 540.0, 540.0, 540.0, 540.0, 540.0, 540.0, 540.0, 540.0, 540.0, 540.0, 540.0, 540.0, 540.0, 540.0, 538.0, 517.0, 487.0, 432.0, 375.0, 294.0, 233.0, 213.0, 211.0, 211.0, 211.0, 212.0, 212.0, 212.0, 212.0, 265.0, 322.0, 370.0, 407.0, 432.0, 451.0, 458.0, 459.0, 459.0, 459.0, 459.0, 459.0, 459.0, 459.0, 459.0, 459.0]	[0.01405869354493916, 0.019990039872936904, 0.02664569520857185, 0.05463535548187792, 0.06137258931994438, 0.07678173342719674, 0.09480480686761439, 0.11161546502262354, 0.12652250798419118, 0.1448671172838658, 0.16150642605498433, 0.17693707416765392, 0.1947614917298779, 0.2115639578551054, 0.22669150203000754, 0.24490367411635816, 0.26138528692536056, 0.2769483723677695, 0.2948506138054654, 0.31152644532267004, 0.3267536588246003, 0.3448801562190056, 0.36143856903072447, 0.3769265611190349, 0.39471479738131166, 0.41159338073339313, 0.42673901561647654, 0.44489998766221106, 0.4614263152470812, 0.476859352667816, 0.49474521016236395, 0.5116036548279226, 0.5267144737299532, 0.544927328475751, 0.5614499013172463, 0.5769665653351694, 0.5947903002379462, 0.611674003652297, 0.6267056332435459, 0.6449010799406096, 0.6613966875011101, 0.6769928821595386, 0.694717971724458, 0.7116552643710747, 0.7267445793841034, 0.7448840474244207, 0.7614451909903437, 0.7769038283731788, 0.7947603311622515, 0.8116105839144439, 0.8267094561597332, 0.8449581508757547, 0.8612298438092694, 0.8768646091921255, 0.8947600240353495, 0.9116300740279257, 0.9264811384491622, 0.9448725103866309, 0.9614681284874678, 0.9769544139271602, 0.9947580101434141, 1.0115359001792967, 1.0267166924895719, 1.04492203774862, 1.0614906906848773, 1.0768909601029009, 1.0947095749434084, 1.1115543663036078, 1.1267157025868073, 1.144864386646077, 1.1613002609228715, 1.1769019168568775, 1.1947553477948532, 1.211580683127977, 1.2265140088275075, 1.2448217541677877, 1.261394502944313, 1.2769371083704755, 1.294830133789219, 1.311536002671346, 1.3267004108056426, 1.344780145562254, 1.3613556250929832, 1.376854539848864, 1.3946782747516409, 1.4115319408010691, 1.4266714316327125, 1.4448095343541354, 1.4611832860391587, 1.4768699340056628, 1.4946748955408111, 1.5115196869010106, 1.5266902390867472, 1.5448720324784517, 1.5613352133659646, 1.576974757364951, 1.594844230916351, 1.6116053956793621, 1.6266882253112271, 1.6449447706108913, 1.6611280583310872, 1.6769157408270985, 1.6947224091272801, 1.7115293125389144, 1.7267316087381914, 1.7447946181055158, 1.7612932976335287, 1.7768993909703568, 1.794698549900204, 1.8115962479496375]
23	乌龟	True	inanimate	animate	right	0.886	[0.0, 0.0, 0.0, 0.0, 0.0, 0.0, 0.0, 0.0, 0.0, 0.0, 0.0, 0.0, 0.0, 0.0, 0.0, 0.0, 0.0, 0.0, 0.0, 0.0, 0.0, 0.0, 0.0, 0.0, 0.0, 0.0, 0.0, 0.0, 0.0, 0.0, 0.0, 0.0, 0.0, 0.0, 0.0, 0.0, 0.0, 0.0, 0.0, 0.0, 0.0, 0.0, 0.0, 2.0, 27.0, 118.0, 316.0, 466.0, 535.0, 729.0, 833.0, 883.0, 891.0]	[-490.0, -490.0, -490.0, -490.0, -490.0, -490.0, -490.0, -490.0, -490.0, -490.0, -490.0, -490.0, -490.0, -490.0, -490.0, -490.0, -490.0, -490.0, -490.0, -490.0, -490.0, -490.0, -490.0, -490.0, -490.0, -490.0, -490.0, -490.0, -490.0, -490.0, -490.0, -490.0, -490.0, -490.0, -490.0, -490.0, -490.0, -490.0, -490.0, -490.0, -490.0, -490.0, -490.0, -490.0, -461.0, -344.0, -70.0, 112.0, 184.0, 338.0, 400.0, 432.0, 439.0]	[0.012304582516662776, 0.0166289322078228, 0.022710123797878623, 0.04105302644893527, 0.057873241836205125, 0.07292705809231848, 0.09124060603789985, 0.10753687506075948, 0.12311156571377069, 0.1411278125597164, 0.1578435800038278, 0.17265197774395347, 0.19117339758668095, 0.20778301043901592, 0.22317235718946904, 0.24108040134888142, 0.25785419542808086, 0.2729493130464107, 0.2912853889865801, 0.30782059114426374, 0.32310378330294043, 0.3410906754434109, 0.3578552535036579, 0.3729251124896109, 0.3912615297595039, 0.4075885188067332, 0.4230768521083519, 0.4410688643110916, 0.4578587010037154, 0.47291285858955234, 0.49123459856491536, 0.5076882222201675, 0.5230751796625555, 0.5408951598219573, 0.5578553217928857, 0.572916988749057, 0.591184115386568, 0.6077152215875685, 0.62306702171918, 0.641143684508279, 0.6578471639659256, 0.6729177056113258, 0.69119507225696, 0.7076971650822088, 0.7230219999328256, 0.7410966146271676, 0.7577703981660306, 0.7729361717356369, 0.7912176343379542, 0.8076477058930323, 0.8230534367030486, 0.8410307714948431, 0.8580069761956111]
24	太阳	False	animate	inanimate	right	1.2	[0.0, 0.0, 0.0, 0.0, 0.0, 0.0, 0.0, 0.0, 0.0, 0.0, 0.0, 0.0, 0.0, 0.0, 0.0, 0.0, 0.0, 0.0, 0.0, 0.0, 0.0, 0.0, 0.0, 0.0, 0.0, 0.0, 0.0, 0.0, 0.0, 0.0, 0.0, 0.0, 0.0, 0.0, 0.0, 0.0, 0.0, 0.0, 0.0, 0.0, 0.0, 0.0, 0.0, 0.0, 0.0, 0.0, 0.0, 0.0, 0.0, 0.0, 0.0, 0.0, 0.0, 0.0, 0.0, 5.0, 9.0, 9.0, 9.0, 9.0, 9.0, 9.0, 13.0, 37.0, 85.0, 150.0, 264.0, 507.0, 689.0, 852.0, 951.0, 959.0, 959.0]	[-490.0, -490.0, -490.0, -490.0, -490.0, -490.0, -490.0, -490.0, -490.0, -490.0, -490.0, -490.0, -490.0, -490.0, -490.0, -490.0, -490.0, -490.0, -490.0, -490.0, -490.0, -490.0, -490.0, -490.0, -490.0, -490.0, -490.0, -490.0, -490.0, -490.0, -490.0, -490.0, -490.0, -490.0, -490.0, -490.0, -490.0, -490.0, -490.0, -490.0, -490.0, -490.0, -490.0, -490.0, -490.0, -490.0, -490.0, -490.0, -490.0, -490.0, -490.0, -490.0, -490.0, -490.0, -490.0, -473.0, -464.0, -464.0, -464.0, -464.0, -464.0, -464.0, -461.0, -440.0, -402.0, -341.0, -211.0, 95.0, 277.0, 402.0, 458.0, 488.0, 490.0]	[0.008179230033420026, 0.013020016835071146, 0.017618457204662263, 0.03338941442780197, 0.049488734221085906, 0.06496375566348433, 0.08296600775793195, 0.0997241004370153, 0.11475299950689077, 0.13303787540644407, 0.14966182422358543, 0.164935800479725, 0.18296740716323256, 0.19979001197498292, 0.21477590291760862, 0.23303040023893118, 0.24961953307501972, 0.26504198915790766, 0.28302649199031293, 0.2997873154236004, 0.3147964170202613, 0.33311133028473705, 0.3496376578696072, 0.3650177886011079, 0.38297976343892515, 0.3997528748586774, 0.41483980044722557, 0.43303388182539493, 0.44963530264794827, 0.4649266868364066, 0.48290060833096504, 0.4997570050181821, 0.5148367625661194, 0.5330683905631304, 0.549624755512923, 0.5650103476364166, 0.5829689090605825, 0.5998840150423348, 0.6148135861149058, 0.6331322540063411, 0.6496568749425933, 0.665020621730946, 0.6829580204794183, 0.6997382999397814, 0.7148228362202644, 0.7331060054711998, 0.7496435970533639, 0.7650083678308874, 0.7829979906091467, 0.7998400513315573, 0.814908544998616, 0.8330326530849561, 0.8494244953617454, 0.864998844685033, 0.8830164567334577, 0.8997421228559688, 0.9148795658256859, 0.9331204098416492, 0.9496167000615969, 0.9649862494552508, 0.9829830402741209, 0.999824759666808, 1.0145478240447119, 1.0331777879036963, 1.0495583661831915, 1.064859990379773, 1.0827827118337154, 1.099652420496568, 1.1148171700770035, 1.1331085313577205, 1.1494290350237861, 1.164945016382262, 1.1829892524983734]
25	黑狗	True	inanimate	animate	right	1.1	[0.0, 0.0, 0.0, 0.0, 0.0, 0.0, 0.0, 0.0, 0.0, 0.0, 0.0, 0.0, 0.0, 0.0, 0.0, 0.0, 0.0, 0.0, 0.0, 0.0, 0.0, 0.0, 0.0, 0.0, 0.0, 0.0, 0.0, 0.0, 0.0, 0.0, 0.0, 0.0, 0.0, 0.0, 0.0, 0.0, 0.0, 0.0, 0.0, 0.0, 0.0, 0.0, 0.0, 0.0, 0.0, 0.0, 0.0, 0.0, 0.0, 0.0, 0.0, 0.0, 0.0, 0.0, 8.0, 12.0, 156.0, 156.0, 232.0, 399.0, 606.0, 845.0, 894.0, 898.0, 897.0]	[-490.0, -490.0, -490.0, -490.0, -490.0, -490.0, -490.0, -490.0, -490.0, -490.0, -490.0, -490.0, -490.0, -490.0, -490.0, -490.0, -490.0, -490.0, -490.0, -490.0, -490.0, -490.0, -490.0, -490.0, -490.0, -490.0, -490.0, -490.0, -490.0, -490.0, -490.0, -490.0, -490.0, -490.0, -490.0, -490.0, -490.0, -490.0, -490.0, -490.0, -490.0, -490.0, -490.0, -490.0, -490.0, -490.0, -490.0, -490.0, -490.0, -490.0, -490.0, -490.0, -490.0, -490.0, -475.0, -470.0, -288.0, -288.0, -200.0, -17.0, 162.0, 342.0, 409.0, 428.0, 441.0]	[0.007958387257531285, 0.012577990186400712, 0.01704467600211501, 0.03302862506825477, 0.0493614167207852, 0.06486545142251998, 0.08271376229822636, 0.0995500204153359, 0.11464240727946162, 0.13273169938474894, 0.14934438420459628, 0.16477639763616025, 0.1826544045470655, 0.19949544116389006, 0.21457963611464947, 0.23280580283608288, 0.24934475973714143, 0.26491433032788336, 0.28268959594424814, 0.29945451533421874, 0.3161269334377721, 0.3328925356036052, 0.3493662978289649, 0.36487613525241613, 0.38256879814434797, 0.3995040428126231, 0.4145011977525428, 0.4328717483440414, 0.4493240066803992, 0.46480687870644033, 0.48266133351717144, 0.4994788182666525, 0.5145377545850351, 0.5329035265604034, 0.549374558031559, 0.5648451421875507, 0.5826815064065158, 0.5994754390558228, 0.6145664607174695, 0.6327823873143643, 0.6493571841856465, 0.664896376314573, 0.6826730071334168, 0.6994990252424031, 0.7145572787849233, 0.7327885654522106, 0.7491397891426459, 0.7647953757550567, 0.78273140930105, 0.7994854060234502, 0.8145818889606744, 0.8328032769495621, 0.849303663126193, 0.864756497903727, 0.8825355181470513, 0.8994741761125624, 0.9568072240799665, 0.9660713473567739, 0.9826386348577216, 0.9980051124002784, 1.0159056471893564, 1.0327576065901667, 1.0478561375057325, 1.0661748055135831, 1.0826806529657915]
26	蝌蚪	True	inanimate	animate	right	1.104	[0.0, 0.0, 0.0, 0.0, 0.0, 0.0, 0.0, 0.0, 0.0, 0.0, 0.0, 0.0, 0.0, 0.0, 0.0, 0.0, 0.0, 0.0, 0.0, 0.0, 0.0, 0.0, 0.0, 0.0, 0.0, 0.0, 0.0, 0.0, 0.0, 0.0, 0.0, 0.0, 0.0, 0.0, 0.0, 0.0, 0.0, 0.0, 0.0, 0.0, 0.0, 0.0, 0.0, 0.0, 0.0, 0.0, 0.0, 0.0, 0.0, 0.0, 0.0, 0.0, 0.0, 0.0, 0.0, 0.0, 68.0, 96.0, 202.0, 303.0, 412.0, 521.0, 612.0, 674.0, 718.0, 739.0, 741.0]	[-490.0, -490.0, -490.0, -490.0, -490.0, -490.0, -490.0, -490.0, -490.0, -490.0, -490.0, -490.0, -490.0, -490.0, -490.0, -490.0, -490.0, -490.0, -490.0, -490.0, -490.0, -490.0, -490.0, -490.0, -490.0, -490.0, -490.0, -490.0, -490.0, -490.0, -490.0, -490.0, -490.0, -490.0, -490.0, -490.0, -490.0, -490.0, -490.0, -490.0, -490.0, -490.0, -490.0, -490.0, -490.0, -490.0, -490.0, -490.0, -490.0, -490.0, -490.0, -490.0, -490.0, -490.0, -490.0, -480.0, -372.0, -336.0, -232.0, -131.0, -2.0, 144.0, 277.0, 369.0, 439.0, 469.0, 471.0]	[0.014595952001400292, 0.018987203016877174, 0.027393897413276136, 0.04564498143736273, 0.06243447680026293, 0.0775128691457212, 0.09582266234792769, 0.11234728328417987, 0.12774516339413822, 0.14568665821570903, 0.16254851617850363, 0.1775402098428458, 0.19580562983173877, 0.212362336111255, 0.22773461614269763, 0.24565085233189166, 0.2625427476596087, 0.27755321469157934, 0.29579986131284386, 0.31242039683274925, 0.3277721969643608, 0.3457014037994668, 0.36254414718132466, 0.3775750941131264, 0.39579272747505456, 0.4123866390436888, 0.42782001779414713, 0.4456649152562022, 0.4625216532731429, 0.47757137357257307, 0.4957726229913533, 0.5124293398112059, 0.5277917212806642, 0.5456745066912845, 0.5626268180785701, 0.5775188424158841, 0.5958044010913, 0.6123826112598181, 0.6278279366670176, 0.6456810261588544, 0.6625783828785643, 0.6775434525916353, 0.6957853205967695, 0.7124348693760112, 0.7277532188454643, 0.7455609110184014, 0.7625753449974582, 0.7775370014132932, 0.7957867200020701, 0.8123837035382167, 0.8278143516508862, 0.8457247851183638, 0.8625511445570737, 0.8775329395430163, 0.8957594474777579, 0.9124178709462285, 0.9277785457670689, 0.9456842006184161, 0.9625341119244695, 0.9775490162428468, 0.9957188629778102, 1.0123605611734092, 1.0278577691642568, 1.0453330029267818, 1.0625061567407101, 1.0775732850888744, 1.0957772651454434]
27	蚊子	True	inanimate	animate	right	1.02	[0.0, 0.0, 0.0, 0.0, 0.0, 0.0, 0.0, 0.0, 0.0, 0.0, 0.0, 0.0, 0.0, -2.0, -6.0, -13.0, -13.0, -13.0, -13.0, -13.0, -13.0, -13.0, -13.0, -13.0, -13.0, -13.0, -13.0, -13.0, -13.0, -13.0, -13.0, -8.0, -8.0, -6.0, -5.0, -5.0, -5.0, -3.0, -3.0, -3.0, -3.0, -3.0, -3.0, -3.0, -3.0, 0.0, 29.0, 111.0, 229.0, 362.0, 493.0, 597.0, 666.0, 678.0, 685.0, 711.0, 721.0, 721.0, 721.0, 721.0, 729.0, 732.0]	[-490.0, -490.0, -490.0, -490.0, -490.0, -490.0, -490.0, -490.0, -490.0, -490.0, -490.0, -490.0, -490.0, -489.0, -490.0, -496.0, -498.0, -498.0, -498.0, -498.0, -498.0, -498.0, -498.0, -498.0, -498.0, -498.0, -498.0, -498.0, -498.0, -498.0, -499.0, -499.0, -499.0, -499.0, -499.0, -499.0, -499.0, -499.0, -499.0, -498.0, -493.0, -492.0, -492.0, -492.0, -492.0, -485.0, -457.0, -398.0, -300.0, -164.0, -26.0, 92.0, 188.0, 215.0, 226.0, 275.0, 302.0, 311.0, 319.0, 334.0, 358.0, 369.0]	[0.0001035262830555439, 0.005403747549280524, 0.01510511850938201, 0.03325755731202662, 0.05018153798300773, 0.06517459696624428, 0.08353524887934327, 0.09997351246420294, 0.11544716847129166, 0.13335930870380253, 0.1501658707857132, 0.1651753137120977, 0.18351480294950306, 0.20001314126420766, 0.21536835469305515, 0.2334023508010432, 0.2501723902532831, 0.26524975849315524, 0.28349845309276134, 0.30003229004796594, 0.31543529010377824, 0.3333508436335251, 0.3501724243396893, 0.36521804868243635, 0.3835203326307237, 0.39998726814519614, 0.41549027885776013, 0.43344610976055264, 0.45015061320737004, 0.46524948545265943, 0.48352173203602433, 0.5000146089587361, 0.5154039557091892, 0.5333218985470012, 0.5501957032829523, 0.5651843248633668, 0.5835620434954762, 0.5998231552075595, 0.6153736112173647, 0.6333499220199883, 0.6501353214262053, 0.6651550043607131, 0.6835730002494529, 0.6999682559398934, 0.7154285999713466, 0.7333956947550178, 0.750213862163946, 0.7649382919771597, 0.7833870078902692, 0.7997832874534652, 0.8154043995309621, 0.8332042410038412, 0.8500104617560282, 0.8652008112985641, 0.883363148663193, 0.8998655829345807, 0.9153959002578631, 0.9329759232932702, 0.9502579624531791, 0.9652052827877924, 0.9835399934090674, 0.9996393132023513]
28	啤酒	False	animate	inanimate	right	1.15	[0.0, 0.0, 0.0, 0.0, 0.0, 0.0, 0.0, 0.0, 0.0, 0.0, 0.0, 0.0, 0.0, 0.0, 0.0, 0.0, 0.0, 0.0, 0.0, 0.0, 0.0, 0.0, 0.0, 0.0, 0.0, 0.0, 0.0, 0.0, 0.0, 0.0, 0.0, 0.0, 0.0, 0.0, 0.0, 0.0, 0.0, 0.0, 0.0, 0.0, 0.0, 0.0, 0.0, 0.0, 0.0, 0.0, 0.0, 0.0, 0.0, 0.0, -1.0, -3.0, -19.0, -53.0, -117.0, -219.0, -343.0, -436.0, -459.0, -443.0, -399.0, -307.0, -53.0, 56.0, 462.0, 732.0, 913.0, 959.0, 959.0]	[-490.0, -490.0, -490.0, -490.0, -490.0, -490.0, -490.0, -490.0, -490.0, -490.0, -490.0, -490.0, -490.0, -490.0, -490.0, -490.0, -490.0, -490.0, -490.0, -490.0, -490.0, -490.0, -490.0, -490.0, -490.0, -490.0, -490.0, -490.0, -490.0, -490.0, -490.0, -490.0, -490.0, -490.0, -490.0, -490.0, -490.0, -490.0, -490.0, -490.0, -490.0, -490.0, -490.0, -490.0, -490.0, -490.0, -490.0, -490.0, -490.0, -490.0, -489.0, -489.0, -463.0, -372.0, -208.0, -1.0, 185.0, 315.0, 386.0, 413.0, 446.0, 489.0, 540.0, 540.0, 540.0, 540.0, 540.0, 540.0, 540.0]	[0.01210387866012752, 0.017355971969664097, 0.022255468065850437, 0.040710669360123575, 0.05750562611501664, 0.07255261566024274, 0.09080847830045968, 0.10741092322859913, 0.12276135804131627, 0.14070182875730097, 0.15754969220142812, 0.1725762018468231, 0.19081841118168086, 0.2073693146230653, 0.2227624161168933, 0.24070664157625288, 0.25762516097165644, 0.27272096124943346, 0.29082595463842154, 0.3074198660906404, 0.32274947955738753, 0.3406964357709512, 0.35761836846359074, 0.3725834380602464, 0.3908061913680285, 0.4074137562420219, 0.42274268704932183, 0.4407780484762043, 0.45758631720673293, 0.4725408055819571, 0.49073591094929725, 0.5071871451800689, 0.5227853878168389, 0.5407340506790206, 0.557541636750102, 0.5725640503223985, 0.5908199129626155, 0.6074418138014153, 0.6227625526953489, 0.6407043888466433, 0.657594918855466, 0.6724394978955388, 0.6907049178844318, 0.7072022320935503, 0.7228428000817075, 0.7407228549709544, 0.757594270282425, 0.7726105399196967, 0.7907715119654313, 0.8074538287473843, 0.8227100556250662, 0.8407549744006246, 0.8575953284744173, 0.8726174007169902, 0.8907473114086315, 0.9073596548987553, 0.9228708576411009, 0.9407410138519481, 0.9575544025283307, 0.9726058295927942, 0.9907210629899055, 1.0073347717989236, 1.0227186572737992, 1.0405563866952434, 1.057489583385177, 1.072593234363012, 1.090796872973442, 1.1074058031663299, 1.1227456566412002]
29	桥梁	False	inanimate	animate	left	1.761	[0.0, 0.0, 0.0, 0.0, 0.0, 0.0, 0.0, 0.0, 0.0, 0.0, 0.0, 0.0, 0.0, 0.0, 0.0, 0.0, 0.0, 0.0, 0.0, 0.0, 0.0, 0.0, 0.0, 0.0, 0.0, 0.0, 0.0, 0.0, 0.0, 0.0, 0.0, 0.0, 0.0, 0.0, 0.0, 0.0, 0.0, 0.0, 0.0, 0.0, 0.0, 0.0, 0.0, 0.0, 0.0, 0.0, 0.0, 0.0, 0.0, 0.0, 0.0, 0.0, 0.0, 0.0, 0.0, 0.0, 0.0, 0.0, 0.0, 0.0, 0.0, 0.0, 0.0, 0.0, 0.0, 0.0, 0.0, 0.0, 0.0, 0.0, 0.0, 0.0, 0.0, 0.0, 0.0, 0.0, 0.0, 0.0, 0.0, 0.0, 0.0, 0.0, 0.0, 0.0, 0.0, 0.0, 0.0, 0.0, 0.0, 0.0, 0.0, 0.0, 0.0, -33.0, -124.0, -247.0, -369.0, -503.0, -570.0, -626.0, -668.0, -708.0, -737.0, -756.0, -759.0]	[-490.0, -490.0, -490.0, -490.0, -490.0, -490.0, -490.0, -490.0, -490.0, -490.0, -490.0, -490.0, -490.0, -490.0, -490.0, -490.0, -490.0, -490.0, -490.0, -490.0, -490.0, -490.0, -490.0, -490.0, -490.0, -490.0, -490.0, -490.0, -490.0, -490.0, -490.0, -490.0, -490.0, -490.0, -490.0, -490.0, -490.0, -490.0, -490.0, -490.0, -490.0, -490.0, -490.0, -490.0, -490.0, -490.0, -490.0, -490.0, -490.0, -490.0, -490.0, -490.0, -490.0, -490.0, -490.0, -490.0, -490.0, -490.0, -490.0, -490.0, -490.0, -490.0, -490.0, -490.0, -490.0, -490.0, -490.0, -490.0, -490.0, -490.0, -490.0, -490.0, -490.0, -490.0, -490.0, -490.0, -490.0, -490.0, -490.0, -490.0, -490.0, -490.0, -490.0, -490.0, -490.0, -490.0, -490.0, -490.0, -490.0, -490.0, -490.0, -490.0, -489.0, -411.0, -254.0, -80.0, 59.0, 197.0, 282.0, 349.0, 380.0, 397.0, 410.0, 420.0, 420.0]	[0.005226698121987283, 0.01025931432377547, 0.02579987165518105, 0.043734198436141014, 0.06059605651535094, 0.07539011829067022, 0.09378251421730965, 0.11019039910752326, 0.12585690838750452, 0.1437652938766405, 0.16055171727202833, 0.17567072820384055, 0.1938286282820627, 0.21040752111002803, 0.22586820658762008, 0.24378888006322086, 0.26054287678562105, 0.27557757846079767, 0.2938238837523386, 0.3104160885559395, 0.3259190992685035, 0.34374283417128026, 0.3605159455910325, 0.3756004818715155, 0.3938778485171497, 0.4103843787452206, 0.4258372135227546, 0.44377188163343817, 0.46055011299904436, 0.4757070119958371, 0.4938587680226192, 0.5104704288532957, 0.5259130236227065, 0.5438016117550433, 0.5605921311071143, 0.5756654033903033, 0.5938714314252138, 0.6102547404589131, 0.6258171431254596, 0.6437419125577435, 0.6605505226179957, 0.6755084242904559, 0.693871806957759, 0.7104018891695887, 0.7258001106092706, 0.743773007998243, 0.7605659167747945, 0.7755152850877494, 0.7938431691145524, 0.8104186485288665, 0.8258960592793301, 0.8437593888957053, 0.8605540042044595, 0.8755675432039425, 0.8938664138549939, 0.9104623734019697, 0.9259076988091692, 0.9436000203713775, 0.9605451637180522, 0.9754781480878592, 0.993884879979305, 1.0104149621911347, 1.0257909969659522, 1.0437120117712766, 1.0605670431395993, 1.0756290514254943, 1.0939023221144453, 1.1104286496993154, 1.1257787430658937, 1.143651288584806, 1.1605384052963927, 1.1757188562769443, 1.1939054282847792, 1.2104256118182093, 1.2259231611387804, 1.2437021813821048, 1.260528199491091, 1.2755905491067097, 1.2938795210793614, 1.3104304246371612, 1.3258364966604859, 1.3437339594820514, 1.3605302815558389, 1.3756701138336211, 1.3938614645740017, 1.4103963254019618, 1.4258573520928621, 1.4435715191066265, 1.4605719583341852, 1.4756698065903038, 1.4938539892900735, 1.5101994102587923, 1.5257826342713088, 1.5437664544442669, 1.5604265845613554, 1.5754954195581377, 1.5937451381469145, 1.6103687456343323, 1.6257755004335195, 1.643626200617291, 1.6604522187262774, 1.6754596136743203, 1.6938564468873665, 1.710033249342814, 1.7258100092876703]
30	大象	True	animate	inanimate	left	1.101	[0.0, 0.0, 0.0, 0.0, 0.0, 0.0, 0.0, 0.0, 0.0, 0.0, 0.0, 0.0, 0.0, 0.0, 0.0, 0.0, 0.0, 0.0, 0.0, 0.0, 0.0, 0.0, 0.0, 0.0, 0.0, 0.0, 0.0, 0.0, 0.0, 0.0, 0.0, 0.0, 0.0, 0.0, 0.0, 0.0, 0.0, 0.0, 0.0, 0.0, 0.0, 0.0, 0.0, 0.0, 0.0, 0.0, 0.0, 0.0, 0.0, 0.0, 0.0, 0.0, 0.0, 0.0, 0.0, -2.0, -78.0, -204.0, -364.0, -541.0, -690.0, -784.0, -841.0, -871.0, -882.0, -882.0, -882.0]	[-490.0, -490.0, -490.0, -490.0, -490.0, -490.0, -490.0, -490.0, -490.0, -490.0, -490.0, -490.0, -490.0, -490.0, -490.0, -490.0, -490.0, -490.0, -490.0, -490.0, -490.0, -490.0, -490.0, -490.0, -490.0, -490.0, -490.0, -490.0, -490.0, -490.0, -490.0, -490.0, -490.0, -490.0, -490.0, -490.0, -490.0, -490.0, -490.0, -490.0, -490.0, -490.0, -490.0, -490.0, -490.0, -490.0, -490.0, -490.0, -490.0, -490.0, -490.0, -490.0, -490.0, -490.0, -490.0, -486.0, -432.0, -300.0, -89.0, 136.0, 308.0, 404.0, 464.0, 503.0, 522.0, 524.0, 524.0]	[0.0070152838015928864, 0.011317788274027407, 0.015827140654437244, 0.03122843406163156, 0.04761174297891557, 0.0629386258078739, 0.08094258466735482, 0.09777577070053667, 0.11274152307305485, 0.13094482035376132, 0.14760495047084987, 0.1630076093133539, 0.1809129228349775, 0.19779628480318934, 0.21283064514864236, 0.23099707846995443, 0.24766983790323138, 0.26299364876467735, 0.2809180768672377, 0.2977550176437944, 0.31255556468386203, 0.3308697952888906, 0.3473776908358559, 0.362969106878154, 0.38095224439166486, 0.39780659310054034, 0.4127856574486941, 0.4310510774375871, 0.44764669553842396, 0.46301351429428905, 0.48095705721061677, 0.497791608562693, 0.5128324541728944, 0.5310787594644353, 0.5476211296627298, 0.563007063115947, 0.580925005953759, 0.5978247519815341, 0.6127546643838286, 0.6310033589834347, 0.6473818892845884, 0.6629733053268865, 0.6809298187727109, 0.6978087434545159, 0.712747530429624, 0.7309576545376331, 0.7473679287359118, 0.7629385234322399, 0.7809182475320995, 0.797795124235563, 0.8126953406026587, 0.8310607712483034, 0.8475765174953267, 0.8629095442593098, 0.8809196470538154, 0.8977504437789321, 0.9127417961135507, 0.9309461173834279, 0.9474830263061449, 0.963050207705237, 0.9805861987406388, 0.9976951818680391, 1.0127527528675273, 1.0309362529078498, 1.0475250444142148, 1.06295432720799, 1.080786254024133]
31	帽子	False	animate	inanimate	right	1.239	[0.0, 3.0, 4.0, 4.0, 4.0, 4.0, 4.0, 4.0, 4.0, 4.0, 4.0, 4.0, 4.0, 4.0, 4.0, 4.0, 4.0, 4.0, 4.0, 4.0, 4.0, 4.0, 4.0, 4.0, 4.0, 4.0, 4.0, 4.0, 4.0, 4.0, 4.0, 4.0, 4.0, 4.0, 4.0, 4.0, 4.0, 4.0, 4.0, 4.0, 4.0, 4.0, 4.0, 4.0, 4.0, 4.0, 4.0, 4.0, 4.0, 4.0, 4.0, 4.0, 4.0, 4.0, 4.0, 4.0, 4.0, 4.0, 4.0, 4.0, 4.0, 4.0, 4.0, 4.0, 8.0, 59.0, 157.0, 298.0, 453.0, 615.0, 755.0, 848.0, 888.0, 899.0, 900.0]	[-490.0, -490.0, -490.0, -490.0, -490.0, -490.0, -490.0, -490.0, -490.0, -490.0, -490.0, -490.0, -490.0, -490.0, -490.0, -490.0, -490.0, -490.0, -490.0, -490.0, -490.0, -490.0, -490.0, -490.0, -490.0, -490.0, -490.0, -490.0, -490.0, -490.0, -490.0, -490.0, -490.0, -490.0, -490.0, -490.0, -490.0, -490.0, -490.0, -490.0, -490.0, -490.0, -490.0, -490.0, -490.0, -490.0, -490.0, -490.0, -490.0, -490.0, -490.0, -490.0, -490.0, -490.0, -490.0, -490.0, -490.0, -490.0, -490.0, -490.0, -490.0, -490.0, -490.0, -490.0, -475.0, -399.0, -271.0, -107.0, 78.0, 261.0, 386.0, 452.0, 476.0, 481.0, 482.0]	[0.015234927530400455, 0.031954449717886746, 0.045494453399442136, 0.06374451343435794, 0.08034832356497645, 0.09573016106151044, 0.11368326121009886, 0.1304696846054867, 0.14527705835644156, 0.16369641956407577, 0.18020294979214668, 0.19576057384256274, 0.21366042597219348, 0.23045640671625733, 0.24551534303463995, 0.2637589176883921, 0.28032381588127464, 0.2958776851883158, 0.3136662627803162, 0.33050764084327966, 0.34563040640205145, 0.36378284508828074, 0.3801589860813692, 0.39575518073979765, 0.4136546915397048, 0.4304605709621683, 0.4456188352778554, 0.4637719566235319, 0.4803344653919339, 0.49577057489659637, 0.5136618936667219, 0.530514877056703, 0.5455826880643144, 0.5638214839855209, 0.5802116196136922, 0.5957491049775854, 0.6136851385235786, 0.6304879458621144, 0.6453236503293738, 0.663731747539714, 0.6803406777326018, 0.6958819177234545, 0.7137087245937437, 0.7305320120649412, 0.7455769536318257, 0.7637720589991659, 0.7803048718487844, 0.7957317653344944, 0.8136718947207555, 0.8304869901621714, 0.8455489984480664, 0.8637263544369489, 0.8803049060516059, 0.8958526314236224, 0.9136275555938482, 0.930477467016317, 0.9456336832372472, 0.9637499406235293, 0.9803104014135897, 0.9957144255749881, 1.0136180324479938, 1.0304416611324996, 1.0455398507183418, 1.0638230200856924, 1.0803251129109412, 1.0956574570154771, 1.1135750585235655, 1.1304038072703406, 1.1456078101182356, 1.1638268087990582, 1.1799595792545006, 1.1957011818885803, 1.2136761272558942, 1.2304297827649862, 1.2455747349886224]
32	司机	True	animate	inanimate	left	1.303	[0.0, 0.0, 0.0, 0.0, 0.0, 0.0, 0.0, 0.0, 0.0, 0.0, 0.0, 0.0, 0.0, 0.0, 0.0, 0.0, 0.0, 0.0, 0.0, 0.0, 0.0, 0.0, 0.0, 0.0, 0.0, 0.0, 0.0, 0.0, 0.0, 0.0, 0.0, 0.0, 0.0, 0.0, 0.0, 0.0, 0.0, 0.0, 0.0, 0.0, 0.0, 0.0, 0.0, 0.0, 0.0, 0.0, 0.0, 0.0, 0.0, 0.0, 0.0, 0.0, 0.0, 0.0, 0.0, 0.0, 0.0, 0.0, 0.0, 0.0, 0.0, 0.0, 0.0, 0.0, 0.0, 0.0, 0.0, -3.0, -21.0, -73.0, -147.0, -250.0, -372.0, -555.0, -628.0, -651.0, -674.0, -675.0, -675.0]	[-490.0, -490.0, -490.0, -490.0, -490.0, -490.0, -490.0, -490.0, -490.0, -490.0, -490.0, -490.0, -490.0, -490.0, -490.0, -490.0, -490.0, -490.0, -490.0, -490.0, -490.0, -490.0, -490.0, -490.0, -490.0, -490.0, -490.0, -490.0, -490.0, -490.0, -490.0, -490.0, -490.0, -490.0, -490.0, -490.0, -490.0, -490.0, -490.0, -490.0, -490.0, -490.0, -490.0, -490.0, -490.0, -490.0, -490.0, -490.0, -490.0, -490.0, -490.0, -490.0, -490.0, -490.0, -490.0, -490.0, -490.0, -490.0, -490.0, -490.0, -490.0, -490.0, -490.0, -490.0, -490.0, -490.0, -490.0, -484.0, -418.0, -266.0, -81.0, 111.0, 271.0, 423.0, 469.0, 487.0, 503.0, 504.0, 504.0]	[0.015121605130843818, 0.020294509129598737, 0.028449640958569944, 0.04676353023387492, 0.06363016692921519, 0.0786293699638918, 0.09680262999609113, 0.11327605089172721, 0.128839818877168, 0.14669529779348522, 0.16357661178335547, 0.178644081344828, 0.196823826758191, 0.21342934353742748, 0.22883848764467984, 0.24673492647707462, 0.26366846449673176, 0.27859871822874993, 0.2968726714607328, 0.31345088174566627, 0.32886651111766696, 0.34673803264740855, 0.3636289039859548, 0.3786550723016262, 0.39696179365273565, 0.41328571061603725, 0.4288873665500432, 0.44674182147718966, 0.4636374714318663, 0.4786267757881433, 0.4968597691040486, 0.5133096380159259, 0.5288092354312539, 0.5467770128743723, 0.563620780245401, 0.5787783617852256, 0.5969116858905181, 0.6138421519426629, 0.6288932375609875, 0.6467313084285706, 0.6635880464455113, 0.6787073987070471, 0.69687485601753, 0.7135244047967717, 0.7287905303528532, 0.7467801531311125, 0.7636095845373347, 0.7785316462395713, 0.796762591577135, 0.813457879005, 0.8288079724879935, 0.8467941819690168, 0.8636082533048466, 0.878651829669252, 0.8968745829770342, 0.9134012518916279, 0.9288820759393275, 0.9468065040418878, 0.9636157967615873, 0.9786330905044451, 0.9968346811365336, 1.0134784273104742, 1.028810088755563, 1.046790154185146, 1.0635632656048983, 1.0786416579503566, 1.096857925876975, 1.1134282854618505, 1.128825141582638, 1.1464618258178234, 1.1635291664861143, 1.1783519001910463, 1.196762386825867, 1.213381215580739, 1.228847021004185, 1.2466318438528106, 1.263540123240091, 1.2786120302043855, 1.2968037221580744]
33	蜻蜓	True	inanimate	animate	right	1.069	[0.0, 0.0, 0.0, 0.0, 0.0, 0.0, 0.0, 0.0, 0.0, 0.0, 0.0, 0.0, 0.0, 0.0, 0.0, 0.0, 0.0, 0.0, 0.0, 0.0, 0.0, 0.0, 0.0, 0.0, 0.0, 0.0, 0.0, 0.0, 0.0, 0.0, 0.0, 0.0, 0.0, 0.0, 0.0, 0.0, 0.0, 0.0, 0.0, 0.0, 0.0, 0.0, 0.0, 0.0, 0.0, 0.0, 0.0, 0.0, 0.0, 0.0, 0.0, 0.0, 0.0, 0.0, 0.0, 0.0, -1.0, 63.0, 241.0, 302.0, 459.0, 647.0, 720.0, 751.0, 754.0]	[-490.0, -490.0, -490.0, -490.0, -490.0, -490.0, -490.0, -490.0, -490.0, -490.0, -490.0, -490.0, -490.0, -490.0, -490.0, -490.0, -490.0, -490.0, -490.0, -490.0, -490.0, -490.0, -490.0, -490.0, -490.0, -490.0, -490.0, -490.0, -490.0, -490.0, -490.0, -490.0, -490.0, -490.0, -490.0, -490.0, -490.0, -490.0, -490.0, -490.0, -490.0, -490.0, -490.0, -490.0, -490.0, -490.0, -490.0, -490.0, -490.0, -490.0, -490.0, -490.0, -490.0, -490.0, -490.0, -490.0, -485.0, -380.0, -110.0, -24.0, 159.0, 431.0, 540.0, 540.0, 540.0]	[0.008777245762757957, 0.013238470070064068, 0.01811748626641929, 0.03450898721348494, 0.050900488160550594, 0.0663270402001217, 0.08426170842722058, 0.10111332638189197, 0.11605655075982213, 0.13432640803512186, 0.15099609550088644, 0.16629089310299605, 0.18407503329217434, 0.20111711521167308, 0.2161006168462336, 0.23427046358119696, 0.25092649774160236, 0.2662608898244798, 0.2842085286974907, 0.3010447866981849, 0.3161061123246327, 0.3343083857325837, 0.35087157727684826, 0.3662445399677381, 0.384214706835337, 0.4010646181413904, 0.4160764504922554, 0.43434357712976635, 0.45087673130910844, 0.4662527662003413, 0.4842516048811376, 0.5010182310361415, 0.51579044747632, 0.5341473447624594, 0.5509665361605585, 0.5663197016110644, 0.5842243323568255, 0.6011015503900126, 0.6160690094111487, 0.6343187281163409, 0.6507952209794894, 0.6663006210001186, 0.6842270971974358, 0.7009991846280172, 0.7160383235896006, 0.7343365115812048, 0.7509352017659694, 0.7662975832354277, 0.7842165500624105, 0.8010551973711699, 0.8160257283598185, 0.8343611216405407, 0.8508615079335868, 0.8662392493570223, 0.8842514001298696, 0.9010214395821095, 0.9160336131462827, 0.934292889200151, 0.950842427322641, 0.9663297367515042, 0.9840869116596878, 1.0010835962602869, 1.0160141913220286, 1.0342499152757227, 1.050735624274239]
34	皇帝	True	inanimate	animate	right	1.114	[0.0, 0.0, 0.0, 0.0, 0.0, 0.0, 0.0, 0.0, 0.0, 0.0, 0.0, 0.0, 0.0, 0.0, 0.0, 0.0, 0.0, 0.0, 0.0, 0.0, 0.0, 0.0, 0.0, 0.0, 0.0, 0.0, 0.0, 0.0, 0.0, 0.0, 0.0, 0.0, 0.0, 0.0, 0.0, 0.0, 0.0, 0.0, 0.0, 0.0, 0.0, 0.0, 0.0, 0.0, 0.0, 0.0, 0.0, 0.0, 0.0, 0.0, 0.0, 0.0, 0.0, 0.0, 0.0, 0.0, 0.0, 1.0, 33.0, 195.0, 261.0, 487.0, 616.0, 723.0, 793.0, 809.0, 811.0]	[-490.0, -490.0, -490.0, -490.0, -490.0, -490.0, -490.0, -490.0, -490.0, -490.0, -490.0, -490.0, -490.0, -490.0, -490.0, -490.0, -490.0, -490.0, -490.0, -490.0, -490.0, -490.0, -490.0, -490.0, -490.0, -490.0, -490.0, -490.0, -490.0, -490.0, -490.0, -490.0, -490.0, -490.0, -490.0, -490.0, -490.0, -490.0, -490.0, -490.0, -490.0, -490.0, -490.0, -490.0, -490.0, -490.0, -490.0, -490.0, -490.0, -490.0, -490.0, -490.0, -490.0, -490.0, -490.0, -490.0, -490.0, -491.0, -429.0, -181.0, -91.0, 176.0, 334.0, 452.0, 513.0, 529.0, 532.0]	[0.01590223389212042, 0.020911980653181672, 0.029899282730184495, 0.04820293211378157, 0.06496648618485779, 0.080074233119376, 0.0983109810622409, 0.11470760207157582, 0.13023245811928064, 0.14821730216499418, 0.1650153308873996, 0.17975204868707806, 0.19816151133272797, 0.21479160408489406, 0.23027311079204082, 0.24806476035155356, 0.26498259708750993, 0.28000398667063564, 0.29826394538395107, 0.31482167553622276, 0.33026529429480433, 0.3482095197541639, 0.3650020872009918, 0.37977737560868263, 0.3982653447892517, 0.41479303769301623, 0.43032813374884427, 0.4482023859163746, 0.46503727859817445, 0.47986581502482295, 0.4981742430245504, 0.5148695304524153, 0.5302766265813261, 0.5482481586514041, 0.5649953287793323, 0.5800839611329138, 0.5982643890893087, 0.6148050526389852, 0.630193034070544, 0.6481905075488612, 0.6650325682712719, 0.6799949072301388, 0.6982466739136726, 0.7148627720307559, 0.7302944441325963, 0.7481963443569839, 0.7650046130875126, 0.7799782160436735, 0.7982419293839484, 0.814909910201095, 0.8302620516624302, 0.848263279767707, 0.8649824605090544, 0.8800461754435673, 0.8982661981135607, 0.9148754696361721, 0.930160368559882, 0.9480578313814476, 0.9650480306008831, 0.9799895483301952, 0.9983740935567766, 1.0148137224605307, 1.0302105785813183, 1.0481193054001778, 1.0650501127820462, 1.079778638551943, 1.098156698513776]
35	警察	True	inanimate	animate	right	0.967	[0.0, 0.0, 0.0, 0.0, 0.0, 0.0, 0.0, 0.0, 0.0, 0.0, 0.0, 0.0, 0.0, 0.0, 0.0, 0.0, 0.0, 0.0, 0.0, 0.0, 0.0, 0.0, 0.0, 0.0, 0.0, 0.0, 0.0, 0.0, 0.0, 0.0, 0.0, 0.0, 0.0, 0.0, 0.0, 0.0, 0.0, 0.0, 0.0, 0.0, 0.0, 0.0, 0.0, 0.0, 0.0, 0.0, 0.0, 0.0, 0.0, 0.0, 9.0, 125.0, 394.0, 612.0, 808.0, 959.0, 959.0, 959.0, 959.0]	[-490.0, -490.0, -490.0, -490.0, -490.0, -490.0, -490.0, -490.0, -490.0, -490.0, -490.0, -490.0, -490.0, -490.0, -490.0, -490.0, -490.0, -490.0, -490.0, -490.0, -490.0, -490.0, -490.0, -490.0, -490.0, -490.0, -490.0, -490.0, -490.0, -490.0, -490.0, -490.0, -490.0, -490.0, -490.0, -490.0, -490.0, -490.0, -490.0, -490.0, -490.0, -490.0, -490.0, -490.0, -490.0, -490.0, -490.0, -490.0, -490.0, -490.0, -466.0, -334.0, -42.0, 155.0, 323.0, 426.0, 461.0, 465.0, 465.0]	[0.01455157867167145, 0.020665879477746785, 0.027622590656392276, 0.04598494921810925, 0.06241945817600936, 0.07779651693999767, 0.09575507836416364, 0.11268110701348633, 0.12768031004816294, 0.14588941005058587, 0.16243690019473433, 0.1778340976452455, 0.1957547712372616, 0.21256372262723744, 0.22771140548866242, 0.24583244160749018, 0.2624553663190454, 0.27795871847774833, 0.295766751980409, 0.31252177269198, 0.32767798902932554, 0.34584954229649156, 0.3624492564704269, 0.3778539632912725, 0.39581627945881337, 0.4125866601243615, 0.4276503751752898, 0.4458488938398659, 0.4624479253543541, 0.47789188544265926, 0.49575999355874956, 0.5126409663353115, 0.527603646623902, 0.545844831969589, 0.5624271380947903, 0.5779093275777996, 0.5957368171075359, 0.6125696618109941, 0.6276698993751779, 0.6458213140722364, 0.6622619669651613, 0.677824369748123, 0.695782931172289, 0.7125502398703247, 0.7277747228508815, 0.7459223828045651, 0.7624463210813701, 0.7778117745183408, 0.7958218773128465, 0.8125779220135882, 0.8277092209318653, 0.8458005610154942, 0.8623337151948363, 0.8778179526561871, 0.8957457941723987, 0.9124888682272285, 0.9276409884914756, 0.9458309737965465, 0.9623781227273867]
36	葡萄	False	animate	inanimate	right	1.1	[0.0, 0.0, 0.0, 0.0, 0.0, 0.0, 0.0, 0.0, 0.0, 0.0, 0.0, 0.0, 0.0, 0.0, 0.0, 0.0, 0.0, 0.0, 0.0, 0.0, 0.0, 0.0, 0.0, 0.0, 0.0, 0.0, 0.0, 0.0, 0.0, 0.0, 0.0, 0.0, 0.0, 0.0, 0.0, 0.0, 0.0, 0.0, 0.0, 0.0, 0.0, 0.0, 0.0, 0.0, 0.0, 0.0, 0.0, 0.0, 0.0, 0.0, 0.0, 0.0, 0.0, 0.0, 0.0, 0.0, 0.0, 0.0, 0.0, 0.0, 8.0, 188.0, 425.0, 567.0, 959.0, 959.0, 959.0]	[-490.0, -490.0, -490.0, -490.0, -490.0, -490.0, -490.0, -490.0, -490.0, -490.0, -490.0, -490.0, -490.0, -490.0, -490.0, -490.0, -490.0, -490.0, -490.0, -490.0, -490.0, -490.0, -490.0, -490.0, -490.0, -490.0, -490.0, -490.0, -490.0, -490.0, -490.0, -490.0, -490.0, -490.0, -490.0, -490.0, -490.0, -490.0, -490.0, -490.0, -490.0, -490.0, -490.0, -490.0, -490.0, -490.0, -490.0, -490.0, -490.0, -490.0, -490.0, -490.0, -490.0, -490.0, -490.0, -490.0, -490.0, -490.0, -490.0, -490.0, -482.0, -251.0, 16.0, 150.0, 453.0, 540.0, 540.0]	[0.008220872725360096, 0.013015920878387988, 0.017519129323773086, 0.033335142536088824, 0.04966588621027768, 0.06499549967702478, 0.08299467980396003, 0.09978997788857669, 0.11484993807971478, 0.1331331074470654, 0.14964782958850265, 0.16501362447161227, 0.18303226050920784, 0.19982448662631214, 0.21460182301234454, 0.23304917360655963, 0.24964581581298262, 0.26503140793647617, 0.2830452653579414, 0.29979345947504044, 0.3146124385530129, 0.3331546797417104, 0.34952160459943116, 0.365031783352606, 0.3830640728119761, 0.39979622419923544, 0.4148350218310952, 0.4331134124659002, 0.44968616135884076, 0.46505195612553507, 0.4829907203093171, 0.49980240233708173, 0.5146981814177707, 0.5331100332550704, 0.5497138435021043, 0.565062912995927, 0.5829791490687057, 0.5998024365399033, 0.614809148828499, 0.6331274753902107, 0.6496923735830933, 0.6651004937011749, 0.6830283352173865, 0.6997741400264204, 0.7148498016176745, 0.7332206935388967, 0.7497279064264148, 0.7649694558931515, 0.7829829719848931, 0.7997844141209498, 0.8148430091096088, 0.8331749889766797, 0.8496866392670199, 0.865092369960621, 0.8830335234524682, 0.8998039042344317, 0.9148444085149094, 0.9331275778822601, 0.9494794841157272, 0.9650603188201785, 0.9829956695903093, 0.9997087063966319, 1.0148389813257381, 1.0330511532956734, 1.0496416515670717, 1.0650736649986356, 1.0830598743632436]
