trialIndex	stimulus	isAnimate	left_option	right_option	response	response_time	xTrajectory	yTrajectory	tTrajectory
0	核桃	False	inanimate	animate	left	1.691	[0.0, 0.0, 0.0, 0.0, 0.0, 0.0, 0.0, 0.0, 0.0, 0.0, -4.0, -6.0, -8.0, -9.0, -9.0, -9.0, -9.0, -9.0, -9.0, -9.0, -9.0, -4.0, 7.0, 13.0, 14.0, 15.0, 15.0, 15.0, 15.0, 15.0, 14.0, 12.0, 11.0, 9.0, 9.0, 9.0, 9.0, 9.0, 9.0, 9.0, 9.0, 9.0, 9.0, 9.0, 9.0, 9.0, 9.0, 9.0, 9.0, 9.0, 9.0, 6.0, -2.0, -7.0, -11.0, -12.0, -12.0, -12.0, -12.0, -12.0, -12.0, -12.0, -12.0, -12.0, -12.0, -12.0, -12.0, -13.0, -14.0, -18.0, -25.0, -39.0, -45.0, -67.0, -86.0, -106.0, -141.0, -189.0, -257.0, -326.0, -393.0, -447.0, -495.0, -550.0, -571.0, -608.0, -622.0, -632.0, -638.0, -645.0, -652.0, -659.0, -669.0, -678.0, -688.0, -701.0, -702.0, -705.0, -705.0, -705.0, -705.0, -705.0]	[-490.0, -490.0, -490.0, -490.0, -490.0, -490.0, -490.0, -490.0, -490.0, -490.0, -479.0, -460.0, -454.0, -441.0, -433.0, -425.0, -417.0, -410.0, -401.0, -385.0, -379.0, -368.0, -355.0, -351.0, -351.0, -351.0, -351.0, -351.0, -351.0, -351.0, -352.0, -352.0, -352.0, -353.0, -353.0, -353.0, -353.0, -353.0, -353.0, -353.0, -353.0, -353.0, -353.0, -353.0, -353.0, -353.0, -353.0, -353.0, -353.0, -353.0, -353.0, -353.0, -345.0, -322.0, -295.0, -278.0, -278.0, -278.0, -278.0, -278.0, -278.0, -278.0, -279.0, -279.0, -279.0, -280.0, -280.0, -287.0, -290.0, -291.0, -291.0, -289.0, -285.0, -272.0, -258.0, -242.0, -213.0, -171.0, -113.0, -55.0, 3.0, 50.0, 100.0, 167.0, 193.0, 248.0, 273.0, 292.0, 306.0, 322.0, 340.0, 357.0, 373.0, 387.0, 397.0, 404.0, 406.0, 407.0, 407.0, 407.0, 407.0, 407.0]	[0.005893661105801584, 0.011003416744642891, 0.027441333384558675, 0.04497151575924363, 0.0619630745932227, 0.07688205919475877, 0.09514474227762548, 0.11167413617295097, 0.12702217640799063, 0.14510019831504906, 0.16180162406453746, 0.17685680055001285, 0.19510787830949994, 0.2121328877801716, 0.22699623509834055, 0.24496059310149576, 0.2617995760647318, 0.2768878618571762, 0.2950338090395235, 0.31167720817029476, 0.32702797907040804, 0.34496946776016557, 0.3617712454233697, 0.3768800111974997, 0.3951174356334377, 0.41171953346747614, 0.42718533360311994, 0.44495649710552243, 0.46179411473713117, 0.4769172164978954, 0.49509251832205337, 0.5117110001410765, 0.5270627950412745, 0.5449370411206473, 0.5618494106893195, 0.5768066245927912, 0.5950747690039861, 0.6119540292675083, 0.6270778136949957, 0.6449646890978329, 0.6618671600081143, 0.676839733898305, 0.6950638463458745, 0.7116379548697296, 0.7270853230220382, 0.7448779905043921, 0.7618388293649332, 0.776611040759235, 0.7949778304191568, 0.811634200206754, 0.8271215043241682, 0.8449694677601656, 0.8618118640551984, 0.8768803525290423, 0.8950382463681308, 0.911475821674685, 0.9270119364173297, 0.9449158784736937, 0.9618702320058219, 0.9767902406074427, 0.9950839849952899, 1.012098071811124, 1.0270941976814356, 1.0447991425717191, 1.061801282730812, 1.0768103792561305, 1.0951484969409648, 1.111680621499545, 1.1270518723831628, 1.1447428226201737, 1.1617773894176935, 1.17681140325476, 1.1951300649561745, 1.2116563868548837, 1.2270784963602637, 1.2447861719174398, 1.2618439493617188, 1.2768585072153655, 1.2950829609962966, 1.3116246428817249, 1.3270685977022367, 1.344887547829785, 1.361772610754997, 1.3768107205887645, 1.3950846676616493, 1.4118970266481483, 1.427216053576558, 1.4448459052000544, 1.461808792057127, 1.4770042564232426, 1.4950447316969075, 1.5113669364345697, 1.5270426563911315, 1.5448585345220636, 1.561856237351094, 1.576834955234517, 1.5951611262644292, 1.6115935815741977, 1.6270518723831628, 1.6448428332023468, 1.6618193733811495, 1.6769533978003892]
1	桥梁	False	inanimate	animate	left	1.412	[0.0, 0.0, 0.0, 0.0, 0.0, 0.0, 0.0, 0.0, 0.0, -1.0, -4.0, -4.0, -4.0, -4.0, -4.0, -4.0, -4.0, -4.0, -4.0, -4.0, -4.0, -4.0, -4.0, -4.0, -4.0, -4.0, -4.0, -4.0, -4.0, -4.0, -4.0, -4.0, -4.0, -4.0, -4.0, -4.0, -4.0, -4.0, -4.0, -4.0, -4.0, -4.0, -4.0, -4.0, -4.0, -4.0, -4.0, -4.0, -4.0, -4.0, -4.0, -4.0, -4.0, -4.0, -4.0, -4.0, -4.0, -4.0, -4.0, -16.0, -55.0, -99.0, -179.0, -198.0, -275.0, -315.0, -367.0, -426.0, -481.0, -525.0, -559.0, -581.0, -599.0, -618.0, -642.0, -651.0, -677.0, -698.0, -716.0, -733.0, -746.0, -754.0, -755.0, -755.0, -755.0, -755.0]	[-490.0, -490.0, -490.0, -490.0, -490.0, -490.0, -490.0, -490.0, -490.0, -487.0, -469.0, -463.0, -440.0, -409.0, -352.0, -333.0, -305.0, -298.0, -297.0, -296.0, -296.0, -296.0, -296.0, -296.0, -296.0, -296.0, -296.0, -296.0, -296.0, -296.0, -296.0, -296.0, -296.0, -296.0, -296.0, -296.0, -296.0, -296.0, -296.0, -296.0, -296.0, -296.0, -296.0, -296.0, -296.0, -296.0, -296.0, -296.0, -296.0, -296.0, -296.0, -296.0, -296.0, -296.0, -296.0, -296.0, -296.0, -296.0, -294.0, -275.0, -248.0, -217.0, -159.0, -144.0, -80.0, -32.0, 30.0, 100.0, 164.0, 205.0, 234.0, 252.0, 265.0, 277.0, 292.0, 296.0, 308.0, 317.0, 324.0, 333.0, 339.0, 343.0, 344.0, 344.0, 344.0, 344.0]	[0.0154843686541426, 0.02285409036630881, 0.02958142329225666, 0.048056756859296, 0.06476261993702792, 0.07985807372278941, 0.09758861859154422, 0.11459997474230477, 0.12967733787627367, 0.1478645863571728, 0.16429226300533628, 0.17982803641461942, 0.19760056524864922, 0.21453682812898478, 0.22961453259631526, 0.24785775969576207, 0.2644151428994519, 0.28004785489429196, 0.2977504104546824, 0.31462420938805735, 0.32959644194488646, 0.3477717437690444, 0.36430147899773146, 0.3798655830487405, 0.3975148906556569, 0.4146231853883364, 0.4296486659004586, 0.4478314770512952, 0.4648619478521141, 0.47977786045703397, 0.49757018660784524, 0.5145385347950651, 0.5295862019538617, 0.5477905170864688, 0.564458150864084, 0.5798324737443181, 0.5977111571537534, 0.6145846147555858, 0.6295855192875024, 0.6477075731563673, 0.6643810095956724, 0.6798447617329657, 0.6976835091772955, 0.7145381934624311, 0.7295394393277093, 0.7477768637654663, 0.7644404015445616, 0.7798413484033517, 0.7977077438245033, 0.8146498093665286, 0.8297449218189286, 0.847838303712706, 0.8649155371404049, 0.879858756388785, 0.897771573103455, 0.914583932089954, 0.9296360365788132, 0.9478458130397485, 0.9644004655783647, 0.9798396417372714, 0.9977179838151642, 1.0145115694849665, 1.029614191264045, 1.0478246503898845, 1.0644465455407044, 1.0811541152834252, 1.097771231769002, 1.1145300014686654, 1.12976028180492, 1.1477475091232918, 1.164303868328716, 1.1798198444212176, 1.1975899839235353, 1.2149426731157291, 1.2293513648219232, 1.2476287252247857, 1.2648424918679666, 1.2799611563004873, 1.2976527892042213, 1.3145777880945388, 1.3296309165834828, 1.3478976956612314, 1.3643687216062972, 1.3798713857104303, 1.3976015892476426, 1.4146358147118008]
2	太阳	False	animate	inanimate	right	1.298	[0.0, 0.0, 0.0, 0.0, 0.0, 0.0, 0.0, -1.0, -9.0, -18.0, -28.0, -44.0, -52.0, -53.0, -53.0, -53.0, -52.0, -51.0, -51.0, -51.0, -51.0, -51.0, -51.0, -51.0, -51.0, -51.0, -51.0, -51.0, -51.0, -51.0, -51.0, -51.0, -51.0, -51.0, -51.0, -51.0, -51.0, -51.0, -51.0, -51.0, -51.0, -51.0, -51.0, -51.0, -61.0, -74.0, -84.0, -87.0, -88.0, -88.0, -71.0, -31.0, 64.0, 156.0, 205.0, 330.0, 396.0, 448.0, 474.0, 493.0, 505.0, 514.0, 523.0, 534.0, 548.0, 563.0, 573.0, 579.0, 584.0, 588.0, 596.0, 614.0, 637.0, 659.0, 673.0, 684.0, 688.0, 688.0, 688.0]	[-490.0, -490.0, -490.0, -490.0, -490.0, -490.0, -490.0, -490.0, -478.0, -456.0, -421.0, -366.0, -327.0, -304.0, -289.0, -279.0, -270.0, -267.0, -265.0, -265.0, -265.0, -265.0, -265.0, -265.0, -265.0, -265.0, -265.0, -265.0, -265.0, -265.0, -265.0, -265.0, -265.0, -265.0, -265.0, -265.0, -265.0, -265.0, -265.0, -265.0, -265.0, -265.0, -265.0, -263.0, -257.0, -249.0, -242.0, -239.0, -225.0, -199.0, -158.0, -100.0, -7.0, 55.0, 83.0, 152.0, 188.0, 214.0, 230.0, 242.0, 252.0, 258.0, 265.0, 274.0, 286.0, 296.0, 303.0, 307.0, 311.0, 314.0, 318.0, 329.0, 340.0, 350.0, 355.0, 359.0, 359.0, 359.0, 359.0]	[0.012567677809784072, 0.01832903822833032, 0.023108383482394856, 0.041939386079320684, 0.05819810287175642, 0.0736280630389956, 0.09153473575861426, 0.10838532404704893, 0.12338486324733822, 0.1417874928756646, 0.15824145216902252, 0.17359256440249737, 0.19151562110891973, 0.20828428946515487, 0.2233944205709122, 0.24161443702359975, 0.2582090255291405, 0.27362874570462736, 0.2920153326813306, 0.3084515426562575, 0.3233729165895056, 0.3417062556127348, 0.35817352689446125, 0.3736226017099398, 0.3915910557097959, 0.4083784973845468, 0.42334970594311017, 0.44143011718188063, 0.4581936655431491, 0.4736086070552119, 0.49145827715801715, 0.5083139854395995, 0.5234306018737698, 0.5415574344060587, 0.5581844495518453, 0.5735901750722405, 0.5915780850555166, 0.6083057934465614, 0.6234548365209776, 0.6415277384312503, 0.6585861985422525, 0.67361065505429, 0.6915702343958401, 0.7083569934038678, 0.7233794019175548, 0.7416758769722946, 0.7582073188641516, 0.7735966603995621, 0.791433701178903, 0.8083293454274099, 0.8231380794568395, 0.8416349170056492, 0.8580806843056052, 0.8735952950664796, 0.8914637384859816, 0.9084143373547704, 0.9231244261354732, 0.9416963569547079, 0.9581506575796084, 0.9735877857401647, 0.9914330185129074, 1.0082771214711101, 1.0233459512801346, 1.041501455787511, 1.0583974413693795, 1.0735440951102646, 1.0912746399808384, 1.1082542521580763, 1.1233800845839141, 1.1415533384097216, 1.1581503162469744, 1.1736113377191941, 1.1914715891452943, 1.2082743908067641, 1.2233705272592488, 1.241557775738329, 1.2580755643102748, 1.2736352310330403, 1.2914186825237266]
3	镜子	False	animate	inanimate	right	1.251	[0.0, 0.0, 0.0, 0.0, 0.0, 0.0, 0.0, 0.0, 0.0, 0.0, 0.0, 0.0, 1.0, 4.0, 9.0, 17.0, 22.0, 27.0, 29.0, 29.0, 29.0, 29.0, 29.0, 29.0, 29.0, 29.0, 29.0, 29.0, 29.0, 29.0, 29.0, 29.0, 29.0, 29.0, 29.0, 29.0, 29.0, 29.0, 29.0, 29.0, 29.0, 29.0, 29.0, 29.0, 29.0, 29.0, 29.0, 29.0, 29.0, 29.0, 29.0, 34.0, 59.0, 103.0, 155.0, 234.0, 277.0, 297.0, 353.0, 388.0, 405.0, 480.0, 533.0, 577.0, 610.0, 640.0, 668.0, 688.0, 711.0, 717.0, 738.0, 748.0, 760.0, 764.0, 765.0, 765.0]	[-490.0, -490.0, -490.0, -490.0, -490.0, -490.0, -490.0, -490.0, -490.0, -490.0, -490.0, -490.0, -472.0, -442.0, -399.0, -336.0, -293.0, -250.0, -222.0, -201.0, -186.0, -178.0, -176.0, -176.0, -176.0, -176.0, -176.0, -176.0, -176.0, -176.0, -176.0, -176.0, -176.0, -176.0, -176.0, -176.0, -176.0, -176.0, -176.0, -176.0, -176.0, -176.0, -176.0, -176.0, -176.0, -176.0, -176.0, -176.0, -176.0, -176.0, -176.0, -170.0, -141.0, -90.0, -24.0, 67.0, 103.0, 120.0, 168.0, 206.0, 222.0, 290.0, 333.0, 365.0, 385.0, 406.0, 425.0, 437.0, 452.0, 455.0, 463.0, 468.0, 471.0, 471.0, 471.0, 471.0]	[0.01570725913006754, 0.020400929790412192, 0.029674607210836257, 0.04798200492223259, 0.06471415064333996, 0.07970310852033435, 0.09819585007244314, 0.11433066297104233, 0.1299002283521986, 0.14789564766215335, 0.16465919602342183, 0.1796860418671713, 0.19793199963169172, 0.21449518549707136, 0.2303504466344748, 0.24787311968066206, 0.26462267338865786, 0.279513327348468, 0.2979470182854129, 0.3142968709998968, 0.3299742976214475, 0.3483055886463262, 0.3646356440440286, 0.3796758018761466, 0.3978982076605462, 0.4143774255971948, 0.4299589376350923, 0.447775157097567, 0.46470664131629746, 0.4798225750837446, 0.4979446289526095, 0.5144822148413368, 0.5299401643169404, 0.5476195092305716, 0.5646718253465224, 0.5794921646993316, 0.5977705491022789, 0.6144671961883432, 0.6300135509209213, 0.647799050411777, 0.6646199427232204, 0.6797130071772699, 0.6979992422402574, 0.7148542678569356, 0.7300251562446647, 0.7478318183839292, 0.7646250627203699, 0.7797379244893818, 0.7979958289106435, 0.814488017502299, 0.8300941055185831, 0.8476454505416768, 0.8645769347604073, 0.8797177858396026, 0.897970228932536, 0.9144125829006953, 0.9298947670231428, 0.9477536531157966, 0.9646923053296632, 0.979550191315866, 0.9978872850024345, 1.0144043909076572, 1.0299814656154922, 1.0478806290084322, 1.064604241404595, 1.0797307564953371, 1.0980245008850034, 1.114994555737212, 1.1299439189806435, 1.14786765835197, 1.1646158467265195, 1.1797782017893041, 1.1979565756100783, 1.214412241568425, 1.229982148281124, 1.2478703890174074]
4	信封	False	animate	inanimate	right	1.417	[0.0, 0.0, 0.0, 0.0, 0.0, 0.0, 0.0, 0.0, 0.0, 0.0, 0.0, 0.0, 0.0, 0.0, 0.0, 0.0, 0.0, 0.0, 0.0, 0.0, 0.0, 0.0, 0.0, 0.0, 0.0, 0.0, 0.0, 0.0, 0.0, 0.0, 0.0, 0.0, 0.0, 0.0, 0.0, 0.0, 0.0, 0.0, 0.0, 0.0, 0.0, 0.0, 0.0, 0.0, 0.0, 0.0, 0.0, 0.0, 0.0, 0.0, 0.0, 0.0, 0.0, 0.0, 0.0, 0.0, 3.0, 33.0, 86.0, 149.0, 217.0, 321.0, 373.0, 414.0, 450.0, 495.0, 539.0, 577.0, 610.0, 634.0, 658.0, 676.0, 690.0, 707.0, 714.0, 719.0, 719.0, 719.0, 719.0, 720.0, 725.0, 737.0, 745.0, 749.0, 750.0, 750.0]	[-490.0, -490.0, -490.0, -490.0, -490.0, -490.0, -490.0, -490.0, -490.0, -490.0, -484.0, -455.0, -425.0, -384.0, -366.0, -360.0, -351.0, -350.0, -349.0, -349.0, -349.0, -349.0, -349.0, -349.0, -349.0, -349.0, -349.0, -349.0, -349.0, -349.0, -349.0, -349.0, -349.0, -349.0, -349.0, -349.0, -349.0, -349.0, -349.0, -349.0, -349.0, -349.0, -349.0, -349.0, -349.0, -349.0, -349.0, -349.0, -349.0, -349.0, -349.0, -349.0, -349.0, -349.0, -349.0, -349.0, -344.0, -285.0, -196.0, -112.0, -24.0, 96.0, 158.0, 204.0, 235.0, 284.0, 325.0, 358.0, 380.0, 397.0, 413.0, 428.0, 438.0, 453.0, 459.0, 462.0, 463.0, 463.0, 463.0, 463.0, 463.0, 463.0, 463.0, 463.0, 462.0, 462.0]	[0.012992296113225166, 0.017360335052217124, 0.0246662274839764, 0.042246244482157636, 0.0592603312979918, 0.07418375322959037, 0.09245019097579643, 0.10901474217280338, 0.12443241434993979, 0.14235376439137326, 0.1591388167344121, 0.1741533745880588, 0.19252972157482873, 0.20906287013167457, 0.2244518703337235, 0.24238107103519724, 0.2592173233333597, 0.2740724786581268, 0.29238363103286247, 0.30910656076230225, 0.3244245636906271, 0.34234352440034854, 0.3592320006555383, 0.37425611583421414, 0.3923860203631193, 0.40904819281240634, 0.42492188593314495, 0.4424612842994975, 0.45921186200575903, 0.4742103772059636, 0.4923580310532998, 0.5090004061858053, 0.5244443610063172, 0.5423390870710136, 0.5592026460126363, 0.574237342516426, 0.5923324310751923, 0.6089761715393252, 0.6244641583234625, 0.6423558123897237, 0.6591569073862047, 0.6741342599380005, 0.6924245909976889, 0.7088468063175242, 0.7245215022740013, 0.7424124736735394, 0.759200939348375, 0.774212766538767, 0.7924457536464615, 0.8090440968153416, 0.8250986964485492, 0.8423425004002638, 0.8591954780185915, 0.8743335984345322, 0.8924020630165614, 0.9090208861689462, 0.9244054490409326, 0.9423759510391392, 0.9591831900306715, 0.9742172038677381, 0.9925392788991303, 1.0089273609155498, 1.0243733637344121, 1.0421336045783391, 1.0592282459911075, 1.0742038918797334, 1.092444046980745, 1.1089297502458066, 1.1244057903732028, 1.1422097218473937, 1.1590599688024668, 1.174105587962913, 1.1925249429114047, 1.2089420382362732, 1.225116787099978, 1.2420182340101746, 1.2591244807463227, 1.2741933105553471, 1.2924181056696398, 1.3088253023361176, 1.3244313903505827, 1.3423206550851319, 1.3591562247202091, 1.3741799985655234, 1.3923389164028777, 1.4088952756083017]
5	黑狗	True	animate	inanimate	right	1.993	[0.0, 0.0, 0.0, 0.0, 0.0, 0.0, 0.0, 0.0, -3.0, -7.0, -15.0, -17.0, -17.0, -17.0, -17.0, -17.0, -17.0, -17.0, -17.0, -17.0, -17.0, -17.0, -17.0, -17.0, -17.0, -17.0, -17.0, -17.0, -17.0, -17.0, -17.0, -17.0, -17.0, -17.0, -17.0, -17.0, -17.0, -17.0, -17.0, -17.0, -17.0, -17.0, -17.0, -17.0, -17.0, -17.0, -17.0, -17.0, -17.0, -17.0, -17.0, -17.0, -17.0, -17.0, -17.0, -17.0, -17.0, -17.0, -17.0, -17.0, -17.0, -17.0, -17.0, -17.0, -17.0, -17.0, -17.0, -17.0, -16.0, -10.0, 1.0, 8.0, 17.0, 24.0, 28.0, 30.0, 41.0, 45.0, 58.0, 76.0, 86.0, 94.0, 115.0, 128.0, 145.0, 169.0, 208.0, 250.0, 334.0, 362.0, 424.0, 506.0, 531.0, 538.0, 556.0, 561.0, 566.0, 570.0, 577.0, 586.0, 593.0, 602.0, 610.0, 627.0, 639.0, 646.0, 671.0, 686.0, 699.0, 711.0, 717.0, 722.0, 722.0, 722.0, 722.0, 722.0, 722.0, 722.0, 722.0, 722.0, 722.0]	[-490.0, -490.0, -490.0, -490.0, -490.0, -490.0, -490.0, -486.0, -451.0, -427.0, -368.0, -344.0, -320.0, -302.0, -283.0, -269.0, -257.0, -256.0, -255.0, -255.0, -255.0, -255.0, -255.0, -255.0, -255.0, -255.0, -255.0, -255.0, -255.0, -255.0, -255.0, -255.0, -255.0, -255.0, -255.0, -255.0, -255.0, -255.0, -255.0, -255.0, -255.0, -255.0, -255.0, -255.0, -255.0, -255.0, -255.0, -255.0, -255.0, -255.0, -255.0, -255.0, -255.0, -255.0, -255.0, -255.0, -255.0, -255.0, -255.0, -255.0, -255.0, -255.0, -255.0, -255.0, -255.0, -255.0, -255.0, -255.0, -253.0, -233.0, -213.0, -199.0, -188.0, -180.0, -175.0, -172.0, -160.0, -154.0, -139.0, -118.0, -106.0, -99.0, -81.0, -70.0, -57.0, -39.0, -8.0, 21.0, 91.0, 118.0, 170.0, 238.0, 262.0, 269.0, 290.0, 296.0, 302.0, 306.0, 314.0, 323.0, 331.0, 337.0, 345.0, 358.0, 366.0, 371.0, 385.0, 392.0, 398.0, 402.0, 404.0, 405.0, 405.0, 405.0, 405.0, 405.0, 405.0, 405.0, 405.0, 405.0, 405.0]	[0.008047745664953254, 0.012724691006951616, 0.01700295935734175, 0.03367776112827414, 0.04937430239988316, 0.06484488119895104, 0.08274063126009423, 0.09965129416377749, 0.11456311077199643, 0.1328998631252034, 0.1494173103637877, 0.1647827585838968, 0.18259317538650066, 0.19965197682904545, 0.21430984165453992, 0.23278244455832464, 0.24914083059957193, 0.2648107478944439, 0.2827307326024311, 0.2995434329222917, 0.3150211797146767, 0.3329073724507907, 0.34934289975899446, 0.36482986254486605, 0.382519106116888, 0.3995748355628166, 0.4145504814496235, 0.4327984872106754, 0.44939239305131196, 0.464812795891703, 0.4827153726146207, 0.4995519662479637, 0.5145535534466035, 0.5327831272243202, 0.5493244677763869, 0.5648561451889691, 0.5827580392451637, 0.5995437742549257, 0.6145566254435835, 0.6327780072278983, 0.6493900037203275, 0.6648226945508213, 0.6827266366053664, 0.7000175445173227, 0.7145682307673269, 0.7328199911935371, 0.7493469957571506, 0.7647803692525486, 0.7827092286206607, 0.799569032900763, 0.8144388655455259, 0.8328087272020639, 0.8491937372200482, 0.8648346412064711, 0.8827256126060092, 0.8995594755742786, 0.9145644761047151, 0.9328452498375555, 0.9494807983082865, 0.9648196225534775, 0.9826501780044055, 0.999544456921285, 1.0144794841762632, 1.032667756655428, 1.049367134406566, 1.0648349825405603, 1.0827338046001387, 1.0999796565502038, 1.1145624281052733, 1.132847639169995, 1.1491640412459674, 1.1647366786237399, 1.1827218579437613, 1.1996516354956839, 1.214292092336109, 1.2327029139596561, 1.2492988677968242, 1.2647749079242203, 1.2825016981314548, 1.299474483646918, 1.3142978949981625, 1.3327831272235926, 1.3494128730326338, 1.3647882199129526, 1.3826614419940597, 1.3995878062178235, 1.4143275909736985, 1.432677655313455, 1.4493190064476948, 1.4647817345849035, 1.483085718966322, 1.4995246596045035, 1.5145528707798803, 1.53272271127571, 1.5492906758045137, 1.5647861719153298, 1.582573719402717, 1.5996448088353645, 1.614594172078796, 1.6329391164235858, 1.649273267819808, 1.6647554519404366, 1.6826665619901178, 1.6995157849451061, 1.7144016602433112, 1.732792684550077, 1.7492961371335696, 1.764784123915888, 1.7827167379473394, 1.7994857476387551, 1.8146085080661578, 1.833001580371274, 1.8495084462847444, 1.8648394198698952, 1.8826218473623157, 1.8994915502989898, 1.9145545774463244, 1.9326670739901601, 1.9492749744840694, 1.9648138198917877, 1.9824361621867865]
6	观众	True	animate	inanimate	left	2.212	[0.0, 0.0, 0.0, 0.0, 0.0, 0.0, 0.0, 0.0, 0.0, 0.0, 0.0, 0.0, 0.0, 0.0, 0.0, 0.0, 0.0, 0.0, 0.0, 0.0, 0.0, 0.0, 0.0, 0.0, 0.0, 0.0, 0.0, 0.0, 0.0, 0.0, 0.0, 0.0, 0.0, 0.0, 0.0, 0.0, 0.0, 0.0, 0.0, 0.0, 0.0, 0.0, 0.0, 0.0, 0.0, 0.0, 0.0, 0.0, 0.0, 0.0, 0.0, 0.0, 0.0, 0.0, 0.0, 0.0, 0.0, 0.0, 0.0, 0.0, 0.0, 0.0, 0.0, 0.0, 0.0, 0.0, 0.0, 0.0, 0.0, 0.0, 0.0, 0.0, 0.0, 0.0, 0.0, 0.0, 0.0, 0.0, 0.0, 0.0, 0.0, 0.0, 0.0, 0.0, 0.0, 0.0, 0.0, 0.0, 0.0, 0.0, 0.0, 0.0, 0.0, 0.0, 0.0, 1.0, 8.0, 69.0, 142.0, 219.0, 284.0, 324.0, 348.0, 361.0, 367.0, 372.0, 373.0, 362.0, 346.0, 190.0, 46.0, -91.0, -232.0, -344.0, -442.0, -519.0, -563.0, -580.0, -592.0, -599.0, -605.0, -625.0, -642.0, -657.0, -671.0, -680.0, -685.0, -692.0, -700.0, -709.0, -719.0, -719.0, -719.0, -719.0]	[-490.0, -490.0, -490.0, -490.0, -490.0, -490.0, -490.0, -490.0, -490.0, -486.0, -467.0, -451.0, -426.0, -400.0, -372.0, -349.0, -337.0, -334.0, -334.0, -334.0, -334.0, -334.0, -334.0, -334.0, -334.0, -334.0, -334.0, -334.0, -334.0, -334.0, -334.0, -334.0, -334.0, -334.0, -334.0, -334.0, -334.0, -334.0, -334.0, -334.0, -334.0, -334.0, -334.0, -334.0, -334.0, -334.0, -334.0, -334.0, -334.0, -334.0, -334.0, -334.0, -334.0, -334.0, -334.0, -334.0, -334.0, -334.0, -334.0, -334.0, -334.0, -334.0, -334.0, -334.0, -334.0, -334.0, -334.0, -334.0, -334.0, -334.0, -334.0, -334.0, -334.0, -334.0, -334.0, -334.0, -334.0, -334.0, -334.0, -334.0, -334.0, -334.0, -334.0, -334.0, -334.0, -334.0, -334.0, -334.0, -334.0, -334.0, -334.0, -334.0, -334.0, -334.0, -334.0, -329.0, -319.0, -243.0, -155.0, -61.0, 14.0, 62.0, 88.0, 101.0, 111.0, 122.0, 141.0, 159.0, 166.0, 185.0, 189.0, 189.0, 189.0, 195.0, 214.0, 240.0, 261.0, 272.0, 282.0, 289.0, 295.0, 311.0, 321.0, 329.0, 334.0, 338.0, 341.0, 345.0, 349.0, 355.0, 362.0, 362.0, 362.0, 362.0]	[0.014949499776776065, 0.021415030258140177, 0.02784506210628024, 0.04660165409950423, 0.06317405595837045, 0.07859206946704944, 0.09661274742393289, 0.11334386914677452, 0.1282898190584092, 0.1471225283221429, 0.16298837078284123, 0.17853677351558872, 0.19651683283882448, 0.21341145308906562, 0.22833487502066419, 0.2465033501830476, 0.26316347463398415, 0.2785685174876562, 0.296491232860717, 0.31336878645925026, 0.3281843471486354, 0.34647365420823917, 0.3631146640091174, 0.378592752134864, 0.3965062515144382, 0.41338414644451404, 0.42825773375261633, 0.4464640968835738, 0.4631474319812696, 0.4785415521782852, 0.4965253661648603, 0.5133411384813371, 0.5283693496585329, 0.5466030194311315, 0.5631723492933816, 0.5785777334804152, 0.5965530141420459, 0.6133510371400916, 0.6283649123288342, 0.6466163314198639, 0.6632143332572014, 0.6785541815006582, 0.6964519795601518, 0.7133250958286226, 0.7282891363938688, 0.7464968648564536, 0.7631252453338675, 0.7785992374610942, 0.7965349234891619, 0.8133117838406179, 0.8284693602399784, 0.8465859527805151, 0.8631385573207808, 0.878625861438195, 0.8965642781313363, 0.9133732237878576, 0.9283321443563182, 0.9465159795054205, 0.9665993330345373, 0.9784142349526519, 0.9964584648878372, 1.0132994958512427, 1.02826353641467, 1.046678454034918, 1.063180882618326, 1.078583536142105, 1.096480992870056, 1.113330557158406, 1.1283075683768402, 1.1465501128095639, 1.1631293413302046, 1.1786074294541322, 1.1965468701473583, 1.2133479651420203, 1.2283522830057336, 1.246591072775118, 1.263266898546135, 1.2785869494728104, 1.2965431154825637, 1.313339090484078, 1.3280986725549155, 1.3464808222033753, 1.3631487973125331, 1.3786285921032686, 1.3965311688261863, 1.4133448931461317, 1.4283123470395367, 1.4466337394060247, 1.46318258928477, 1.4785883148051653, 1.496327051667322, 1.5133459171447612, 1.5283266830283537, 1.5466770887014718, 1.5632068239301589, 1.5785408695119258, 1.5965420914835704, 1.6133841464452416, 1.6282410084349976, 1.646661387381755, 1.6631016933533829, 1.6785606668272521, 1.696382347619874, 1.7132377145699138, 1.7283772003174818, 1.7466480753937503, 1.7630272827500448, 1.7785644214909553, 1.79643149957883, 1.8133308984906762, 1.8283597923327761, 1.846720779331008, 1.863035816075353, 1.8785808054781228, 1.896406240934084, 1.913244541230597, 1.9280880912319844, 1.9464917448603956, 1.9630129467623192, 1.9785784161467745, 1.9964355955744395, 2.013325778494618, 2.028299717718255, 2.046717366001758, 2.063150845311611, 2.0785582774969953, 2.0963912222796353, 2.1132824291980796, 2.1283379470187356, 2.146661387381755, 2.163063805384809, 2.1785548641655623, 2.1964383262384217, 2.213337725152087]
7	石头	False	inanimate	animate	left	1.516	[0.0, 0.0, 0.0, 0.0, 0.0, 0.0, 0.0, 0.0, 0.0, 0.0, 0.0, 0.0, 0.0, 0.0, 0.0, 0.0, 0.0, 0.0, 0.0, 0.0, 0.0, 0.0, 2.0, 2.0, 3.0, 3.0, 3.0, 3.0, 3.0, 3.0, 3.0, 3.0, 3.0, 3.0, 3.0, 3.0, 3.0, 3.0, 3.0, 3.0, 3.0, 3.0, 3.0, 3.0, 3.0, 3.0, 3.0, -3.0, -24.0, -39.0, -50.0, -64.0, -82.0, -130.0, -151.0, -236.0, -299.0, -367.0, -426.0, -477.0, -513.0, -547.0, -563.0, -576.0, -589.0, -605.0, -611.0, -627.0, -637.0, -649.0, -661.0, -674.0, -684.0, -691.0, -693.0, -695.0, -695.0, -697.0, -698.0, -699.0, -699.0, -699.0, -699.0, -702.0, -707.0, -713.0, -714.0, -716.0, -716.0, -716.0, -716.0, -716.0]	[-490.0, -490.0, -490.0, -490.0, -490.0, -490.0, -490.0, -490.0, -490.0, -490.0, -490.0, -490.0, -490.0, -490.0, -490.0, -490.0, -479.0, -455.0, -446.0, -419.0, -399.0, -385.0, -376.0, -371.0, -370.0, -370.0, -370.0, -370.0, -370.0, -370.0, -370.0, -370.0, -370.0, -370.0, -370.0, -370.0, -370.0, -370.0, -370.0, -370.0, -370.0, -370.0, -370.0, -370.0, -370.0, -370.0, -370.0, -364.0, -358.0, -352.0, -346.0, -332.0, -313.0, -246.0, -216.0, -111.0, -46.0, 14.0, 64.0, 109.0, 145.0, 177.0, 196.0, 212.0, 226.0, 244.0, 248.0, 263.0, 272.0, 282.0, 290.0, 299.0, 306.0, 312.0, 314.0, 315.0, 316.0, 318.0, 321.0, 322.0, 322.0, 323.0, 323.0, 328.0, 341.0, 355.0, 357.0, 360.0, 360.0, 360.0, 360.0, 360.0]	[0.012536957836346119, 0.017583908196684206, 0.023073567512255977, 0.04149838378907589, 0.0584308920060721, 0.07337991391614196, 0.09167946096749802, 0.10821499885787489, 0.12358488440804649, 0.1415461704145855, 0.15849403862011968, 0.17335499660475762, 0.19158183971740073, 0.2081849615497049, 0.22349750314970152, 0.24150316245140857, 0.2583616013998835, 0.2733655779284163, 0.2916227996829548, 0.30828292413207237, 0.32356167376201483, 0.3415342237585719, 0.3583841293802834, 0.37334680461208336, 0.39163986633502645, 0.40817676955703064, 0.42358112974579853, 0.4414731251436024, 0.4583660387288546, 0.4733823032474902, 0.4915473650798958, 0.5081006522887037, 0.5236046817244642, 0.5413809652218333, 0.5583861773775425, 0.5733730872561864, 0.59160197836718, 0.6081900815461267, 0.6236360843649891, 0.641296314628562, 0.6584155320197169, 0.6733710392581997, 0.6915531677423132, 0.7080446736690647, 0.7236135563834978, 0.7414915571280289, 0.7584459106601571, 0.7734096098920418, 0.7916364530046849, 0.8081228389364696, 0.8235592844303028, 0.8413819892211905, 0.8582581774880964, 0.8733870819105505, 0.8915371250895987, 0.9079491004176816, 0.9235562124322314, 0.9414092958650144, 0.9583168867702625, 0.9734434018628235, 0.9915176691065426, 1.0078675218210265, 1.0235384631141642, 1.0412529653312959, 1.0582530574920384, 1.0734324792047119, 1.0916477169957943, 1.108055937660538, 1.12356030842966, 1.1414072478673916, 1.1583223480993183, 1.173449887190145, 1.1916596636510803, 1.207884588473462, 1.2235476791065594, 1.2413717492308933, 1.2582970894545724, 1.2733386126183177, 1.2915715997260122, 1.3080241936877428, 1.3236074123888102, 1.3411778720619623, 1.3582417935012927, 1.3731990074047644, 1.3915067464477033, 1.4078641084906849, 1.423543583110586, 1.441358778574795, 1.4583045987801597, 1.4731365434581676, 1.491362362572545, 1.508093142962025]
8	衬衫	False	animate	inanimate	right	1.299	[0.0, 0.0, 0.0, 0.0, 0.0, 0.0, 0.0, 0.0, 0.0, 0.0, 0.0, 0.0, 0.0, 0.0, 1.0, 1.0, 1.0, 1.0, 1.0, 1.0, 1.0, 1.0, 1.0, 1.0, 1.0, 1.0, 1.0, 1.0, 1.0, 1.0, 1.0, 1.0, 1.0, 1.0, 1.0, 1.0, 1.0, 1.0, 1.0, 1.0, 1.0, 1.0, 1.0, 1.0, 1.0, 1.0, 1.0, 1.0, 1.0, 1.0, 1.0, 1.0, 1.0, 1.0, 1.0, 1.0, 34.0, 109.0, 204.0, 300.0, 392.0, 507.0, 575.0, 636.0, 685.0, 716.0, 738.0, 749.0, 761.0, 769.0, 774.0, 779.0, 785.0, 794.0, 800.0, 800.0, 800.0, 800.0, 800.0]	[-490.0, -490.0, -490.0, -490.0, -490.0, -490.0, -490.0, -490.0, -490.0, -490.0, -490.0, -490.0, -490.0, -490.0, -488.0, -473.0, -440.0, -419.0, -394.0, -370.0, -350.0, -338.0, -328.0, -325.0, -325.0, -325.0, -325.0, -325.0, -325.0, -325.0, -325.0, -325.0, -325.0, -325.0, -325.0, -325.0, -325.0, -325.0, -325.0, -325.0, -325.0, -325.0, -325.0, -325.0, -325.0, -325.0, -325.0, -325.0, -325.0, -325.0, -325.0, -325.0, -325.0, -325.0, -325.0, -322.0, -265.0, -159.0, -49.0, 47.0, 128.0, 213.0, 261.0, 305.0, 340.0, 362.0, 378.0, 386.0, 396.0, 402.0, 408.0, 413.0, 420.0, 430.0, 435.0, 435.0, 435.0, 435.0, 435.0]	[0.01366472220615833, 0.019556471845135093, 0.02557485604302201, 0.04420310681234696, 0.060563882185306284, 0.07604094631096814, 0.09390188040379144, 0.11075178602550295, 0.12584689847790287, 0.14406554959714413, 0.16062634613263072, 0.1759979383477912, 0.19376398185522703, 0.2107466660290811, 0.2255376507400797, 0.24407305892418663, 0.26057617017431767, 0.2759965730165277, 0.29398243500145327, 0.31066508743242593, 0.32571377859130735, 0.3439491550288949, 0.36040209032398707, 0.37605084497045027, 0.39372063255723333, 0.41076100201644294, 0.4259093624241359, 0.4440467762797198, 0.46051029289810685, 0.47604094631060434, 0.49381893647478137, 0.5107364260384202, 0.525535261409459, 0.5438498271141725, 0.5606137168088026, 0.5760228556609945, 0.5938964190754632, 0.6107627086821594, 0.6255417467382358, 0.6438006751559442, 0.6605778768407617, 0.6759962316828023, 0.6938694537639094, 0.7107541753557598, 0.7255922640270001, 0.7439075123984367, 0.7606475087814033, 0.7761750901972846, 0.793914851059526, 0.8107709006744699, 0.8258240291634138, 0.8440170803060028, 0.8604113063156547, 0.8760006690117734, 0.8938271284678194, 0.9106978554045781, 0.925763954548529, 0.9439266270492226, 0.9604983462413657, 0.9759368397335493, 0.9938165471430693, 1.0107504206935118, 1.0258168611690053, 1.0440873949119123, 1.0602901330858003, 1.0761341302313667, 1.0938342964618641, 1.1106971727385826, 1.1257704398758506, 1.1439221897198877, 1.160486399585352, 1.1760030583445769, 1.1938336137955048, 1.2106811300855043, 1.2258079865096079, 1.2439522270269663, 1.2604519249471196, 1.2760218316616374, 1.293820301805681]
9	狮子	True	animate	inanimate	left	1.279	[0.0, 0.0, 0.0, 0.0, 0.0, 0.0, 0.0, 0.0, 0.0, 0.0, 0.0, 0.0, 0.0, 0.0, 0.0, 0.0, -1.0, -6.0, -12.0, -18.0, -21.0, -23.0, -23.0, -23.0, -23.0, -23.0, -23.0, -23.0, -23.0, -23.0, -23.0, -23.0, -23.0, -23.0, -23.0, -23.0, -23.0, -23.0, -23.0, -23.0, -23.0, -23.0, -23.0, -23.0, -23.0, -23.0, -23.0, -23.0, -23.0, -23.0, -23.0, -23.0, -35.0, -54.0, -78.0, -113.0, -168.0, -245.0, -330.0, -424.0, -512.0, -600.0, -643.0, -657.0, -700.0, -718.0, -726.0, -741.0, -749.0, -758.0, -767.0, -775.0, -777.0, -777.0, -777.0, -777.0, -777.0, -777.0]	[-490.0, -490.0, -490.0, -490.0, -490.0, -490.0, -490.0, -490.0, -490.0, -490.0, -490.0, -490.0, -490.0, -490.0, -490.0, -490.0, -464.0, -428.0, -397.0, -374.0, -358.0, -350.0, -347.0, -347.0, -347.0, -347.0, -347.0, -347.0, -347.0, -347.0, -347.0, -347.0, -347.0, -347.0, -347.0, -347.0, -347.0, -347.0, -347.0, -347.0, -347.0, -347.0, -347.0, -347.0, -347.0, -347.0, -347.0, -347.0, -347.0, -347.0, -347.0, -347.0, -340.0, -327.0, -305.0, -267.0, -205.0, -114.0, -14.0, 65.0, 142.0, 217.0, 263.0, 278.0, 341.0, 366.0, 376.0, 400.0, 413.0, 425.0, 437.0, 447.0, 449.0, 449.0, 449.0, 449.0, 449.0, 449.0]	[0.015061457013871404, 0.020158924664428923, 0.028231451109604677, 0.046515979505784344, 0.06341503708608798, 0.07839443763623422, 0.0966485873941565, 0.1131687652959954, 0.12859974946150032, 0.14649652352272824, 0.16339182643969252, 0.178394437636598, 0.19661445408928557, 0.21312268533620227, 0.22868132805888308, 0.24657127546015545, 0.26328362386448134, 0.2784954722174007, 0.2967223153300438, 0.31300458410260035, 0.32871955735936353, 0.3462975263591943, 0.363384658445284, 0.37837464032054413, 0.39650079018610995, 0.4132271332455275, 0.42854513617567136, 0.4465088115121034, 0.46330171451518254, 0.47841662428436393, 0.49663868873540196, 0.5131786639540223, 0.5285871201394912, 0.5465023261840543, 0.5633822691142996, 0.5783681549928588, 0.5965018141851033, 0.6132008506028797, 0.6286297867700341, 0.6464794568710204, 0.6633201465010643, 0.6783746403198165, 0.6966328860726207, 0.7131472613145888, 0.7286007734601299, 0.7465453341483226, 0.7633174158363545, 0.7783538190051331, 0.7965284381625679, 0.8129649894708564, 0.8285782454804576, 0.8465473821470368, 0.8632576825530123, 0.878360986998814, 0.89692540849137, 0.9131254160001845, 0.9286287627710408, 0.9463098143496609, 0.9632508558934205, 0.9780582245912228, 0.9962662943853502, 1.0130991333553538, 1.0285376268475375, 1.0465361181559274, 1.063251197225327, 1.0783770296511648, 1.0965386781535926, 1.1130660240505676, 1.1286762080635526, 1.1464299635790667, 1.1632037519320875, 1.1781090832137124, 1.1963966836083273, 1.2129779601254995, 1.228638661428704, 1.246202635773443, 1.2633047865128901, 1.278412869620297]
10	将军	True	animate	inanimate	left	1.266	[0.0, 0.0, 0.0, 0.0, 0.0, 0.0, 0.0, 0.0, 0.0, 0.0, 0.0, -2.0, -8.0, -14.0, -20.0, -25.0, -28.0, -28.0, -28.0, -28.0, -28.0, -28.0, -28.0, -28.0, -28.0, -28.0, -28.0, -28.0, -28.0, -28.0, -28.0, -28.0, -28.0, -28.0, -28.0, -28.0, -28.0, -28.0, -28.0, -28.0, -28.0, -28.0, -28.0, -28.0, -28.0, -28.0, -28.0, -28.0, -28.0, -28.0, -28.0, -28.0, -28.0, -28.0, -29.0, -54.0, -81.0, -108.0, -178.0, -236.0, -316.0, -400.0, -486.0, -558.0, -614.0, -647.0, -663.0, -672.0, -675.0, -678.0, -682.0, -685.0, -688.0, -688.0, -688.0, -688.0, -688.0]	[-490.0, -490.0, -490.0, -490.0, -490.0, -490.0, -490.0, -490.0, -489.0, -485.0, -480.0, -470.0, -453.0, -429.0, -401.0, -366.0, -326.0, -294.0, -268.0, -254.0, -245.0, -242.0, -241.0, -241.0, -241.0, -241.0, -241.0, -241.0, -241.0, -241.0, -241.0, -241.0, -241.0, -241.0, -241.0, -241.0, -241.0, -241.0, -241.0, -241.0, -241.0, -241.0, -241.0, -241.0, -241.0, -241.0, -241.0, -241.0, -241.0, -241.0, -241.0, -241.0, -241.0, -241.0, -238.0, -231.0, -218.0, -198.0, -131.0, -64.0, 30.0, 127.0, 214.0, 275.0, 321.0, 351.0, 367.0, 377.0, 382.0, 387.0, 395.0, 398.0, 404.0, 404.0, 404.0, 404.0, 404.0]	[0.014818769222983974, 0.021429366248412407, 0.027914694048376987, 0.046551478144465364, 0.06270438169485715, 0.07835040567624674, 0.09625127573417558, 0.11305988005733525, 0.12808877389943518, 0.14636988896563707, 0.16288836020430608, 0.17828691773138416, 0.19635333431324398, 0.21311210401290737, 0.22812563786828832, 0.24642381958801707, 0.26296379480663745, 0.2783316323584586, 0.29627551037992816, 0.31300458410441934, 0.32794370735609846, 0.34636442763803643, 0.3628730002164957, 0.3783118350420409, 0.39623693974681373, 0.41307148538180627, 0.4280587365919928, 0.4462029771093512, 0.46284808290511137, 0.47833811768759915, 0.49620246510858124, 0.5130428134052636, 0.5283894883104949, 0.54632653967019, 0.5627924456184701, 0.5783872696447361, 0.5961731104671344, 0.6130824080391903, 0.6280901392310625, 0.6462053664399718, 0.6628583228957723, 0.6783271950298513, 0.6961389771640825, 0.7130670480510162, 0.7280969658932008, 0.7463077663524018, 0.7628641255578259, 0.7783804429836891, 0.7961686731377995, 0.813025064087924, 0.8281966351405572, 0.8463616969729628, 0.8627743549677689, 0.8783435790155636, 0.8960423799126147, 0.9130554427283641, 0.9281051578855113, 0.9462883103697095, 0.9628054162749322, 0.9783029603840987, 0.9961659424734535, 1.0130417894069979, 1.028113349879277, 1.0464873075325158, 1.0626514750729257, 1.0783510883429699, 1.096124982508627, 1.1130383760755649, 1.128092869896136, 1.146214923765001, 1.1628282855890575, 1.1783302670264675, 1.196105526525571, 1.2130097041008412, 1.2280843365697365, 1.2462650997222227, 1.2627883496224968]
11	帽子	False	inanimate	animate	left	1.518	[0.0, 0.0, 0.0, 0.0, 0.0, 0.0, 0.0, 0.0, 0.0, 0.0, -3.0, -6.0, -9.0, -10.0, -11.0, -11.0, -11.0, -11.0, -11.0, -11.0, -11.0, -11.0, -11.0, -11.0, -11.0, -11.0, -11.0, -11.0, -11.0, -11.0, -11.0, -11.0, -11.0, -11.0, -11.0, -11.0, -11.0, -11.0, -11.0, -11.0, -11.0, -11.0, -11.0, -11.0, -11.0, -11.0, -11.0, -11.0, -18.0, -60.0, -116.0, -193.0, -276.0, -406.0, -448.0, -547.0, -592.0, -625.0, -646.0, -661.0, -677.0, -687.0, -698.0, -707.0, -715.0, -720.0, -722.0, -727.0, -730.0, -732.0, -732.0, -733.0, -733.0, -733.0, -733.0, -733.0, -733.0, -733.0, -733.0, -733.0, -733.0, -733.0, -733.0, -733.0, -733.0, -733.0, -733.0, -733.0, -733.0, -733.0, -733.0, -733.0]	[-490.0, -490.0, -490.0, -490.0, -490.0, -490.0, -490.0, -490.0, -490.0, -490.0, -467.0, -446.0, -423.0, -398.0, -371.0, -350.0, -326.0, -316.0, -312.0, -309.0, -309.0, -309.0, -309.0, -309.0, -309.0, -309.0, -309.0, -309.0, -309.0, -309.0, -309.0, -309.0, -309.0, -309.0, -309.0, -309.0, -309.0, -309.0, -309.0, -309.0, -309.0, -309.0, -309.0, -309.0, -309.0, -309.0, -309.0, -309.0, -299.0, -261.0, -213.0, -156.0, -89.0, 21.0, 59.0, 153.0, 204.0, 242.0, 267.0, 286.0, 303.0, 314.0, 328.0, 339.0, 349.0, 358.0, 361.0, 368.0, 373.0, 376.0, 378.0, 379.0, 379.0, 379.0, 379.0, 379.0, 379.0, 379.0, 379.0, 379.0, 379.0, 379.0, 379.0, 379.0, 379.0, 379.0, 379.0, 379.0, 379.0, 379.0, 379.0, 379.0]	[0.014925947796655237, 0.019636685108707752, 0.028042693937095464, 0.04611866784398444, 0.06312149066980055, 0.07811249654332642, 0.0964775795382593, 0.11290320818807231, 0.12834340834706381, 0.14629274769686162, 0.16312490400014212, 0.1779073553843773, 0.19638132361978933, 0.21285030156650464, 0.22830449637876882, 0.24624427840353746, 0.263036840075074, 0.2781049872155563, 0.296374155626836, 0.3129380241589388, 0.3283140537041618, 0.3462500810655911, 0.3630412774036813, 0.3780360379423655, 0.3963215903386299, 0.41295816280762665, 0.42835467233635427, 0.4466310087409511, 0.4631481146461738, 0.47792783536715433, 0.49617242779822845, 0.512934269496327, 0.528352283005006, 0.5462910410315089, 0.5631252453331399, 0.5779309073641343, 0.5963031583542033, 0.6128417682411964, 0.6283870989755087, 0.6461500704845093, 0.6630750693748269, 0.6781213712019962, 0.696238646409256, 0.712920274840144, 0.7282505657585716, 0.7463309769973421, 0.7630781413718069, 0.7778728807479638, 0.7964844061989425, 0.8128755602119782, 0.8283775416512071, 0.8461801077919517, 0.863055272058773, 0.8781121552110562, 0.8964086302639771, 0.9126721257198369, 0.9283417016813473, 0.9462040011057979, 0.9631313893278275, 0.977873222080234, 0.9960133666008915, 1.0128028562739928, 1.0283833443118056, 1.0462302837495372, 1.0630262587510515, 1.078000539306231, 1.0963929289446241, 1.1128192402611603, 1.128315077703519, 1.1461828384562978, 1.1630433254031232, 1.1780435472683166, 1.1961952971123537, 1.2126830483757658, 1.228327024360624, 1.2462408650735597, 1.2630583440568444, 1.278043888602042, 1.2963809822867915, 1.3128356242468726, 1.3283055203792173, 1.3462043424387957, 1.3631450426491938, 1.3781886138112895, 1.396333536995371, 1.4128533735638484, 1.428333851021307, 1.445978721298161, 1.4631242213326914, 1.4781148858746747, 1.4962888223653863, 1.5128335762474308]
12	飞机	False	inanimate	animate	left	1.85	[0.0, 0.0, 0.0, 0.0, 0.0, 0.0, 0.0, 0.0, 0.0, 0.0, 0.0, 0.0, 0.0, 0.0, -2.0, -2.0, -5.0, -8.0, -11.0, -14.0, -16.0, -18.0, -18.0, -19.0, -19.0, -20.0, -20.0, -20.0, -20.0, -20.0, -20.0, -20.0, -20.0, -20.0, -20.0, -20.0, -20.0, -20.0, -20.0, -20.0, -20.0, -20.0, -20.0, -20.0, -20.0, -20.0, -20.0, -20.0, -20.0, -20.0, -20.0, -20.0, -20.0, -20.0, -20.0, -20.0, -20.0, -20.0, -20.0, -20.0, -20.0, -20.0, -20.0, -20.0, -20.0, -20.0, -20.0, -20.0, -20.0, -20.0, -20.0, -20.0, -20.0, -20.0, -20.0, -20.0, -20.0, -50.0, -100.0, -161.0, -226.0, -298.0, -380.0, -458.0, -521.0, -572.0, -627.0, -637.0, -661.0, -673.0, -678.0, -685.0, -691.0, -694.0, -695.0, -695.0, -695.0, -695.0, -695.0, -695.0, -695.0, -695.0, -695.0, -695.0, -695.0, -695.0, -695.0, -695.0, -695.0, -695.0, -695.0, -695.0]	[-490.0, -490.0, -490.0, -490.0, -490.0, -490.0, -490.0, -490.0, -490.0, -490.0, -490.0, -489.0, -477.0, -468.0, -450.0, -443.0, -419.0, -401.0, -382.0, -367.0, -350.0, -338.0, -329.0, -322.0, -320.0, -318.0, -316.0, -315.0, -315.0, -315.0, -315.0, -315.0, -315.0, -315.0, -315.0, -315.0, -315.0, -315.0, -315.0, -315.0, -315.0, -315.0, -315.0, -315.0, -315.0, -315.0, -315.0, -315.0, -315.0, -315.0, -315.0, -315.0, -315.0, -315.0, -315.0, -315.0, -315.0, -315.0, -315.0, -315.0, -315.0, -315.0, -315.0, -315.0, -315.0, -315.0, -315.0, -315.0, -315.0, -315.0, -315.0, -315.0, -315.0, -315.0, -315.0, -315.0, -299.0, -255.0, -198.0, -126.0, -53.0, 35.0, 127.0, 211.0, 272.0, 318.0, 372.0, 382.0, 406.0, 416.0, 420.0, 426.0, 429.0, 432.0, 432.0, 432.0, 432.0, 432.0, 432.0, 432.0, 432.0, 432.0, 432.0, 432.0, 432.0, 432.0, 432.0, 432.0, 432.0, 432.0, 432.0, 432.0]	[0.015963941577865626, 0.02143004891331657, 0.030169881454639835, 0.04833938061710796, 0.06525823551237409, 0.08018780143902404, 0.09854878843725601, 0.11505189968920604, 0.1304088145843707, 0.14816700742994726, 0.165181435577324, 0.18031989732662623, 0.19842215387870965, 0.21499387307085271, 0.2303548839627183, 0.2483359672860388, 0.2652189822129003, 0.28006731087589287, 0.29851226580285584, 0.3150000170662679, 0.33054603046730335, 0.3482267407125619, 0.36519850222975947, 0.38017551345001266, 0.3984515085212479, 0.41504131836518354, 0.43033918264336535, 0.4483042233132437, 0.46522137154352095, 0.48013489481854776, 0.4983361379527196, 0.5150153770537145, 0.5304101799156342, 0.5483223139654001, 0.5651749502503662, 0.5801195348303736, 0.5983317006230209, 0.6150433663624426, 0.6304149585794221, 0.64831173264065, 0.6651855315740249, 0.6802178387461026, 0.6984201058803592, 0.7150648703445768, 0.7304453372198623, 0.7482779406691407, 0.7652609661763563, 0.7801601534629299, 0.7983794872488943, 0.8148832811657485, 0.8304528465469048, 0.8483110499746545, 0.865172219586384, 0.8801512788031687, 0.898443316527846, 0.9149614464331535, 0.9304521638805454, 0.9482673593447544, 0.9653288914523728, 0.9801693694553251, 0.9984951991500566, 1.0150276650419983, 1.0304054012540291, 1.0482711140084575, 1.0652613075108093, 1.0802021374274773, 1.0985160204654676, 1.1151013929793407, 1.1304583078745054, 1.1481649594315968, 1.1651298942888388, 1.1801724414526689, 1.1984439991938416, 1.2150563370178133, 1.2303924305979308, 1.248310025974206, 1.2651510569376114, 1.2801847294413164, 1.2983924579039012, 1.3149908010746003, 1.3305473957989307, 1.3479946342449693, 1.3649592277670308, 1.3799522816407261, 1.3984436578612076, 1.4149116118078382, 1.4302985640115367, 1.4481854394143738, 1.4652401448620367, 1.4802093054204306, 1.498422153879801, 1.514759035939278, 1.5305764091081073, 1.5482106980598473, 1.5651131689701288, 1.580171758785582, 1.5984487778569019, 1.6149382357853028, 1.6304487505494762, 1.648203530065075, 1.665234000865894, 1.6801785854477203, 1.698405769893725, 1.714973393089167, 1.7304781051916507, 1.7482496100274147, 1.765122384962524, 1.7801765374497336, 1.7983648099288985, 1.8148170625554485, 1.830383214606627, 1.8481898767440725]
13	鸽子	True	inanimate	animate	right	1.47	[0.0, 0.0, 0.0, 0.0, 0.0, 0.0, 0.0, 0.0, 0.0, 0.0, 0.0, -7.0, -15.0, -22.0, -25.0, -28.0, -32.0, -38.0, -42.0, -54.0, -65.0, -98.0, -143.0, -171.0, -171.0, -171.0, -171.0, -171.0, -171.0, -171.0, -171.0, -169.0, -165.0, -163.0, -163.0, -163.0, -163.0, -163.0, -163.0, -163.0, -163.0, -163.0, -163.0, -163.0, -163.0, -163.0, -163.0, -163.0, -163.0, -163.0, -163.0, -163.0, -163.0, -163.0, -163.0, -163.0, -162.0, -162.0, -162.0, -167.0, -177.0, -182.0, -183.0, -183.0, -183.0, -182.0, -178.0, -157.0, -114.0, -37.0, 67.0, 200.0, 344.0, 464.0, 556.0, 626.0, 661.0, 681.0, 695.0, 710.0, 719.0, 726.0, 732.0, 742.0, 751.0, 758.0, 760.0, 760.0, 760.0]	[-490.0, -490.0, -490.0, -490.0, -490.0, -490.0, -490.0, -490.0, -490.0, -490.0, -490.0, -476.0, -459.0, -438.0, -430.0, -415.0, -401.0, -385.0, -370.0, -332.0, -302.0, -246.0, -171.0, -140.0, -140.0, -140.0, -140.0, -140.0, -140.0, -140.0, -140.0, -139.0, -139.0, -138.0, -138.0, -138.0, -138.0, -138.0, -138.0, -138.0, -138.0, -138.0, -138.0, -138.0, -138.0, -138.0, -138.0, -138.0, -138.0, -138.0, -138.0, -138.0, -138.0, -138.0, -138.0, -138.0, -137.0, -137.0, -137.0, -129.0, -115.0, -107.0, -106.0, -106.0, -105.0, -100.0, -94.0, -67.0, -23.0, 43.0, 124.0, 190.0, 240.0, 281.0, 306.0, 327.0, 342.0, 353.0, 362.0, 372.0, 376.0, 380.0, 382.0, 387.0, 390.0, 391.0, 392.0, 392.0, 392.0]	[0.0003751932799787028, 0.005049066623541876, 0.015637217589755892, 0.03372001815841941, 0.05066242503380636, 0.0657121401909535, 0.08394137263530865, 0.10051411582753644, 0.11596762797307747, 0.13389170867776556, 0.15062009973735258, 0.1656793722195289, 0.1839632179508044, 0.20031170533366094, 0.21588127071481722, 0.23363809822876647, 0.2506255610660446, 0.26572203885007184, 0.28396833794613485, 0.3003905532659701, 0.31595568131706386, 0.3338053514180501, 0.35062521973304683, 0.36572033218544675, 0.3839014366694755, 0.4005264038169116, 0.4159311053372221, 0.4337667807849357, 0.4506753956902685, 0.465545569666574, 0.483824978067787, 0.5004298065650801, 0.5159130146876123, 0.5337609781236097, 0.5506480890453531, 0.5657032655326475, 0.5838993886718526, 0.6002977106782055, 0.6159362253329164, 0.6336425355584652, 0.6506224890672456, 0.665582433635791, 0.6838850526837632, 0.7004352678941359, 0.7158747853864043, 0.7336920288489637, 0.7506968996713113, 0.7656889295449218, 0.7837748021120206, 0.8005584891234321, 0.8158737613866833, 0.8337524447979376, 0.8506354597229802, 0.8657841614640347, 0.8839280606480315, 0.9002659667057742, 0.9158952653688175, 0.933768146116563, 0.9505910864281759, 0.9656909775421809, 0.9839106526615069, 1.0004059132534167, 1.0159065293591993, 1.0335947489311366, 1.0506354597237078, 1.0656916602092679, 1.083997692587218, 1.100390894598604, 1.1159208653461974, 1.1337271861521003, 1.1505682171136868, 1.165706678862989, 1.183915089992297, 1.2002659667050466, 1.2159034573614917, 1.2334534370529582, 1.2505934757591604, 1.265709750859969, 1.283851943378977, 1.3003799719408562, 1.3158822947134468, 1.333785212769726, 1.3506050810829038, 1.3654353190941038, 1.3837724127806723, 1.4003850919380056, 1.4159208653472888, 1.4336476555527042, 1.4506453583817347]
14	病人	True	animate	inanimate	left	1.348	[0.0, 0.0, 0.0, 0.0, 0.0, 0.0, 0.0, 0.0, 0.0, 0.0, -1.0, -10.0, -16.0, -22.0, -26.0, -29.0, -33.0, -33.0, -33.0, -33.0, -34.0, -34.0, -34.0, -34.0, -34.0, -34.0, -34.0, -34.0, -34.0, -34.0, -34.0, -34.0, -34.0, -34.0, -34.0, -34.0, -34.0, -34.0, -34.0, -34.0, -34.0, -34.0, -34.0, -34.0, -34.0, -34.0, -34.0, -34.0, -34.0, -34.0, -34.0, -34.0, -34.0, -34.0, -55.0, -87.0, -123.0, -165.0, -242.0, -293.0, -322.0, -396.0, -449.0, -499.0, -544.0, -575.0, -599.0, -617.0, -629.0, -640.0, -654.0, -666.0, -675.0, -687.0, -696.0, -701.0, -704.0, -705.0, -705.0, -705.0, -705.0, -705.0]	[-490.0, -490.0, -490.0, -490.0, -490.0, -490.0, -490.0, -490.0, -490.0, -490.0, -488.0, -474.0, -458.0, -438.0, -417.0, -396.0, -377.0, -358.0, -341.0, -327.0, -317.0, -311.0, -310.0, -310.0, -310.0, -310.0, -310.0, -310.0, -310.0, -310.0, -310.0, -310.0, -310.0, -310.0, -310.0, -310.0, -310.0, -310.0, -310.0, -310.0, -310.0, -310.0, -310.0, -310.0, -310.0, -310.0, -310.0, -310.0, -310.0, -310.0, -310.0, -310.0, -310.0, -310.0, -302.0, -287.0, -271.0, -248.0, -191.0, -147.0, -120.0, -37.0, 17.0, 76.0, 130.0, 170.0, 199.0, 219.0, 239.0, 257.0, 289.0, 311.0, 331.0, 349.0, 360.0, 366.0, 369.0, 370.0, 370.0, 370.0, 370.0, 370.0]	[0.01239393929245125, 0.01703026600262092, 0.022906655654878705, 0.04150828244746663, 0.05795882841084676, 0.07344340186318732, 0.09137738122626615, 0.10820168686950637, 0.12292747697028972, 0.1413150879470777, 0.15804757500154665, 0.17344169519856223, 0.1913947892116994, 0.20815970290641417, 0.22317869809012336, 0.24148575446815812, 0.2577827005607105, 0.2733894712437177, 0.29110021879569103, 0.30808836429969233, 0.3231855247504427, 0.341346831919509, 0.3578516498346289, 0.37343828186749306, 0.39132174394035246, 0.4080931429616612, 0.4232889486629574, 0.44143114118014637, 0.4579601937421103, 0.47345773785127676, 0.4913272052690445, 0.5081487802490301, 0.5232124900612689, 0.5415086237808282, 0.5579659964041639, 0.5734737805050827, 0.5911695094036986, 0.6081846202177985, 0.6233118179752637, 0.6414406985059031, 0.6578752018158411, 0.673427359210109, 0.6913074079529906, 0.7081682362313586, 0.7231882554151525, 0.7412717386505392, 0.7579530257480656, 0.77344818052552, 0.7912882933032961, 0.8082368441737344, 0.8231394447902858, 0.8413055306209571, 0.8579560977468645, 0.8734379405341315, 0.8912906826335529, 0.908165164233651, 0.9231711887623533, 0.9414751731437718, 0.9579066044552746, 0.973363871264155, 0.9912828319738765, 1.0080562789935357, 1.023161631437688, 1.0414734664773277, 1.057633196687675, 1.073410633891399, 1.091060282829858, 1.1080692496489064, 1.1232302393782447, 1.1414495731642091, 1.157837313847267, 1.1734181432184414, 1.1909657335781958, 1.208134785592847, 1.2229984742425586, 1.2414625438213989, 1.2578560871643276, 1.2734372578688635, 1.291222074692996, 1.3081040656197729, 1.3231746020937862, 1.3414321651798673]
15	和尚	True	animate	inanimate	left	1.327	[0.0, 0.0, 0.0, 0.0, 0.0, 0.0, 0.0, 0.0, 0.0, 0.0, 0.0, 0.0, 0.0, 0.0, 0.0, -1.0, -16.0, -31.0, -48.0, -60.0, -71.0, -76.0, -82.0, -84.0, -86.0, -86.0, -86.0, -86.0, -86.0, -86.0, -86.0, -86.0, -86.0, -86.0, -86.0, -86.0, -86.0, -86.0, -86.0, -86.0, -86.0, -86.0, -86.0, -86.0, -86.0, -86.0, -86.0, -86.0, -86.0, -86.0, -86.0, -94.0, -133.0, -187.0, -245.0, -312.0, -386.0, -445.0, -525.0, -573.0, -611.0, -640.0, -665.0, -684.0, -698.0, -708.0, -713.0, -716.0, -717.0, -719.0, -722.0, -723.0, -723.0, -723.0, -723.0, -723.0, -723.0, -723.0, -723.0, -723.0, -723.0]	[-490.0, -490.0, -490.0, -490.0, -490.0, -490.0, -490.0, -490.0, -490.0, -490.0, -490.0, -490.0, -490.0, -490.0, -490.0, -479.0, -454.0, -424.0, -393.0, -363.0, -336.0, -315.0, -292.0, -284.0, -276.0, -274.0, -271.0, -271.0, -271.0, -271.0, -271.0, -271.0, -271.0, -271.0, -271.0, -271.0, -271.0, -271.0, -271.0, -271.0, -271.0, -271.0, -271.0, -271.0, -271.0, -271.0, -271.0, -271.0, -271.0, -271.0, -271.0, -264.0, -240.0, -202.0, -160.0, -106.0, -45.0, 15.0, 99.0, 158.0, 205.0, 247.0, 278.0, 300.0, 314.0, 324.0, 330.0, 334.0, 335.0, 339.0, 345.0, 345.0, 345.0, 345.0, 345.0, 345.0, 345.0, 345.0, 345.0, 345.0, 345.0]	[0.014958374436901067, 0.021252555732644396, 0.02828196839982411, 0.04684126989741344, 0.06311602934147231, 0.07866955206918647, 0.09663834740240418, 0.11341827975047636, 0.12848710955950082, 0.14667299270695366, 0.1631208080052602, 0.17874293867316737, 0.1965659847974166, 0.21348927702456422, 0.2284697015729762, 0.2467607152993878, 0.26314982131407305, 0.2786716000682645, 0.2965523314760503, 0.31344114906460163, 0.328418842949759, 0.3466572913876007, 0.36304161873886187, 0.3786572640801751, 0.3965618888014433, 0.41335820513631916, 0.42844614959358296, 0.44673750465153717, 0.4631999972698395, 0.47871017070247035, 0.4964710942131205, 0.5133971171017038, 0.5284004109653324, 0.546514614175976, 0.5631931706102478, 0.5787074400377605, 0.5965298034952866, 0.6134083810920856, 0.6284560482527013, 0.6466634353819245, 0.6632119439273083, 0.6786692107361887, 0.6965748594575416, 0.7134032610974828, 0.7284427362628776, 0.7467002993507776, 0.7631972666058573, 0.7787251893551002, 0.7964058996021777, 0.8134288610744989, 0.8284833548950701, 0.84672726466124, 0.8630153360954864, 0.8786719414019899, 0.896344118320485, 0.9133677624613483, 0.9284669709086302, 0.9466542193895293, 0.9631392399896868, 0.9787074400373967, 0.9963113503490604, 1.0133305571598612, 1.0282662670797436, 1.0467378459852625, 1.063083944036407, 1.0786535094175633, 1.0964622195533593, 1.1133582051352278, 1.1284461495943106, 1.1465934621082852, 1.1631310479951935, 1.17870846403639, 1.1962577610611334, 1.2134759650343767, 1.228404506962761, 1.2466194034186628, 1.2629695974665083, 1.278682522724921, 1.2964454942339216, 1.313414183754503, 1.328408261626464]
16	鸡蛋	False	animate	inanimate	right	1.367	[0.0, 0.0, 0.0, 0.0, 0.0, 0.0, 0.0, 0.0, 0.0, 0.0, 0.0, 0.0, 0.0, 0.0, 0.0, 0.0, 0.0, 0.0, 0.0, 0.0, 0.0, 0.0, 0.0, 0.0, 0.0, 0.0, 0.0, 0.0, 0.0, 0.0, 0.0, 0.0, 0.0, 0.0, 0.0, 0.0, 0.0, 0.0, 0.0, 0.0, 0.0, 0.0, 0.0, 0.0, 0.0, 0.0, 0.0, 0.0, 0.0, -1.0, -2.0, -3.0, -5.0, -5.0, -5.0, -5.0, 8.0, 51.0, 120.0, 224.0, 252.0, 301.0, 381.0, 413.0, 496.0, 532.0, 551.0, 568.0, 583.0, 603.0, 622.0, 635.0, 644.0, 651.0, 652.0, 658.0, 666.0, 672.0, 674.0, 674.0, 674.0, 674.0, 674.0]	[-490.0, -490.0, -490.0, -490.0, -490.0, -490.0, -490.0, -490.0, -490.0, -490.0, -490.0, -490.0, -490.0, -490.0, -490.0, -490.0, -490.0, -490.0, -490.0, -490.0, -490.0, -490.0, -490.0, -490.0, -490.0, -490.0, -490.0, -490.0, -490.0, -490.0, -490.0, -490.0, -490.0, -490.0, -490.0, -490.0, -490.0, -490.0, -490.0, -490.0, -490.0, -490.0, -490.0, -490.0, -490.0, -490.0, -490.0, -490.0, -490.0, -482.0, -477.0, -473.0, -470.0, -470.0, -470.0, -461.0, -433.0, -378.0, -299.0, -177.0, -144.0, -80.0, 32.0, 80.0, 200.0, 250.0, 274.0, 293.0, 308.0, 324.0, 339.0, 350.0, 357.0, 363.0, 365.0, 369.0, 377.0, 380.0, 381.0, 382.0, 382.0, 382.0, 382.0]	[0.015992954886314692, 0.0209241933443991, 0.030135065484500956, 0.04838136458056397, 0.06539784072811017, 0.0802349053992657, 0.09849554048378195, 0.1148754305067996, 0.13048936918312393, 0.14840423389432544, 0.1652910034845263, 0.18005263355553325, 0.19845389785223233, 0.21509559031801473, 0.23049209984674235, 0.24817485809035134, 0.2651442302776559, 0.2802314920700155, 0.2985156791328336, 0.31509354232002806, 0.33048732118368207, 0.3484185698835063, 0.36529748881366686, 0.3802052094251849, 0.398575753748446, 0.41508193699701224, 0.43049244117901253, 0.44834859661023074, 0.46530363280726306, 0.48020725742389914, 0.49853274578526907, 0.5151003689807112, 0.5304897105161217, 0.5484383671991964, 0.5653022674759995, 0.5802287614042143, 0.5985068044738, 0.6149140011402778, 0.63047878785801, 0.6483567886025412, 0.665258918179461, 0.6802137427512207, 0.6985853110745666, 0.7150457556945184, 0.730455235878253, 0.7483195833010541, 0.7652411688613938, 0.7802151080832118, 0.7984788151643443, 0.8150614570149628, 0.8303077800046594, 0.8483462072781549, 0.8653193341269798, 0.880026692244428, 0.8984238605444261, 0.9150986623153585, 0.930560707787663, 0.9481499407793308, 0.9651455956100108, 0.9802489000539936, 0.9985385484469589, 1.0149361877884076, 1.0304180305774935, 1.0482926179902279, 1.065113851636852, 1.0801325054871995, 1.0984361485352565, 1.1149474517787894, 1.130557977123317, 1.14811307680975, 1.1651189716321824, 1.180225689407962, 1.198379828581892, 1.2149761237542407, 1.2304811771900859, 1.248018527558088, 1.26521113155286, 1.2801860947747628, 1.2984009912306647, 1.314732753295175, 1.3304190545750316, 1.3482625806827855, 1.3652316115367285]
17	苍蝇	True	animate	inanimate	left	1.266	[0.0, 0.0, 0.0, 0.0, 0.0, 0.0, 0.0, 0.0, 0.0, 0.0, 0.0, 0.0, -2.0, -9.0, -14.0, -15.0, -24.0, -29.0, -31.0, -33.0, -33.0, -33.0, -33.0, -33.0, -33.0, -33.0, -33.0, -33.0, -33.0, -33.0, -33.0, -33.0, -33.0, -33.0, -33.0, -33.0, -33.0, -33.0, -33.0, -33.0, -33.0, -33.0, -33.0, -33.0, -33.0, -33.0, -33.0, -33.0, -33.0, -33.0, -33.0, -33.0, -46.0, -66.0, -89.0, -120.0, -167.0, -230.0, -301.0, -378.0, -449.0, -504.0, -574.0, -588.0, -626.0, -643.0, -655.0, -663.0, -670.0, -676.0, -682.0, -685.0, -686.0, -686.0, -686.0, -686.0, -686.0]	[-490.0, -490.0, -490.0, -490.0, -490.0, -490.0, -490.0, -490.0, -490.0, -490.0, -490.0, -490.0, -488.0, -470.0, -456.0, -449.0, -422.0, -400.0, -380.0, -360.0, -336.0, -331.0, -327.0, -327.0, -327.0, -327.0, -327.0, -327.0, -327.0, -327.0, -327.0, -327.0, -327.0, -327.0, -327.0, -327.0, -327.0, -327.0, -327.0, -327.0, -327.0, -327.0, -327.0, -327.0, -327.0, -327.0, -327.0, -327.0, -327.0, -327.0, -327.0, -327.0, -312.0, -298.0, -278.0, -249.0, -195.0, -122.0, -36.0, 55.0, 136.0, 198.0, 280.0, 297.0, 341.0, 361.0, 375.0, 385.0, 392.0, 398.0, 402.0, 405.0, 405.0, 405.0, 405.0, 405.0, 405.0]	[0.014987387745350134, 0.02215401629655389, 0.028113691210819525, 0.047576501268849825, 0.06326758121213061, 0.07871563203116239, 0.09668169669930649, 0.11366813553831889, 0.12843386160420778, 0.1467521819722606, 0.16332697316283884, 0.17874020800991275, 0.19669842201801657, 0.21346299437936977, 0.22847789356637804, 0.24672316866417532, 0.26329113319297903, 0.2787152906967094, 0.29665234205822344, 0.3135015650132118, 0.3282819684009155, 0.3467832432797877, 0.3632631438831595, 0.3786917387169524, 0.39659499810659327, 0.4134909836884617, 0.4285864374742232, 0.446778805950089, 0.46313650932461314, 0.4787303093507944, 0.496398048941046, 0.5134233997468982, 0.5284526349223597, 0.5466917660232866, 0.5631092026815168, 0.578673989399249, 0.5966233287490468, 0.6134906423558277, 0.628436933600824, 0.6466699207103375, 0.6631931706087926, 0.678681840059653, 0.6966066034292453, 0.7134575330510415, 0.7282297444453434, 0.7465620594684879, 0.7632928398579679, 0.7786589707448002, 0.7966721393750049, 0.8135124876698683, 0.8285024695451284, 0.8467023473476729, 0.8632621198848938, 0.8786900320519635, 0.896602507433272, 0.9134694797066913, 0.9283331683564029, 0.9466886940263066, 0.9632477838968043, 0.9786524854171148, 0.996497376856496, 1.0133879011100362, 1.0284318136054935, 1.0466992753517843, 1.0631406053216779, 1.0786374667641212, 1.0965216115018848, 1.113423399747262, 1.1281819578198338, 1.1466982513520634, 1.1631989732704824, 1.1787251893547364, 1.196505910182168, 1.2133954104374425, 1.228444784261228, 1.2466456860638573, 1.2631808826208726]
18	女王	True	inanimate	animate	right	1.182	[0.0, 0.0, 0.0, 0.0, 0.0, 0.0, 0.0, 0.0, 0.0, 0.0, 0.0, 0.0, 0.0, 0.0, 0.0, 0.0, 0.0, 0.0, 0.0, 0.0, -1.0, -6.0, -9.0, -9.0, -9.0, -9.0, -9.0, -9.0, -9.0, -9.0, -9.0, -9.0, -9.0, -9.0, -9.0, -8.0, -7.0, -6.0, -6.0, -6.0, -6.0, -6.0, -6.0, -6.0, -6.0, -6.0, -15.0, -24.0, -28.0, -25.0, 0.0, 34.0, 93.0, 167.0, 261.0, 361.0, 500.0, 536.0, 624.0, 652.0, 671.0, 684.0, 691.0, 695.0, 698.0, 706.0, 715.0, 724.0, 728.0, 728.0, 728.0, 728.0]	[-490.0, -490.0, -490.0, -490.0, -490.0, -490.0, -490.0, -490.0, -490.0, -490.0, -490.0, -490.0, -490.0, -490.0, -490.0, -490.0, -490.0, -490.0, -490.0, -490.0, -485.0, -469.0, -458.0, -449.0, -444.0, -439.0, -436.0, -431.0, -428.0, -423.0, -419.0, -417.0, -413.0, -407.0, -402.0, -396.0, -390.0, -379.0, -367.0, -352.0, -338.0, -325.0, -315.0, -297.0, -282.0, -273.0, -238.0, -208.0, -182.0, -140.0, -85.0, -43.0, 7.0, 58.0, 120.0, 181.0, 261.0, 277.0, 316.0, 329.0, 342.0, 354.0, 362.0, 368.0, 372.0, 381.0, 388.0, 396.0, 399.0, 399.0, 399.0, 399.0]	[0.0138900020156143, 0.01867071260130615, 0.02581208250740019, 0.04416453618068772, 0.06107827108098718, 0.07611501558312739, 0.09438315999432234, 0.11075383402385341, 0.1262571807947097, 0.14402936829537794, 0.16102024446445284, 0.175928647742694, 0.19423604545227136, 0.2109296205417195, 0.22623977281000407, 0.2440341469591658, 0.2611185483801819, 0.27593137840631243, 0.2942336561209231, 0.3108487246099685, 0.3262452341386961, 0.34417306950672355, 0.36107280975193135, 0.3761211595774512, 0.39427666408482764, 0.41084599394525867, 0.4263199860743043, 0.4440600882699073, 0.46107895374734653, 0.47603923964743444, 0.4942432134466799, 0.5106719140949281, 0.526217586162602, 0.5442259761275636, 0.5610605217625562, 0.5760119330043381, 0.5943022640640265, 0.6108627192643326, 0.6263431967217912, 0.6440245896337728, 0.6609707511724991, 0.6760098850063514, 0.6943114800560579, 0.7108555512713792, 0.7261766261963203, 0.7439689523471316, 0.7609516365228046, 0.77600681300828, 0.7942630107627338, 0.8108272206281981, 0.8263821086875396, 0.8439099017305125, 0.8610011298133031, 0.8759317197400378, 0.8941466161959397, 0.9107371087047795, 0.9262295328189794, 0.9440600882699073, 0.9609987404819549, 0.976021831662365, 0.9942555014367827, 1.0107453006985452, 1.0263418313898, 1.0439389150396892, 1.061007273809082, 1.076038556981075, 1.0942524294387113, 1.1104776955926354, 1.126311111414907, 1.1441597575176274, 1.1610963617313246, 1.1760716662865889]
19	青蛙	True	inanimate	animate	right	1.277	[0.0, 0.0, 0.0, 0.0, 0.0, 0.0, 0.0, 0.0, 0.0, 0.0, 0.0, 0.0, 0.0, 0.0, 0.0, 0.0, 0.0, 0.0, 0.0, 0.0, 0.0, 0.0, 0.0, 0.0, 0.0, 0.0, 0.0, 0.0, 0.0, 0.0, 0.0, 0.0, 0.0, 0.0, 0.0, 0.0, 0.0, 0.0, 0.0, 0.0, 0.0, 0.0, 0.0, 0.0, 0.0, 0.0, 0.0, 0.0, 0.0, 0.0, 0.0, 0.0, 0.0, 0.0, 0.0, 0.0, 28.0, 108.0, 220.0, 353.0, 463.0, 541.0, 615.0, 636.0, 676.0, 688.0, 696.0, 700.0, 703.0, 706.0, 706.0, 708.0, 708.0, 710.0, 716.0, 718.0, 720.0, 720.0]	[-490.0, -490.0, -490.0, -490.0, -490.0, -490.0, -490.0, -490.0, -490.0, -490.0, -490.0, -490.0, -490.0, -490.0, -490.0, -490.0, -490.0, -490.0, -490.0, -490.0, -490.0, -490.0, -490.0, -490.0, -490.0, -490.0, -490.0, -490.0, -490.0, -490.0, -490.0, -490.0, -490.0, -490.0, -490.0, -490.0, -490.0, -490.0, -490.0, -490.0, -490.0, -490.0, -490.0, -490.0, -490.0, -490.0, -490.0, -490.0, -490.0, -490.0, -490.0, -490.0, -490.0, -490.0, -490.0, -489.0, -387.0, -248.0, -102.0, 34.0, 125.0, 177.0, 229.0, 246.0, 289.0, 308.0, 322.0, 329.0, 333.0, 337.0, 338.0, 340.0, 340.0, 343.0, 349.0, 352.0, 353.0, 353.0]	[0.014922534466677462, 0.02017428465296689, 0.028063856587323244, 0.04609511586750159, 0.06320102127028804, 0.07796128600784868, 0.0965014728535607, 0.11300833876703109, 0.1283929016390175, 0.14630981435038848, 0.1631433359852963, 0.1780903098970157, 0.19638029962334258, 0.21299707477737684, 0.22835774433588085, 0.2463050356873282, 0.26311261601222213, 0.2781094245474378, 0.29639702494205267, 0.31302711208445544, 0.32831883236940484, 0.3463173236777948, 0.363156989307754, 0.37785376610008825, 0.39623079575176234, 0.41297010946618684, 0.42829493905628624, 0.4463616969733266, 0.4631750799580914, 0.4781213712049066, 0.49642911024784553, 0.5130059494367742, 0.5283519416734634, 0.5463261983368284, 0.5632576825555589, 0.5781476538486459, 0.5963929289464431, 0.6128226535929571, 0.6283744696556823, 0.6462838730385556, 0.6631259280002268, 0.6781411685205967, 0.6964038516034634, 0.7128014909449121, 0.7283618403325818, 0.7462521290653967, 0.7631197840055393, 0.7780776805757341, 0.7963533343136078, 0.8129134481823712, 0.8283318030244118, 0.8463183476760605, 0.8630993040223984, 0.8780060006356507, 0.8962581023952225, 0.9129895654496067, 0.928424304278451, 0.9461609931440762, 0.9630167014274775, 0.9781025978863909, 0.99632295567244, 1.0126919230369822, 1.0283253176967264, 1.04612788383929, 1.0630098747660668, 1.0781271738669602, 1.0963676703013334, 1.1129544081468339, 1.1284485389260226, 1.1459927159539802, 1.1631057893519028, 1.17791008605127, 1.1961413664939755, 1.2127936402848718, 1.2283563790042535, 1.2461459744899912, 1.2630347920785425, 1.278136731190898]
20	雪花	False	animate	inanimate	right	1.279	[0.0, 0.0, 0.0, 0.0, 0.0, 0.0, 0.0, 0.0, 0.0, 0.0, 0.0, 0.0, 0.0, 0.0, 0.0, 0.0, 0.0, 0.0, 0.0, 0.0, 0.0, 0.0, 0.0, 0.0, 0.0, 0.0, 0.0, 0.0, 0.0, 0.0, 0.0, 0.0, 0.0, 0.0, 0.0, 0.0, 0.0, 0.0, 0.0, 0.0, 0.0, 0.0, 0.0, 0.0, 0.0, 0.0, 0.0, 0.0, 0.0, 0.0, 2.0, 4.0, 22.0, 49.0, 79.0, 118.0, 163.0, 216.0, 268.0, 334.0, 352.0, 394.0, 409.0, 434.0, 471.0, 493.0, 511.0, 526.0, 542.0, 564.0, 601.0, 628.0, 644.0, 655.0, 661.0, 664.0, 665.0, 665.0]	[-490.0, -490.0, -490.0, -490.0, -490.0, -490.0, -490.0, -490.0, -490.0, -490.0, -490.0, -490.0, -490.0, -490.0, -490.0, -490.0, -490.0, -490.0, -490.0, -490.0, -490.0, -490.0, -490.0, -490.0, -490.0, -490.0, -490.0, -490.0, -490.0, -490.0, -490.0, -490.0, -490.0, -490.0, -490.0, -490.0, -490.0, -490.0, -490.0, -490.0, -490.0, -490.0, -490.0, -490.0, -490.0, -490.0, -490.0, -490.0, -490.0, -490.0, -454.0, -437.0, -379.0, -322.0, -262.0, -198.0, -132.0, -58.0, 8.0, 91.0, 114.0, 164.0, 181.0, 211.0, 252.0, 275.0, 291.0, 303.0, 317.0, 338.0, 367.0, 390.0, 405.0, 413.0, 417.0, 417.0, 418.0, 418.0]	[0.011381204154531588, 0.016484133133417345, 0.021567947462244774, 0.039341841627901886, 0.056236803211504593, 0.07106567588925827, 0.08937546293236664, 0.10622844055069436, 0.12124675306949939, 0.13922271639603423, 0.15608798200446472, 0.1711192651782767, 0.18934576695755823, 0.20592124081304064, 0.2226970771644119, 0.23913977246593277, 0.2561439606233762, 0.27113974516032613, 0.2893689776046813, 0.30597039277199656, 0.3213877236157714, 0.33932306831047754, 0.35616580593705294, 0.37110765985380567, 0.3893382576316071, 0.40607245135106496, 0.4212883957006852, 0.4391080284931377, 0.45616273394080054, 0.4711312118342903, 0.48940106291047414, 0.5059161208173464, 0.5213750942930346, 0.5392670896908385, 0.5560971979957685, 0.5711373558297055, 0.589372732267293, 0.6059625421112287, 0.6212703050496202, 0.6392322737210634, 0.6562036939048994, 0.6711254091715091, 0.6893519109526096, 0.7059632247783156, 0.7212583583914238, 0.7392981509983656, 0.7561671712701354, 0.7710684065550595, 0.7893174363143771, 0.8059311394717952, 0.8212720117135177, 0.8392114524049248, 0.8561326966337219, 0.8709868279565853, 0.8892716976879456, 0.9058949581685738, 0.9214433609013213, 0.9389742259409104, 0.9560466807070043, 0.9710963958641514, 0.9893839962587663, 1.0058120142402913, 1.0213180916744022, 1.0391138311551913, 1.0560954913307796, 1.0710670412227046, 1.0892693083569611, 1.1057601316169894, 1.1213959156084456, 1.1388834313529514, 1.1560040140757337, 1.1711274571698596, 1.1892703323555907, 1.2057727609408175, 1.2213457396501326, 1.239083793847385, 1.2561292833015614, 1.271127798503585]
21	电脑	False	inanimate	animate	left	2.584	[0.0, 0.0, 0.0, 0.0, 0.0, 0.0, 0.0, 0.0, 0.0, 0.0, 0.0, 0.0, 0.0, 0.0, 0.0, 0.0, 2.0, 7.0, 13.0, 19.0, 23.0, 27.0, 29.0, 29.0, 29.0, 29.0, 29.0, 29.0, 29.0, 29.0, 29.0, 29.0, 29.0, 29.0, 29.0, 29.0, 29.0, 29.0, 29.0, 29.0, 29.0, 29.0, 29.0, 29.0, 29.0, 29.0, 29.0, 29.0, 29.0, 29.0, 29.0, 29.0, 29.0, 29.0, 29.0, 29.0, 29.0, 29.0, 29.0, 29.0, 29.0, 29.0, 29.0, 29.0, 29.0, 29.0, 29.0, 29.0, 29.0, 29.0, 29.0, 29.0, 29.0, 29.0, 29.0, 29.0, 29.0, 29.0, 29.0, 29.0, 29.0, 29.0, 29.0, 29.0, 29.0, 29.0, 29.0, 29.0, 29.0, 29.0, 29.0, 29.0, 29.0, 29.0, 29.0, 23.0, 9.0, 1.0, 1.0, 1.0, 1.0, 1.0, 1.0, 1.0, 1.0, 1.0, 1.0, -2.0, -5.0, -8.0, -8.0, -8.0, -8.0, -8.0, -8.0, -8.0, -8.0, -8.0, -8.0, -12.0, -30.0, -92.0, -140.0, -170.0, -250.0, -310.0, -372.0, -428.0, -476.0, -510.0, -539.0, -560.0, -579.0, -607.0, -625.0, -632.0, -647.0, -650.0, -650.0, -650.0, -650.0, -650.0, -650.0, -650.0, -650.0, -650.0, -650.0, -650.0, -662.0, -682.0, -701.0, -721.0, -733.0, -737.0, -737.0, -737.0]	[-490.0, -490.0, -490.0, -490.0, -490.0, -490.0, -490.0, -490.0, -490.0, -490.0, -490.0, -490.0, -490.0, -490.0, -486.0, -455.0, -426.0, -387.0, -341.0, -302.0, -277.0, -263.0, -255.0, -253.0, -253.0, -253.0, -253.0, -253.0, -253.0, -253.0, -253.0, -253.0, -253.0, -253.0, -253.0, -253.0, -253.0, -253.0, -253.0, -253.0, -253.0, -253.0, -253.0, -253.0, -253.0, -253.0, -253.0, -253.0, -253.0, -253.0, -253.0, -253.0, -253.0, -253.0, -253.0, -253.0, -253.0, -253.0, -253.0, -253.0, -253.0, -253.0, -253.0, -253.0, -253.0, -253.0, -253.0, -253.0, -253.0, -253.0, -253.0, -253.0, -253.0, -253.0, -253.0, -253.0, -253.0, -253.0, -253.0, -253.0, -253.0, -253.0, -253.0, -253.0, -253.0, -253.0, -253.0, -253.0, -253.0, -253.0, -253.0, -253.0, -253.0, -253.0, -253.0, -237.0, -226.0, -219.0, -219.0, -219.0, -219.0, -219.0, -219.0, -219.0, -219.0, -219.0, -219.0, -213.0, -208.0, -205.0, -205.0, -205.0, -205.0, -205.0, -205.0, -205.0, -205.0, -205.0, -205.0, -194.0, -161.0, -59.0, 14.0, 55.0, 160.0, 237.0, 305.0, 354.0, 392.0, 417.0, 437.0, 453.0, 464.0, 477.0, 485.0, 487.0, 494.0, 495.0, 495.0, 495.0, 495.0, 495.0, 495.0, 495.0, 495.0, 495.0, 495.0, 495.0, 494.0, 486.0, 476.0, 465.0, 460.0, 457.0, 457.0, 457.0]	[0.014781563921133056, 0.01951960787846474, 0.02761875830037752, 0.04573808150598779, 0.06278084029509046, 0.07780427280886215, 0.09601916926658305, 0.11256528848025482, 0.1279894459839852, 0.14593810266887886, 0.16276172564539593, 0.17755646501973388, 0.19599186262166768, 0.21251204052532557, 0.22798773931936012, 0.24597223597265838, 0.2627473896573065, 0.2778172434645967, 0.2960870945407805, 0.31234000867152645, 0.3279891046513512, 0.3459073826943495, 0.3627228136792837, 0.37758547832891054, 0.3958488440785004, 0.41253354450600455, 0.42799183531496965, 0.4456889295470319, 0.46271803501622344, 0.4777854994918016, 0.49599220395612065, 0.5125137471895869, 0.5280515685972205, 0.5458981667015905, 0.5627095016898238, 0.5777953981505561, 0.5959782093013928, 0.6123734593093104, 0.627975109997351, 0.6458660813968891, 0.6627279336735228, 0.6775018517346325, 0.6958297294277145, 0.7128083176048676, 0.7277211582131713, 0.7461155958499148, 0.7626180244351417, 0.7780404752738832, 0.7958618147331435, 0.8127229843448731, 0.8277894248221855, 0.8459797452997009, 0.8626245097620995, 0.8779937126473669, 0.8958570360700833, 0.912692264371799, 0.927818779462541, 0.945974625303279, 0.9623900139631587, 0.9780199952911062, 0.9959239373474702, 1.0127226430122391, 1.0278037608095474, 1.0459896439570002, 1.0623384726732183, 1.0779534353478084, 1.0959027746976062, 1.112694312369058, 1.1277914728198084, 1.1460039799458173, 1.1625463444961497, 1.178010096633443, 1.1958669347295654, 1.2127045523611741, 1.2277419795282185, 1.2459705293076695, 1.2626163177701528, 1.2780039526387554, 1.2959604599818704, 1.3126977256997634, 1.327855302099124, 1.3460213879297953, 1.362561021816873, 1.3779814246572641, 1.3959505613238434, 1.4127322003369045, 1.4278532541011373, 1.445976331968268, 1.4623616833196138, 1.4780213606245525, 1.4958031054502499, 1.5127199123471655, 1.5278075154728867, 1.5459578999852965, 1.5624739818904345, 1.5780124859647913, 1.595851233409121, 1.6126936297041539, 1.6277614355130936, 1.6459974946174043, 1.6625176725210622, 1.6780404752735194, 1.6957983267875534, 1.7127489256563422, 1.7277733821683796, 1.746076683883075, 1.762465107231037, 1.777975963328572, 1.7957771641395084, 1.8127342483348912, 1.8277836221604957, 1.8459125026893162, 1.8624791018864926, 1.8780333072809299, 1.8958461134134268, 1.9126997736984777, 1.9277709928373952, 1.9458677880611503, 1.9624886592118855, 1.9779664060042705, 1.9958112974436517, 2.0126973843671294, 2.0277303742059303, 2.045973601305377, 2.062491389875504, 2.0780169232948538, 2.095854646739099, 2.1127407336625765, 2.1277201342145418, 2.1459408333321335, 2.162564776479485, 2.177990640650023, 2.195805836114232, 2.212748242989619, 2.2277430035283032, 2.2459486839925376, 2.262533715173049, 2.278095429894165, 2.2958273400963662, 2.312760189646724, 2.327762459512087, 2.3457797241371736, 2.3625067498633143, 2.377989616650666, 2.395541644340483, 2.412755069650302, 2.427831750119367, 2.445993057288433, 2.4623773846396944, 2.477896432730631, 2.495874785388878, 2.51267417372037, 2.5277341288692696, 2.5459596066502854, 2.562491389875504, 2.577977328661291]
22	老师	True	animate	inanimate	left	1.629	[0.0, 0.0, 0.0, 0.0, 0.0, 0.0, 0.0, 0.0, 0.0, 0.0, 0.0, 0.0, 0.0, 0.0, 0.0, -1.0, -1.0, -1.0, -1.0, -1.0, -1.0, -1.0, -1.0, -1.0, -1.0, -1.0, -1.0, -1.0, -1.0, -1.0, -1.0, -1.0, -1.0, -1.0, -1.0, -1.0, -1.0, -1.0, -1.0, -1.0, -1.0, -1.0, -1.0, -1.0, -1.0, -1.0, -1.0, -1.0, -1.0, -1.0, -1.0, -1.0, -1.0, -1.0, -1.0, -1.0, -1.0, -1.0, -1.0, -1.0, -1.0, -1.0, -1.0, -1.0, -1.0, -1.0, -1.0, -1.0, -1.0, -1.0, -1.0, -6.0, -26.0, -71.0, -131.0, -209.0, -322.0, -358.0, -418.0, -460.0, -496.0, -506.0, -528.0, -542.0, -555.0, -568.0, -582.0, -594.0, -606.0, -617.0, -632.0, -643.0, -662.0, -668.0, -684.0, -692.0, -693.0, -693.0, -693.0]	[-490.0, -490.0, -490.0, -490.0, -490.0, -490.0, -490.0, -490.0, -490.0, -490.0, -490.0, -490.0, -490.0, -490.0, -490.0, -465.0, -405.0, -353.0, -304.0, -265.0, -226.0, -218.0, -203.0, -195.0, -187.0, -185.0, -185.0, -185.0, -185.0, -185.0, -185.0, -185.0, -185.0, -185.0, -185.0, -185.0, -185.0, -185.0, -185.0, -185.0, -185.0, -185.0, -185.0, -185.0, -185.0, -185.0, -185.0, -185.0, -185.0, -185.0, -185.0, -185.0, -185.0, -185.0, -185.0, -185.0, -185.0, -185.0, -185.0, -185.0, -185.0, -185.0, -185.0, -185.0, -185.0, -185.0, -185.0, -185.0, -185.0, -185.0, -185.0, -179.0, -157.0, -122.0, -78.0, -14.0, 77.0, 103.0, 145.0, 176.0, 201.0, 208.0, 225.0, 236.0, 245.0, 255.0, 266.0, 279.0, 291.0, 304.0, 316.0, 326.0, 340.0, 344.0, 360.0, 369.0, 371.0, 371.0, 371.0]	[0.01142114012145612, 0.016740474249672843, 0.022840095711217145, 0.0393234096463857, 0.05551829716023349, 0.0710380279160745, 0.08876823145328672, 0.10585092620931391, 0.12056374565327133, 0.13893326597826672, 0.15564936904775095, 0.17099945728296007, 0.18881567674543476, 0.20573214231080783, 0.22066273223572352, 0.2390489778790652, 0.2556070437494782, 0.2710045772782905, 0.28900511658321193, 0.3058150862398179, 0.3208368120867817, 0.3390718471928267, 0.3554073639206763, 0.37101652393357654, 0.388796562096104, 0.4055901477640873, 0.4208265720953932, 0.439060924536534, 0.45562718240034883, 0.47109537186770467, 0.48889964467343816, 0.505826008897202, 0.5208583160692797, 0.538980028604783, 0.5556476623823983, 0.5710233505942597, 0.5889586952907848, 0.6058550222060148, 0.6206002682902181, 0.6388591967079265, 0.6589582515571237, 0.6732269967142201, 0.6889132979958958, 0.705940355466737, 0.720835105421429, 0.7390377138890472, 0.7556254757346323, 0.7710414412467799, 0.7888757513610472, 0.8058830115151068, 0.8209672013090312, 0.8390827698513021, 0.8556049957514915, 0.871036321250358, 0.8889549406267179, 0.9058290808934544, 0.9208002894520178, 0.9390807218533155, 0.955610115746822, 0.9710349559190945, 0.988991804595571, 1.0057874382637237, 1.0207163215236505, 1.0391066631636932, 1.0556923770109279, 1.0710373452493513, 1.089019111239395, 1.105778222270601, 1.1208310094261833, 1.1390882311789028, 1.1554476412202348, 1.1710001399478642, 1.1889214899892977, 1.2058164515710814, 1.2209136120218318, 1.2391513777929504, 1.255566766451011, 1.271028470589954, 1.288844348720886, 1.3057048356677114, 1.3208023374500044, 1.3390544392077572, 1.3555592571246962, 1.3710482679070992, 1.3888883806830563, 1.405761496951527, 1.4209030306974455, 1.439092327176695, 1.4555152251614345, 1.4710509985707176, 1.4886125835855637, 1.5057546702901163, 1.520826572095757, 1.539033276560076, 1.5552916520191502, 1.5710076492759981, 1.5888409353901807, 1.6058434168826352, 1.6211197771790467]
23	椅子	False	inanimate	animate	left	1.281	[0.0, 0.0, 0.0, 0.0, 0.0, 0.0, 0.0, 0.0, 0.0, 0.0, 0.0, 0.0, 0.0, -5.0, -8.0, -13.0, -18.0, -22.0, -24.0, -25.0, -27.0, -27.0, -27.0, -27.0, -27.0, -27.0, -27.0, -27.0, -27.0, -27.0, -27.0, -27.0, -27.0, -27.0, -27.0, -27.0, -27.0, -27.0, -27.0, -27.0, -27.0, -27.0, -27.0, -27.0, -27.0, -27.0, -27.0, -27.0, -27.0, -27.0, -27.0, -27.0, -55.0, -82.0, -131.0, -206.0, -346.0, -387.0, -501.0, -559.0, -600.0, -627.0, -643.0, -654.0, -663.0, -669.0, -679.0, -689.0, -694.0, -696.0, -699.0, -703.0, -707.0, -710.0, -711.0, -711.0, -711.0, -711.0]	[-490.0, -490.0, -490.0, -490.0, -490.0, -490.0, -490.0, -490.0, -490.0, -490.0, -490.0, -490.0, -465.0, -434.0, -399.0, -371.0, -345.0, -319.0, -299.0, -288.0, -282.0, -281.0, -281.0, -281.0, -281.0, -281.0, -281.0, -281.0, -281.0, -281.0, -281.0, -281.0, -281.0, -281.0, -281.0, -281.0, -281.0, -281.0, -281.0, -281.0, -281.0, -281.0, -281.0, -281.0, -281.0, -281.0, -281.0, -281.0, -281.0, -281.0, -281.0, -281.0, -244.0, -216.0, -159.0, -96.0, 11.0, 43.0, 123.0, 165.0, 203.0, 227.0, 244.0, 258.0, 268.0, 276.0, 287.0, 300.0, 310.0, 313.0, 322.0, 329.0, 341.0, 349.0, 353.0, 353.0, 353.0, 353.0]	[0.012775208298990037, 0.01770747075715917, 0.023506719140641508, 0.04221176984538033, 0.05881011301607941, 0.07415542258786445, 0.09205117264900764, 0.10892360625257425, 0.12394908676287741, 0.14222303383576218, 0.15877017704951868, 0.17411685195293103, 0.1920532206477219, 0.2089259955828311, 0.22395727875664306, 0.24223805248948338, 0.2587534517297172, 0.27412538528005825, 0.2919289754208876, 0.3088116490143875, 0.3237470176027273, 0.34244251098243694, 0.3587145397632412, 0.37417965723398083, 0.39204229798997403, 0.4090430728174397, 0.42382279353842023, 0.44212575391975406, 0.45871385709688184, 0.47411207329059835, 0.49200748202019895, 0.5089160969255317, 0.5239016414707294, 0.5421288259167341, 0.5585950731983758, 0.574204233213095, 0.5920095300189132, 0.6089870941978006, 0.6239118814628455, 0.6421697858822881, 0.658738433075996, 0.6741383559347014, 0.6919962180309085, 0.7088771849576005, 0.7238722868296463, 0.742154425895933, 0.7587793930415501, 0.7741018332999374, 0.7918590021472482, 0.8088614836378838, 0.8236975243107736, 0.8421673965513037, 0.8586746037981356, 0.8741025159652054, 0.8920112366831745, 0.9088147210113675, 0.9239180254571693, 0.9422411244868272, 0.9586490038200282, 0.9741301639423909, 0.9918313541711541, 1.0087758090448915, 1.0237637429218012, 1.0422312258288002, 1.0586363744969276, 1.0741325532744668, 1.09209452194591, 1.108902784935708, 1.12364188702486, 1.142152036563857, 1.158614870515521, 1.1741042226312857, 1.1918122395200044, 1.2087850250372867, 1.2239514760949533, 1.2421472579007968, 1.2584117773549224, 1.2741591772501124]
24	酒精	False	animate	inanimate	right	1.115	[0.0, 0.0, 0.0, 0.0, 0.0, 0.0, 0.0, 0.0, 0.0, 0.0, 0.0, 0.0, 0.0, 0.0, 0.0, -1.0, -7.0, -9.0, -9.0, -9.0, -9.0, -9.0, -9.0, -9.0, -9.0, -9.0, -9.0, -9.0, -9.0, -9.0, -9.0, -9.0, -9.0, -9.0, -9.0, -9.0, -9.0, -9.0, -9.0, -9.0, -9.0, -9.0, -9.0, -9.0, -9.0, -9.0, -9.0, 5.0, 73.0, 174.0, 343.0, 395.0, 556.0, 642.0, 697.0, 725.0, 740.0, 749.0, 753.0, 755.0, 755.0, 755.0, 755.0, 755.0, 755.0, 755.0, 755.0, 755.0]	[-490.0, -490.0, -490.0, -490.0, -490.0, -490.0, -490.0, -490.0, -490.0, -490.0, -490.0, -490.0, -490.0, -467.0, -426.0, -387.0, -339.0, -320.0, -312.0, -310.0, -308.0, -308.0, -308.0, -308.0, -308.0, -308.0, -308.0, -308.0, -308.0, -308.0, -308.0, -308.0, -308.0, -308.0, -308.0, -308.0, -308.0, -308.0, -308.0, -308.0, -308.0, -308.0, -308.0, -308.0, -308.0, -308.0, -308.0, -267.0, -167.0, -58.0, 93.0, 139.0, 258.0, 309.0, 351.0, 371.0, 385.0, 395.0, 402.0, 404.0, 405.0, 405.0, 405.0, 405.0, 405.0, 405.0, 405.0, 405.0]	[0.014077052521315636, 0.019858551588185946, 0.02650225791876437, 0.045334284515774925, 0.061511764042734285, 0.07710761206908501, 0.09480299963433936, 0.11183654243359342, 0.12660022050113184, 0.14512402336185914, 0.1617244145290897, 0.17709839607596223, 0.19506138874749013, 0.21185872908063175, 0.22671559107038775, 0.24508954872362665, 0.2617349958527484, 0.2770420761244168, 0.2949374848540174, 0.3118969583811122, 0.32658963917674555, 0.34495881816837937, 0.36166229191439925, 0.3770584601097653, 0.39501940478294273, 0.4118607770797098, 0.42682959630656114, 0.44510593270933896, 0.4616182599529566, 0.47703524946336984, 0.49506719141027133, 0.5119082223718578, 0.5269002522454684, 0.5450973993847583, 0.5614547614259209, 0.5770407107920619, 0.5949675221618236, 0.6118539504186629, 0.626682481764874, 0.6450745300699054, 0.6616605852505018, 0.6770642627725465, 0.6949849301472568, 0.7118484890888794, 0.7268719216026511, 0.745090914055254, 0.7616394226006378, 0.7770666521028033, 0.7948699009120901, 0.8119082223711303, 0.8268159429844673, 0.8449734954901942, 0.8615834439824539, 0.8770792814266315, 0.8948999382191687, 0.9119194863615121, 0.9269633988587884, 0.9451629353279714, 0.961377278825239, 0.9770478787868342, 0.9946565677601029, 1.011800702463006, 1.026854513618673, 1.0450171861193667, 1.061567742663101, 1.0770652867704484, 1.0948227969511208, 1.1119252890239295]
25	戒指	False	inanimate	animate	left	1.014	[0.0, 0.0, 0.0, 0.0, 0.0, 0.0, 0.0, 0.0, 0.0, 0.0, 0.0, 0.0, 0.0, 0.0, -10.0, -20.0, -44.0, -55.0, -60.0, -66.0, -70.0, -74.0, -79.0, -80.0, -86.0, -92.0, -94.0, -95.0, -95.0, -95.0, -95.0, -95.0, -95.0, -95.0, -95.0, -95.0, -95.0, -95.0, -95.0, -95.0, -95.0, -95.0, -95.0, -95.0, -102.0, -127.0, -202.0, -243.0, -330.0, -482.0, -576.0, -663.0, -722.0, -759.0, -777.0, -785.0, -791.0, -793.0, -793.0, -793.0, -793.0, -793.0]	[-490.0, -490.0, -490.0, -490.0, -490.0, -490.0, -490.0, -490.0, -490.0, -490.0, -490.0, -490.0, -490.0, -490.0, -474.0, -458.0, -414.0, -391.0, -370.0, -351.0, -338.0, -324.0, -305.0, -296.0, -273.0, -253.0, -248.0, -244.0, -244.0, -244.0, -244.0, -244.0, -244.0, -244.0, -244.0, -244.0, -244.0, -244.0, -244.0, -244.0, -244.0, -244.0, -244.0, -244.0, -226.0, -188.0, -79.0, -32.0, 78.0, 215.0, 295.0, 354.0, 393.0, 412.0, 422.0, 427.0, 431.0, 433.0, 433.0, 433.0, 433.0, 433.0]	[0.0134418317284144, 0.01921274947017082, 0.025470749464147957, 0.044009912309775245, 0.06034508770426328, 0.07577129320816312, 0.0936100406524929, 0.11057190351129975, 0.12547211479613907, 0.14368701125204097, 0.16010410657690954, 0.17574398656324774, 0.1936581686113641, 0.21043844229097886, 0.22549634944152785, 0.24368564592077746, 0.2602730664330011, 0.2756624079665926, 0.29365646194492, 0.3104483409497334, 0.3252243070073746, 0.34356105936058157, 0.3602443944564584, 0.37572862657725636, 0.3935967286633968, 0.4103595943579421, 0.4255079547656351, 0.4436494646179199, 0.46026453310696525, 0.4757501305593905, 0.4935622540251643, 0.5104381009587087, 0.5255089787642646, 0.5436911072483781, 0.5603140263974637, 0.5757033679328742, 0.5936114059841202, 0.6103991889922327, 0.6254772347911057, 0.643653901946891, 0.6600815785968734, 0.6756630906329519, 0.6935926326659683, 0.7104558502760483, 0.7254748454597575, 0.743725581885883, 0.7602007038276497, 0.7757528612237365, 0.7934697527707613, 0.8103698343493306, 0.8254741627933981, 0.8437535711964301, 0.8601822718428593, 0.8757265785789059, 0.8935629366915236, 0.9104879355818412, 0.9254796241220902, 0.943641272624518, 0.9601437012097449, 0.9757395492342766, 0.9935219767266972, 1.010388607666755]
26	狮子	True	inanimate	animate	right	1.603	[0.0, 0.0, 0.0, 0.0, 0.0, 0.0, 0.0, 0.0, 0.0, 0.0, 0.0, 0.0, 0.0, 0.0, 0.0, 0.0, -4.0, -9.0, -14.0, -18.0, -19.0, -19.0, -21.0, -21.0, -21.0, -21.0, -21.0, -21.0, -21.0, -21.0, -21.0, -22.0, -22.0, -23.0, -25.0, -27.0, -30.0, -34.0, -37.0, -40.0, -53.0, -78.0, -126.0, -192.0, -265.0, -335.0, -380.0, -394.0, -396.0, -392.0, -322.0, -274.0, -90.0, 49.0, 184.0, 311.0, 414.0, 510.0, 575.0, 621.0, 647.0, 670.0, 679.0, 681.0, 687.0, 691.0, 694.0, 697.0, 700.0, 702.0, 704.0, 705.0, 707.0, 712.0, 712.0, 712.0, 712.0, 712.0, 712.0, 712.0, 712.0, 712.0, 712.0, 712.0, 712.0, 712.0, 712.0, 712.0, 714.0, 715.0, 716.0, 716.0, 716.0, 716.0, 718.0, 718.0, 718.0]	[-490.0, -490.0, -490.0, -490.0, -490.0, -490.0, -490.0, -490.0, -490.0, -490.0, -490.0, -490.0, -490.0, -490.0, -490.0, -490.0, -479.0, -459.0, -441.0, -428.0, -422.0, -418.0, -414.0, -410.0, -408.0, -405.0, -404.0, -403.0, -400.0, -398.0, -394.0, -389.0, -384.0, -378.0, -370.0, -361.0, -351.0, -334.0, -314.0, -304.0, -265.0, -214.0, -143.0, -65.0, 0.0, 61.0, 94.0, 110.0, 118.0, 123.0, 145.0, 157.0, 193.0, 217.0, 235.0, 254.0, 269.0, 284.0, 294.0, 304.0, 311.0, 318.0, 320.0, 322.0, 325.0, 326.0, 329.0, 330.0, 332.0, 332.0, 333.0, 334.0, 335.0, 339.0, 340.0, 340.0, 340.0, 340.0, 340.0, 340.0, 340.0, 340.0, 340.0, 340.0, 340.0, 340.0, 340.0, 340.0, 344.0, 347.0, 350.0, 351.0, 354.0, 358.0, 360.0, 360.0, 360.0]	[0.001023726059429464, 0.006096276396419853, 0.01715307762788143, 0.03524987285163661, 0.05206598650329397, 0.06686652853932173, 0.0852783741611347, 0.10189924531186989, 0.11730906682896602, 0.13524748352028837, 0.15206223183849943, 0.16707576569388038, 0.18526984083473508, 0.20192894128558692, 0.21729541350759973, 0.2352498728523642, 0.2520673518338299, 0.2668248859081359, 0.28525652884673036, 0.30188490932414425, 0.31741965873334266, 0.33522359020753356, 0.35208441848772054, 0.3671372056414839, 0.3854855633180705, 0.4018644293410034, 0.41729541350650834, 0.4350116223886289, 0.4520642798379413, 0.4667917766037135, 0.48511999563015706, 0.5019460079383862, 0.5174415040492022, 0.5352635261733667, 0.5519687065861945, 0.5670914670135971, 0.5853742887466069, 0.6017978693980695, 0.617273568192104, 0.6350778409996565, 0.652020589208405, 0.667036512393679, 0.6852449235229869, 0.7018128880517907, 0.7174329707231664, 0.7351481556052022, 0.7519680239201989, 0.7670385603923933, 0.7854391420241882, 0.801784216077067, 0.8173046294996311, 0.8351198249638401, 0.8520192238756863, 0.867051531047764, 0.8854483580162196, 0.9017944560673641, 0.917459594700631, 0.9351502036042803, 0.9519451546057098, 0.9670508483814046, 0.9852626728406904, 1.0017231174624612, 1.0172367042232509, 1.0351150463011436, 1.0519076079708611, 1.0670764483602397, 1.0853019261412555, 1.1016026268971473, 1.117437408052865, 1.1351587369299523, 1.1519625625915069, 1.1668586778796453, 1.185094736983956, 1.2017767067500245, 1.2172728855257446, 1.2349126358076319, 1.252026050537097, 1.266809525921417, 1.2849991637322091, 1.3017401841134415, 1.3175111359887524, 1.335187750239129, 1.352064621170939, 1.366810208586685, 1.3851793875783187, 1.4021095064654219, 1.4170602350404806, 1.4351539582676196, 1.4517765360833437, 1.4673273281459842, 1.4851056596417038, 1.5020531865138764, 1.5170738883625745, 1.5353078994703537, 1.5517915547370649, 1.5673061654979392, 1.585123067627137]
27	家庭	True	inanimate	animate	right	1.451	[0.0, 0.0, 0.0, 0.0, 0.0, 0.0, 0.0, 0.0, 0.0, 0.0, 0.0, 0.0, 0.0, 0.0, 0.0, 0.0, 0.0, 0.0, 0.0, 0.0, 0.0, 0.0, 0.0, 0.0, 0.0, 0.0, 0.0, 0.0, 0.0, 0.0, 0.0, 0.0, 0.0, 0.0, 0.0, 0.0, 0.0, 0.0, 0.0, 0.0, 0.0, 0.0, 0.0, 0.0, 0.0, 0.0, 0.0, 0.0, 0.0, 0.0, -2.0, -2.0, 5.0, 22.0, 59.0, 115.0, 184.0, 248.0, 309.0, 346.0, 369.0, 406.0, 448.0, 473.0, 539.0, 583.0, 621.0, 650.0, 672.0, 692.0, 704.0, 712.0, 718.0, 723.0, 728.0, 731.0, 736.0, 736.0, 736.0, 736.0, 736.0, 736.0, 736.0, 736.0, 736.0, 736.0, 736.0, 736.0]	[-490.0, -490.0, -490.0, -490.0, -490.0, -490.0, -490.0, -490.0, -490.0, -490.0, -490.0, -490.0, -490.0, -490.0, -490.0, -490.0, -490.0, -490.0, -490.0, -490.0, -490.0, -490.0, -490.0, -490.0, -490.0, -490.0, -490.0, -490.0, -490.0, -490.0, -490.0, -490.0, -490.0, -490.0, -490.0, -490.0, -490.0, -490.0, -490.0, -490.0, -490.0, -490.0, -490.0, -490.0, -490.0, -490.0, -490.0, -490.0, -488.0, -452.0, -435.0, -415.0, -390.0, -351.0, -287.0, -196.0, -98.0, -21.0, 40.0, 74.0, 95.0, 133.0, 175.0, 199.0, 253.0, 285.0, 311.0, 332.0, 348.0, 362.0, 371.0, 378.0, 382.0, 387.0, 391.0, 392.0, 395.0, 395.0, 395.0, 395.0, 395.0, 395.0, 395.0, 395.0, 395.0, 395.0, 395.0, 395.0]	[0.0159673549078434, 0.021096225198562024, 0.03006372687923431, 0.04814140745293116, 0.0652172755490028, 0.08026084671109857, 0.09849792981549399, 0.114974417088888, 0.13044806788457208, 0.1483386979507486, 0.16514661960900412, 0.18018268144442118, 0.19837436725356383, 0.2148498305286921, 0.23039277193129237, 0.24836634592793416, 0.2651527636026003, 0.2802366120649822, 0.2984470711926406, 0.31480750523041934, 0.33038867593495524, 0.3483748792532424, 0.3652445821917354, 0.3802980520122219, 0.39845799384966085, 0.41482696121420304, 0.4304071079186542, 0.4483595192668872, 0.46521522755028855, 0.4802004307621246, 0.49841191388804873, 0.514805798566158, 0.530382873273993, 0.5482042127332534, 0.5651708542536653, 0.5802178387475578, 0.598425225876781, 0.6149225344670413, 0.630482883854711, 0.6483591779342532, 0.6652241022093222, 0.6802260307413235, 0.6983852899120393, 0.7148723585087282, 0.7304166652447748, 0.7483690765911888, 0.7651561769343971, 0.7802598227117414, 0.798457993849297, 0.8148269612138392, 0.8304432892218756, 0.848353375271472, 0.8652145448832016, 0.8802096467552474, 0.8983938232377113, 0.9148470998643461, 0.9304036945886764, 0.9482117220595683, 0.965115558301477, 0.980166980123613, 0.998318047302746, 1.0148587051880895, 1.0303896999339486, 1.048235274040053, 1.0651503742719797, 1.080162884127276, 1.0983255566297885, 1.115012305055643, 1.130420761241112, 1.1481861220818246, 1.1651032703121018, 1.1802632360413554, 1.1983924579053564, 1.214679505339518, 1.2304006225913326, 1.2479782502596208, 1.2651121449707716, 1.2799809536172688, 1.2980873061660532, 1.3149979690679174, 1.330447043885215, 1.3481850980824674, 1.3651892862380919, 1.380184046776776, 1.3984098658911535, 1.4149389184531174, 1.430465475868914, 1.4480864528322854]
28	乌鸦	True	inanimate	animate	right	1.232	[0.0, 0.0, 0.0, 0.0, 0.0, 0.0, 0.0, 0.0, 0.0, 0.0, 0.0, 0.0, 0.0, 0.0, 0.0, 0.0, 0.0, 0.0, 0.0, 0.0, 0.0, 0.0, 0.0, 0.0, 0.0, 0.0, 0.0, 0.0, 0.0, 0.0, 0.0, 0.0, 0.0, 0.0, 0.0, 0.0, 0.0, 0.0, 0.0, 0.0, 0.0, 0.0, 0.0, 0.0, 0.0, 0.0, 0.0, 0.0, 0.0, 0.0, 0.0, 0.0, -2.0, 73.0, 175.0, 290.0, 401.0, 512.0, 601.0, 665.0, 711.0, 738.0, 751.0, 764.0, 775.0, 785.0, 791.0, 796.0, 802.0, 806.0, 811.0, 814.0, 814.0, 814.0, 814.0]	[-490.0, -490.0, -490.0, -490.0, -490.0, -490.0, -490.0, -490.0, -490.0, -490.0, -490.0, -490.0, -490.0, -490.0, -490.0, -490.0, -490.0, -490.0, -490.0, -490.0, -490.0, -490.0, -490.0, -490.0, -490.0, -490.0, -490.0, -490.0, -490.0, -490.0, -490.0, -490.0, -490.0, -490.0, -490.0, -490.0, -490.0, -490.0, -490.0, -490.0, -490.0, -490.0, -490.0, -490.0, -490.0, -490.0, -490.0, -490.0, -490.0, -490.0, -490.0, -490.0, -477.0, -378.0, -270.0, -151.0, -42.0, 61.0, 135.0, 193.0, 234.0, 265.0, 285.0, 305.0, 325.0, 344.0, 359.0, 371.0, 384.0, 396.0, 407.0, 414.0, 415.0, 415.0, 415.0]	[0.0003106813328486169, 0.005431359630165389, 0.015503415035709622, 0.03369339417986339, 0.05052623314986704, 0.06555990565357206, 0.08387515402500867, 0.10022705473784299, 0.11580959077400621, 0.1335701729512948, 0.15056514511525165, 0.16559199095900112, 0.1837997194234049, 0.200406937250591, 0.2158246094277274, 0.233735378144047, 0.2505422758022178, 0.26556639098089363, 0.28386798603060015, 0.3003960145942983, 0.31576419347948104, 0.333687591517446, 0.35057094777766906, 0.36559164962636714, 0.38380620475072647, 0.4003512999643135, 0.41582870542515593, 0.43377326611152967, 0.45054739579791203, 0.46544624175112403, 0.4837068768356403, 0.5004420945551828, 0.5157826254635438, 0.533678375526506, 0.5505258918165055, 0.5655803856370767, 0.5838109834130591, 0.6004755451922392, 0.6157993507822539, 0.6337114848320198, 0.6505265744817734, 0.665591308294097, 0.6838365833918942, 0.7003564199603716, 0.7157836494625371, 0.7335333089831693, 0.7505112144954182, 0.7655909669610992, 0.7838154207420303, 0.800341401307378, 0.8158269987598032, 0.8337155808276293, 0.8505323771441908, 0.865425420435713, 0.8836901515169302, 0.9003284306509158, 0.9158024227799615, 0.9334643597085233, 0.9504859558510361, 0.9655803856367129, 0.9837905034310097, 1.0002738173643593, 1.0158194894320332, 1.033607378252782, 1.0504272465677786, 1.0656032549504744, 1.0838058634180925, 1.10030624400315, 1.115804129445678, 1.133595772929766, 1.1505770917719929, 1.1656012069524877, 1.1837375968079868, 1.2003929425954993, 1.2157549774874497]
29	礼物	False	animate	inanimate	right	1.349	[0.0, 0.0, 0.0, 0.0, 0.0, 0.0, 0.0, 0.0, 0.0, 0.0, 0.0, 0.0, 0.0, 0.0, 0.0, 0.0, 0.0, 0.0, 0.0, 0.0, 0.0, 0.0, 0.0, 0.0, 0.0, 0.0, 0.0, 0.0, 0.0, 0.0, 0.0, 0.0, 0.0, 0.0, 0.0, 0.0, 0.0, 0.0, 0.0, 0.0, 0.0, 0.0, 0.0, 0.0, 0.0, 0.0, -9.0, -20.0, -31.0, -46.0, -58.0, -72.0, -80.0, -83.0, -86.0, -86.0, -85.0, -69.0, -34.0, 83.0, 139.0, 348.0, 489.0, 595.0, 670.0, 715.0, 744.0, 761.0, 775.0, 783.0, 789.0, 790.0, 790.0, 790.0, 790.0, 790.0, 790.0, 790.0, 790.0, 790.0, 790.0, 790.0]	[-490.0, -490.0, -490.0, -490.0, -490.0, -490.0, -490.0, -490.0, -490.0, -490.0, -490.0, -490.0, -490.0, -490.0, -490.0, -490.0, -490.0, -490.0, -490.0, -490.0, -490.0, -490.0, -490.0, -490.0, -490.0, -490.0, -490.0, -490.0, -490.0, -490.0, -490.0, -490.0, -490.0, -490.0, -490.0, -490.0, -490.0, -490.0, -490.0, -490.0, -490.0, -490.0, -490.0, -490.0, -490.0, -490.0, -459.0, -437.0, -419.0, -393.0, -372.0, -352.0, -338.0, -329.0, -317.0, -305.0, -285.0, -246.0, -185.0, -52.0, -3.0, 156.0, 225.0, 265.0, 291.0, 307.0, 319.0, 331.0, 345.0, 356.0, 365.0, 367.0, 367.0, 367.0, 367.0, 367.0, 367.0, 367.0, 367.0, 367.0, 367.0, 367.0]	[0.011064105759942322, 0.015837648352317046, 0.021908256505412282, 0.03891380999448302, 0.05536640395439463, 0.0707352655063005, 0.08865934621098859, 0.10556284111953573, 0.12052961234803661, 0.13879809809259314, 0.15534899596968899, 0.17073287617495225, 0.18847229570383206, 0.2055556731265824, 0.22049172438164533, 0.23878137277461065, 0.2553578706283588, 0.27073594817193225, 0.2886487648866023, 0.3055345104785374, 0.32055282299552346, 0.3387666954531596, 0.35511723083436664, 0.3707444814990595, 0.3886801675271272, 0.4054764838601841, 0.42039683379516646, 0.43872744215332204, 0.45525990804526373, 0.47078680679624085, 0.4886951861808484, 0.5055686437826807, 0.5205292710161302, 0.538820967407446, 0.5554073639195849, 0.5707734948064171, 0.5884876556920062, 0.6054829691893246, 0.6205224443547195, 0.6388284767344885, 0.6553233959912177, 0.6707690574785374, 0.6887559434617287, 0.7055526011281472, 0.7205149350284046, 0.7387980980929569, 0.7553728892817162, 0.7707113721935457, 0.7884473783924477, 0.8055887824320962, 0.820528929682041, 0.8387417781414115, 0.8552343080664286, 0.8707523321590998, 0.8886788021954999, 0.905504814503729, 0.9204197031085641, 0.938784786103497, 0.9552844840236503, 0.9705874682986178, 0.988545340975179, 1.0054430332220363, 1.0202684925716312, 1.0387936607639858, 1.0549752362876461, 1.07073321750795, 1.088561383628985, 1.105433475897371, 1.12039205513247, 1.1387527007991594, 1.1552257747407566, 1.1707571108217962, 1.1885330529858038, 1.205485699852943, 1.2205132283634157, 1.2387404128094204, 1.2552667347063107, 1.2706987428700813, 1.2884893623559037, 1.305477507859905, 1.3205343910103693, 1.3387724981148494]
30	白菜	False	inanimate	animate	left	1.267	[0.0, 0.0, 0.0, 0.0, 0.0, 0.0, 0.0, 0.0, 0.0, 0.0, 0.0, 0.0, 0.0, 0.0, -1.0, 1.0, 2.0, 4.0, 5.0, 5.0, 5.0, 3.0, -14.0, -34.0, -44.0, -47.0, -47.0, -47.0, -47.0, -47.0, -47.0, -47.0, -47.0, -47.0, -47.0, -47.0, -47.0, -47.0, -49.0, -49.0, -49.0, -49.0, -49.0, -49.0, -49.0, -49.0, -49.0, -49.0, -49.0, -49.0, -50.0, -60.0, -81.0, -148.0, -172.0, -286.0, -368.0, -408.0, -507.0, -558.0, -570.0, -605.0, -619.0, -633.0, -643.0, -648.0, -656.0, -664.0, -670.0, -671.0, -675.0, -676.0, -676.0, -677.0, -677.0, -677.0, -677.0]	[-490.0, -490.0, -490.0, -490.0, -490.0, -490.0, -490.0, -490.0, -490.0, -490.0, -490.0, -490.0, -490.0, -490.0, -488.0, -471.0, -459.0, -448.0, -438.0, -427.0, -420.0, -414.0, -366.0, -308.0, -283.0, -278.0, -278.0, -278.0, -278.0, -278.0, -278.0, -278.0, -278.0, -278.0, -278.0, -278.0, -278.0, -278.0, -282.0, -283.0, -283.0, -283.0, -288.0, -296.0, -307.0, -308.0, -309.0, -311.0, -311.0, -311.0, -312.0, -298.0, -260.0, -135.0, -88.0, 70.0, 164.0, 206.0, 298.0, 339.0, 350.0, 374.0, 384.0, 394.0, 398.0, 401.0, 405.0, 408.0, 411.0, 411.0, 411.0, 411.0, 411.0, 411.0, 411.0, 411.0, 411.0]	[0.014759035939277965, 0.019780727654506336, 0.02759998498186178, 0.04595585198512708, 0.06292761350232468, 0.07754690769434092, 0.09591608668597473, 0.11261136843859276, 0.1280450832691713, 0.14576880147797056, 0.1627743549670413, 0.17780734480584215, 0.19604749990685377, 0.21255880315038667, 0.2280512272645865, 0.24605995856290974, 0.26282180025918933, 0.27776843283936614, 0.29607207588560414, 0.31266564039287914, 0.32800378197134705, 0.345911820022593, 0.36280336827621795, 0.37751652905353694, 0.3959976652822661, 0.4126888510400022, 0.4280420112718275, 0.44568654021531984, 0.46279585894808406, 0.47782509412354557, 0.4961099638530868, 0.5126868030420155, 0.5280450832688075, 0.5460708812206576, 0.5627972242800752, 0.5778230461255589, 0.5960748065499502, 0.6126042004452756, 0.6280508859308611, 0.6459889612906409, 0.6628190695955709, 0.6778104168024583, 0.6960382839151862, 0.7126192190989968, 0.7279512166824134, 0.7459104546906019, 0.7628279442542407, 0.7777786728292995, 0.7960604705622245, 0.8126212670977111, 0.8280682939166581, 0.8458288760939467, 0.8627303230041434, 0.8775141397218249, 0.8959580706505221, 0.9125601684827416, 0.9279385873596766, 0.9459165986845619, 0.9627081363560137, 0.9775428116972762, 0.995965238644203, 1.012477224554459, 1.027980912656858, 1.045946977326821, 1.0627470483232173, 1.0777069928917626, 1.095999030614621, 1.1125560724867682, 1.1279256167035783, 1.14576675347962, 1.162790738952026, 1.1777319102038746, 1.1961516064857278, 1.2125035071985621, 1.2279969553110277, 1.245628513597694, 1.2628846055395115]
31	镜子	False	inanimate	animate	left	1.531	[0.0, 0.0, 0.0, 0.0, 0.0, 0.0, 0.0, 0.0, 0.0, 0.0, 0.0, 0.0, 0.0, 0.0, 0.0, 6.0, 17.0, 27.0, 34.0, 42.0, 44.0, 46.0, 46.0, 46.0, 46.0, 46.0, 46.0, 46.0, 46.0, 46.0, 46.0, 46.0, 46.0, 46.0, 46.0, 46.0, 46.0, 46.0, 46.0, 46.0, 46.0, 46.0, 46.0, 46.0, 46.0, 46.0, 46.0, 46.0, 46.0, 46.0, 46.0, 46.0, 46.0, 46.0, 46.0, 47.0, 48.0, 48.0, 23.0, -13.0, -66.0, -135.0, -220.0, -305.0, -390.0, -476.0, -540.0, -584.0, -604.0, -616.0, -622.0, -622.0, -622.0, -622.0, -622.0, -622.0, -622.0, -622.0, -622.0, -622.0, -622.0, -622.0, -622.0, -622.0, -625.0, -646.0, -684.0, -723.0, -752.0, -772.0, -774.0, -774.0, -774.0]	[-490.0, -490.0, -490.0, -490.0, -490.0, -490.0, -490.0, -490.0, -490.0, -490.0, -490.0, -490.0, -490.0, -490.0, -482.0, -439.0, -404.0, -374.0, -352.0, -335.0, -326.0, -321.0, -321.0, -321.0, -321.0, -321.0, -321.0, -321.0, -321.0, -321.0, -321.0, -321.0, -321.0, -321.0, -321.0, -321.0, -321.0, -321.0, -321.0, -321.0, -321.0, -321.0, -321.0, -321.0, -321.0, -321.0, -321.0, -321.0, -321.0, -321.0, -321.0, -321.0, -321.0, -321.0, -321.0, -318.0, -281.0, -265.0, -198.0, -150.0, -105.0, -53.0, 14.0, 94.0, 184.0, 256.0, 309.0, 341.0, 355.0, 366.0, 372.0, 372.0, 372.0, 372.0, 372.0, 372.0, 372.0, 372.0, 372.0, 372.0, 372.0, 372.0, 372.0, 372.0, 373.0, 376.0, 376.0, 377.0, 377.0, 378.0, 378.0, 378.0, 378.0]	[0.01542839003559493, 0.020299212545069167, 0.029110725026839646, 0.047162122955342056, 0.06406868986232439, 0.07920817560989235, 0.0974913386744447, 0.11391594332599198, 0.12944079407861864, 0.14717065628246928, 0.16419395908815204, 0.179249476908808, 0.19749645867159416, 0.21413405514067563, 0.229465370057369, 0.24737852810540062, 0.2641297884765663, 0.2791805276337982, 0.2974374080549751, 0.31400605524868297, 0.3293947141173703, 0.34712457632122096, 0.3641762097704486, 0.3792505009078013, 0.3975135253222106, 0.4140879751794273, 0.42939403145101096, 0.4472795415222208, 0.46433936696485034, 0.4792044209461892, 0.49755994661609293, 0.5140371165562101, 0.5293940314513748, 0.5473150401594467, 0.5641396871360485, 0.5791607303181081, 0.597415221407573, 0.6140616925349605, 0.6293851567916136, 0.6472962668412947, 0.6641690417764039, 0.6792805382156075, 0.6974227307327965, 0.7138217354058725, 0.7294083674387366, 0.7473129921600048, 0.7702700285699393, 0.7790569650733232, 0.7973493441295432, 0.8140016179204395, 0.8294097327707277, 0.847129354984645, 0.864166993778781, 0.8792303622576583, 0.8974261440635019, 0.9140572552059893, 0.9293510234874702, 0.9471576856267347, 0.9642325297227217, 0.9791737009727512, 0.9975387839676841, 1.0137589301266416, 1.0294448900749558, 1.047133109646893, 1.0641294471442961, 1.079190767624823, 1.0974551573726785, 1.1139333513110614, 1.1294609327269427, 1.1470051097567193, 1.164169041776404, 1.179231727590377, 1.1974500373762567, 1.213910140664666, 1.2295094020191755, 1.2470672323706822, 1.2683602701999916, 1.2789306718477746, 1.2972920001793682, 1.3138906846816099, 1.3294121221024398, 1.3470167150808265, 1.3642478897090768, 1.3792347995877208, 1.397528543977387, 1.4138951220102172, 1.4294377220812748, 1.4472559895421, 1.4640919005087198, 1.4792334342546383, 1.497425802730504, 1.5139681672808365, 1.5293848154597072]
