trialIndex	stimulus	left_option	right_option	response	response_time	xTrajectory	yTrajectory	tTrajectory
0	animate/a27.jpg	animate	inanimate	left	1.663	[0.0, 0.0, 0.0, 0.0, 0.0, 0.0, 0.0, 0.0, 0.0, 0.0, 0.0, 0.0, 0.0, 0.0, 0.0, 0.0, 0.0, 0.0, 0.0, 0.0, 0.0, 0.0, 0.0, 0.0, 0.0, 0.0, 0.0, 0.0, 0.0, 0.0, 0.0, 0.0, 0.0, 0.0, 0.0, 0.0, 0.0, 0.0, 0.0, 0.0, 0.0, 0.0, -6.0, -33.0, -67.0, -99.0, -135.0, -195.0, -262.0, -346.0, -429.0, -502.0, -594.0, -636.0, -659.0, -672.0, -681.0, -689.0, -696.0, -709.0, -719.0, -737.0, -755.0, -778.0, -822.0, -852.0, -875.0, -895.0, -913.0, -925.0, -932.0, -933.0, -933.0, -933.0, -933.0, -933.0, -933.0, -933.0, -933.0, -933.0, -933.0, -933.0, -933.0, -933.0, -928.0, -906.0, -883.0, -851.0, -842.0, -842.0, -842.0, -842.0, -842.0, -842.0, -842.0, -842.0, -842.0, -842.0, -842.0, -842.0]	[-490.0, -490.0, -490.0, -490.0, -490.0, -490.0, -490.0, -490.0, -490.0, -490.0, -490.0, -490.0, -490.0, -490.0, -490.0, -490.0, -490.0, -490.0, -490.0, -490.0, -490.0, -490.0, -490.0, -490.0, -490.0, -490.0, -490.0, -490.0, -490.0, -490.0, -490.0, -490.0, -490.0, -490.0, -490.0, -490.0, -490.0, -490.0, -490.0, -490.0, -490.0, -490.0, -487.0, -478.0, -466.0, -453.0, -443.0, -426.0, -409.0, -396.0, -380.0, -349.0, -287.0, -243.0, -205.0, -173.0, -140.0, -101.0, -57.0, -8.0, 28.0, 68.0, 104.0, 144.0, 203.0, 240.0, 273.0, 305.0, 339.0, 368.0, 390.0, 395.0, 395.0, 395.0, 395.0, 395.0, 395.0, 395.0, 395.0, 395.0, 395.0, 395.0, 395.0, 395.0, 405.0, 424.0, 440.0, 459.0, 464.0, 464.0, 464.0, 464.0, 464.0, 464.0, 464.0, 464.0, 464.0, 464.0, 464.0, 464.0]	[0.01159242499852553, 0.017250704768230207, 0.02338241362303961, 0.04113480987143703, 0.05510216271795798, 0.071441781023168, 0.08850912161869928, 0.10476647861651145, 0.12185668853635434, 0.13859020530071575, 0.1551574928307673, 0.17419603241432924, 0.1885757157142507, 0.20547853372409008, 0.2217802640516311, 0.23817517832503654, 0.2549854950484587, 0.2716695185081335, 0.28836924328061286, 0.3058110263518756, 0.32193423942953814, 0.3381042151595466, 0.3552036410692381, 0.37148762206197716, 0.3883040827786317, 0.4047276690398576, 0.4216547217074549, 0.43912756610370707, 0.45477154741820414, 0.4719723492744379, 0.48818533298617695, 0.5052079589368077, 0.5216547558375169, 0.5385937551764073, 0.5550439654180082, 0.5718491621373687, 0.5880949138227152, 0.6052489530411549, 0.6215295207075542, 0.6386057359632105, 0.6548153063340578, 0.6719655908818822, 0.6883789371495368, 0.7052769764995901, 0.721524093503831, 0.7385405754612293, 0.7548665404319763, 0.7717809637833852, 0.7881297980784439, 0.8052616506320192, 0.8214336743549211, 0.8385450469359057, 0.8548949052201351, 0.8718325392255792, 0.8880728295771405, 0.9053664740495151, 0.9214019645005465, 0.9385740943835117, 0.9547665980935562, 0.9719042533106403, 0.9881319143460132, 1.0052852708904538, 1.0214173586282413, 1.0385307792021194, 1.0547772135469131, 1.0718223674921319, 1.088215916432091, 1.1052603877033107, 1.1216532539838227, 1.1384205627255142, 1.1548840849573025, 1.1717886096448638, 1.1883224465127569, 1.2052983098110417, 1.2241641348227859, 1.2384758928383235, 1.257793642944307, 1.27181424376613, 1.2906073648046004, 1.3052027706726221, 1.3242269742622739, 1.3384632976376452, 1.3575475758698303, 1.3717559099313803, 1.3894949941750383, 1.405233524783398, 1.4223090573796071, 1.4385090704163304, 1.4557836002350086, 1.471937533293385, 1.488448159507243, 1.505242433573585, 1.521626425193972, 1.5385493818612304, 1.5548640828346834, 1.5715515196352499, 1.590114240796538, 1.604834574594861, 1.6225234828598332, 1.638327208100236]
1	inanimate/n79.jpg	animate	inanimate	right	1.197	[0.0, 0.0, 0.0, 0.0, 0.0, 0.0, 0.0, 0.0, 0.0, 0.0, 0.0, 0.0, 0.0, 0.0, 0.0, 0.0, 0.0, 0.0, 0.0, 0.0, 0.0, 0.0, 0.0, 0.0, 0.0, 0.0, 0.0, 0.0, 0.0, 0.0, 0.0, 0.0, 0.0, 0.0, 0.0, 18.0, 58.0, 108.0, 173.0, 272.0, 327.0, 378.0, 426.0, 466.0, 502.0, 532.0, 556.0, 572.0, 582.0, 586.0, 587.0, 589.0, 590.0, 590.0, 590.0, 590.0, 590.0, 591.0, 594.0, 608.0, 637.0, 684.0, 744.0, 795.0, 846.0, 862.0, 865.0, 865.0, 865.0, 865.0, 865.0]	[-490.0, -490.0, -490.0, -490.0, -490.0, -490.0, -490.0, -490.0, -490.0, -490.0, -490.0, -490.0, -490.0, -490.0, -490.0, -490.0, -490.0, -490.0, -490.0, -490.0, -490.0, -490.0, -490.0, -490.0, -490.0, -490.0, -490.0, -490.0, -490.0, -490.0, -490.0, -490.0, -490.0, -490.0, -490.0, -445.0, -351.0, -248.0, -128.0, 25.0, 114.0, 190.0, 258.0, 315.0, 365.0, 409.0, 442.0, 464.0, 480.0, 489.0, 489.0, 494.0, 497.0, 497.0, 497.0, 497.0, 497.0, 497.0, 500.0, 503.0, 505.0, 505.0, 505.0, 505.0, 505.0, 505.0, 505.0, 505.0, 505.0, 505.0, 505.0]	[0.008492334847687744, 0.018895145520218648, 0.03210508009942714, 0.04911849004565738, 0.0654417243640637, 0.08240017967182212, 0.09854899274068885, 0.1157617412682157, 0.13215358353045303, 0.14902397489640862, 0.16544892649108078, 0.1823831471556332, 0.19880946406919975, 0.21575631406449247, 0.23195974044210743, 0.24916634496184997, 0.2654704646120081, 0.2824538372515235, 0.29861630364030134, 0.3158642094786046, 0.33224069175776094, 0.34915750443178695, 0.3655179440538632, 0.38240028207655996, 0.39867197508283425, 0.41558264374907594, 0.4319608327059541, 0.4489626373251667, 0.46525378632941283, 0.48240168154006824, 0.4985791665967554, 0.5157366191415349, 0.5318970375374192, 0.5491241220443044, 0.5652094471442979, 0.582320478381007, 0.5986754566838499, 0.6156851119740168, 0.6318683996796608, 0.6489039962907555, 0.6652146012784215, 0.6824000431370223, 0.6987867654243018, 0.7157206447445787, 0.7319046151242219, 0.7490944943274371, 0.765520469925832, 0.7822399920260068, 0.7988789595110575, 0.815556838962948, 0.8321248091524467, 0.8491197871189797, 0.8676357456424739, 0.8823997700819746, 0.9013140643946826, 0.9156268463993911, 0.9346906446444336, 0.9490450692828745, 0.9660366339230677, 0.9823936602188041, 0.9989588997268584, 1.0154650886106538, 1.032026232132921, 1.0488327942002797, 1.0652437511307653, 1.082038366526831, 1.1016428364964668, 1.1157197572902078, 1.1323017221293412, 1.149076881541987, 1.165371443858021]
2	inanimate/n37.jpg	inanimate	animate	left	1.552	[0.0, 0.0, 0.0, 0.0, 0.0, 0.0, 0.0, 0.0, 0.0, 0.0, 0.0, 0.0, 0.0, 0.0, 0.0, 0.0, 0.0, 0.0, 0.0, 0.0, 0.0, 0.0, 0.0, 0.0, 0.0, 0.0, 0.0, 0.0, 0.0, 0.0, 0.0, 0.0, 0.0, 0.0, 0.0, 0.0, 0.0, 0.0, 0.0, 0.0, -1.0, -11.0, -15.0, -16.0, -16.0, 14.0, 56.0, 105.0, 156.0, 215.0, 273.0, 313.0, 321.0, 321.0, 303.0, 272.0, 203.0, 97.0, -35.0, -173.0, -313.0, -428.0, -572.0, -599.0, -634.0, -640.0, -641.0, -641.0, -641.0, -641.0, -641.0, -641.0, -641.0, -641.0, -641.0, -641.0, -641.0, -641.0, -641.0, -641.0, -641.0, -645.0, -678.0, -719.0, -758.0, -778.0, -789.0, -791.0, -791.0, -792.0, -792.0, -792.0, -792.0, -792.0]	[-490.0, -490.0, -490.0, -490.0, -490.0, -490.0, -490.0, -490.0, -490.0, -490.0, -490.0, -490.0, -490.0, -490.0, -490.0, -490.0, -490.0, -490.0, -490.0, -490.0, -490.0, -490.0, -490.0, -490.0, -490.0, -490.0, -490.0, -490.0, -490.0, -490.0, -490.0, -490.0, -490.0, -490.0, -490.0, -490.0, -490.0, -490.0, -490.0, -490.0, -490.0, -488.0, -483.0, -468.0, -440.0, -365.0, -266.0, -170.0, -82.0, 5.0, 81.0, 139.0, 162.0, 186.0, 204.0, 216.0, 228.0, 243.0, 258.0, 279.0, 300.0, 324.0, 365.0, 374.0, 393.0, 400.0, 406.0, 417.0, 424.0, 428.0, 429.0, 430.0, 430.0, 430.0, 430.0, 430.0, 430.0, 430.0, 430.0, 430.0, 430.0, 431.0, 421.0, 408.0, 397.0, 394.0, 392.0, 392.0, 392.0, 392.0, 392.0, 392.0, 392.0, 392.0]	[0.008940163970692083, 0.016828373263706453, 0.023099687387002632, 0.03283860506780911, 0.0495304791838862, 0.06630256659991574, 0.08276916082832031, 0.09976857612491585, 0.1161409624182852, 0.1328529751917813, 0.15090642728318926, 0.16655450459802523, 0.18327607470564544, 0.19946482374507468, 0.2165840469824616, 0.23280727067322005, 0.2498500352812698, 0.2661009069706779, 0.283042636961909, 0.29965668711520266, 0.3164683691720711, 0.3329131180944387, 0.34978999478335027, 0.366357964972849, 0.3831034283939516, 0.3995659266365692, 0.41657762991962954, 0.43291212822077796, 0.44981255690800026, 0.4660187139379559, 0.4831147265213076, 0.49954923543555196, 0.5165401174017461, 0.5327240877813892, 0.5498463830153923, 0.5665573717997177, 0.5832311552658211, 0.599375872334349, 0.6165060182247544, 0.6327579139033332, 0.6498235478356946, 0.6661303981527453, 0.6831161601148779, 0.6993376771424664, 0.7167074389144545, 0.7326647640875308, 0.7498573739430867, 0.7660205230058637, 0.7831448662327603, 0.7993482926103752, 0.8166200917621609, 0.8326917635422433, 0.8498980267322622, 0.8660703917848878, 0.8832094123354182, 0.8995227479899768, 0.9165938432415714, 0.9328184322657762, 0.949763575597899, 0.9688652618206106, 0.9830452652240638, 1.0021288607822498, 1.016420138796093, 1.0354143050790299, 1.0498059350356925, 1.0663776598958066, 1.0830941099993652, 1.099354880338069, 1.1162962689995766, 1.135673752403818, 1.1495936599530978, 1.167551880091196, 1.18266952567501, 1.2006297938205535, 1.2160085592768155, 1.2331117398571223, 1.2496438700618455, 1.266794837283669, 1.2826504451513756, 1.299926340318052, 1.3161068973568035, 1.3332356779283145, 1.3495541335723829, 1.3665282902074978, 1.3829501698055537, 1.3998717611393658, 1.4160021422139835, 1.4331456001091283, 1.4495941036875593, 1.466435481721419, 1.4830194945679978, 1.4997629099962069, 1.5161236909480067, 1.5331517782324227]
3	inanimate/n61.jpg	inanimate	animate	left	1.264	[0.0, 0.0, 0.0, 0.0, 0.0, 0.0, 0.0, 0.0, 0.0, 0.0, 0.0, 0.0, 0.0, 0.0, 0.0, 0.0, 0.0, 0.0, 0.0, 0.0, 0.0, 0.0, 0.0, 0.0, 0.0, 0.0, 0.0, 0.0, 0.0, 0.0, 0.0, 0.0, 0.0, 0.0, 0.0, 0.0, 6.0, 43.0, 92.0, 147.0, 193.0, 231.0, 274.0, 342.0, 416.0, 466.0, 522.0, 559.0, 591.0, 610.0, 615.0, 615.0, 615.0, 615.0, 577.0, 483.0, 345.0, 59.0, -154.0, -365.0, -548.0, -683.0, -774.0, -821.0, -841.0, -845.0, -848.0, -849.0, -851.0, -851.0, -851.0, -851.0, -851.0, -851.0, -851.0, -851.0, -851.0]	[-490.0, -490.0, -490.0, -490.0, -490.0, -490.0, -490.0, -490.0, -490.0, -490.0, -490.0, -490.0, -490.0, -490.0, -490.0, -490.0, -490.0, -490.0, -490.0, -490.0, -490.0, -490.0, -490.0, -490.0, -490.0, -490.0, -490.0, -490.0, -490.0, -490.0, -490.0, -490.0, -490.0, -490.0, -490.0, -490.0, -466.0, -402.0, -331.0, -245.0, -157.0, -76.0, 1.0, 101.0, 202.0, 273.0, 336.0, 375.0, 408.0, 425.0, 432.0, 432.0, 432.0, 433.0, 433.0, 433.0, 433.0, 433.0, 433.0, 433.0, 433.0, 433.0, 438.0, 446.0, 453.0, 457.0, 459.0, 460.0, 462.0, 462.0, 462.0, 462.0, 462.0, 462.0, 462.0, 462.0, 462.0]	[0.010797596609336324, 0.01710304403968621, 0.023308480871492065, 0.03644741814059671, 0.05353694538644049, 0.0698642756906338, 0.08707258688809816, 0.10319443463231437, 0.12027372188458685, 0.1366420121776173, 0.1536192408093484, 0.1698561178345699, 0.18686133579467423, 0.20361123654583935, 0.22005769213137683, 0.2365236037003342, 0.25357251230161637, 0.27028145307849627, 0.2868306499440223, 0.30426560634805355, 0.3204069100902416, 0.33724146147142164, 0.3536121410870692, 0.36987495941866655, 0.3870464066276327, 0.4032191130245337, 0.42034994158893824, 0.4369377090915805, 0.45364255386812147, 0.46990503086999524, 0.48725226466194727, 0.5032007151603466, 0.520248599772458, 0.5369220418942859, 0.5536436120019061, 0.5699279343243688, 0.5872273814748041, 0.6031242906756233, 0.6203186071943492, 0.6369548440125072, 0.6536450114654144, 0.6698559471697081, 0.6869284077547491, 0.703207610087702, 0.7202886040176963, 0.7364527770696441, 0.7535303576587467, 0.7697617733501829, 0.7869717912108172, 0.8031045616080519, 0.8202029635285726, 0.8364418885466876, 0.8535894424276194, 0.8698556741001084, 0.8870161986560561, 0.9030912837479264, 0.9202640962903388, 0.9364763973280787, 0.9534717166243354, 0.9698714095575269, 0.9870117954560556, 1.003073909887462, 1.020274370413972, 1.036818788619712, 1.0537198999663815, 1.0700335769506637, 1.086971893601003, 1.103380119864596, 1.1203648578375578, 1.1364273136132397, 1.1534007875889074, 1.1700595524016535, 1.18705828502425, 1.2033770820125937, 1.220362161315279, 1.2364403184037656, 1.2536482882715063]
4	inanimate/n26.jpg	inanimate	animate	left	1.587	[0.0, 0.0, 0.0, 0.0, 0.0, 0.0, 0.0, 0.0, 0.0, 0.0, 0.0, 0.0, 0.0, 0.0, 0.0, 0.0, 0.0, 0.0, 0.0, 0.0, 0.0, 0.0, 0.0, 0.0, 0.0, 0.0, 0.0, 0.0, 0.0, 0.0, 0.0, 0.0, 0.0, 0.0, 0.0, 0.0, 0.0, 0.0, 0.0, 0.0, -29.0, -72.0, -116.0, -164.0, -225.0, -289.0, -419.0, -515.0, -604.0, -685.0, -752.0, -811.0, -856.0, -889.0, -916.0, -936.0, -949.0, -959.0, -960.0, -960.0, -960.0, -960.0, -960.0, -960.0, -960.0, -960.0, -960.0, -960.0, -960.0, -960.0, -960.0, -960.0, -960.0, -960.0, -960.0, -960.0, -960.0, -960.0, -960.0, -960.0, -960.0, -960.0, -960.0, -960.0, -956.0, -946.0, -937.0, -924.0, -902.0, -875.0, -851.0, -841.0, -840.0, -840.0, -840.0, -840.0]	[-490.0, -490.0, -490.0, -490.0, -490.0, -490.0, -490.0, -490.0, -490.0, -490.0, -490.0, -490.0, -490.0, -490.0, -490.0, -490.0, -490.0, -490.0, -490.0, -490.0, -490.0, -490.0, -490.0, -490.0, -490.0, -490.0, -490.0, -490.0, -490.0, -490.0, -490.0, -490.0, -490.0, -490.0, -490.0, -490.0, -490.0, -490.0, -490.0, -481.0, -428.0, -351.0, -269.0, -186.0, -104.0, -29.0, 101.0, 177.0, 241.0, 291.0, 331.0, 367.0, 394.0, 415.0, 435.0, 451.0, 465.0, 476.0, 487.0, 491.0, 497.0, 500.0, 503.0, 504.0, 504.0, 504.0, 504.0, 504.0, 504.0, 504.0, 504.0, 504.0, 504.0, 504.0, 504.0, 504.0, 504.0, 504.0, 504.0, 504.0, 504.0, 504.0, 504.0, 504.0, 504.0, 504.0, 503.0, 499.0, 490.0, 478.0, 473.0, 469.0, 469.0, 469.0, 469.0, 469.0]	[0.01045875517593231, 0.016444714783574454, 0.023201404663268477, 0.036074784729862586, 0.05298852540727239, 0.06913631447241642, 0.08625144170946442, 0.10242210009892005, 0.11946520603669342, 0.1357549896929413, 0.15295647422317415, 0.1693585564935347, 0.18637196645431686, 0.20266004344739486, 0.21966082406288479, 0.23574785582604818, 0.2529285190394148, 0.269141502736602, 0.2862846192874713, 0.30268397089093924, 0.3197021595115075, 0.3359871645079693, 0.3529794118076097, 0.36934940876381006, 0.3863815920485649, 0.4026819570281077, 0.41969775631150696, 0.4358643187006237, 0.45303098724980373, 0.46935149090131745, 0.4863451035344042, 0.5026359111798229, 0.5196626331307925, 0.5360022514360026, 0.5530596933676861, 0.5693266077141743, 0.5864229616272496, 0.6026912412926322, 0.6195978139730869, 0.6357507230277406, 0.6529150022397516, 0.6693747698154766, 0.6863560944620986, 0.7026390514511149, 0.7196029680926586, 0.7357835251459619, 0.7528914843860548, 0.7693894812691724, 0.7864325872214977, 0.802416536360397, 0.8194603249721695, 0.8359443272056524, 0.8528795718593756, 0.8693069127912167, 0.88636947471241, 0.9024114505009493, 0.9195702683791751, 0.9358450333820656, 0.9529161286482122, 0.9693799922097242, 0.9864200261508813, 1.0024719006032683, 1.019646078479127, 1.0359734087833203, 1.0530240240477724, 1.0693359943688847, 1.0863180016749538, 1.1027777692506788, 1.1197205232456326, 1.1358894749573665, 1.153071162159904, 1.1691646792605752, 1.1863917637674604, 1.2025050781812752, 1.219489816154237, 1.235756047826726, 1.2529455857002176, 1.26916403073119, 1.2862395633128472, 1.3025464136298979, 1.3194738076272188, 1.3359417672036216, 1.3528613105445402, 1.3691517768602353, 1.38631298407563, 1.4024416584870778, 1.419599452361581, 1.43586568403407, 1.4529620379471453, 1.4690654537116643, 1.4861959409317933, 1.5023966366425157, 1.5195162012096262, 1.5357534195645712, 1.5527627335250145, 1.569166522458545]
5	inanimate/n39.jpg	inanimate	animate	left	1.198	[0.0, 0.0, 0.0, 0.0, 0.0, 0.0, 0.0, 0.0, 0.0, 0.0, 0.0, 0.0, 0.0, 0.0, 0.0, 0.0, 0.0, 0.0, 0.0, 0.0, 0.0, 0.0, 0.0, 0.0, 0.0, 0.0, 0.0, 0.0, 0.0, 0.0, 0.0, 0.0, 0.0, 0.0, 0.0, 0.0, 0.0, 0.0, 0.0, 0.0, 0.0, 0.0, 0.0, 0.0, -1.0, -2.0, -11.0, -33.0, -81.0, -158.0, -249.0, -336.0, -422.0, -499.0, -568.0, -635.0, -685.0, -720.0, -733.0, -739.0, -745.0, -754.0, -764.0, -774.0, -785.0, -792.0, -796.0, -799.0, -800.0, -800.0, -800.0, -800.0]	[-490.0, -490.0, -490.0, -490.0, -490.0, -490.0, -490.0, -490.0, -490.0, -490.0, -490.0, -490.0, -490.0, -490.0, -490.0, -490.0, -490.0, -490.0, -490.0, -490.0, -490.0, -490.0, -490.0, -490.0, -490.0, -490.0, -490.0, -490.0, -490.0, -490.0, -490.0, -490.0, -490.0, -490.0, -490.0, -490.0, -490.0, -490.0, -490.0, -490.0, -490.0, -480.0, -464.0, -448.0, -421.0, -401.0, -368.0, -312.0, -214.0, -91.0, 22.0, 119.0, 195.0, 272.0, 345.0, 414.0, 464.0, 499.0, 513.0, 519.0, 525.0, 533.0, 539.0, 540.0, 540.0, 540.0, 540.0, 540.0, 540.0, 540.0, 540.0, 540.0]	[0.003139787193504162, 0.008546504424884915, 0.020867607454420067, 0.03814418528054375, 0.05437355296453461, 0.07138730425504036, 0.08785116781655233, 0.10481781513954047, 0.12086661758075934, 0.13792610751988832, 0.15446301638439763, 0.17139484771178104, 0.18786485528107733, 0.20478200928482693, 0.22114791024068836, 0.2381111442227848, 0.2544504211982712, 0.2714105831691995, 0.2878846867388347, 0.30483938739052974, 0.3208649791922653, 0.33803642640123144, 0.35442075933679007, 0.3713570280087879, 0.3876393023383571, 0.4047629628912546, 0.4211131625197595, 0.43811394314980134, 0.45445219612156507, 0.47135603813512716, 0.4877768937294604, 0.5047298877179855, 0.5211026153265266, 0.5381136359501397, 0.5544631529191975, 0.5714670055458555, 0.5876601919153472, 0.6047101245203521, 0.621020046834019, 0.638068272775854, 0.6544764990394469, 0.6714878610073356, 0.6878547859523678, 0.7047821799496887, 0.721100635593757, 0.7382232721720356, 0.7541908373241313, 0.7714418151590507, 0.7877722174598603, 0.8046934674639488, 0.8209143018320901, 0.8380823357001645, 0.8544926099712029, 0.8714083986415062, 0.8875459477130789, 0.9046057789819315, 0.9209928425843827, 0.9381533671403304, 0.9544141374790343, 0.9713947794516571, 0.9875917204917641, 1.004730399712571, 1.0211058580025565, 1.0381510119332233, 1.0542824170115637, 1.0714159762428608, 1.087950495770201, 1.1048079164756928, 1.1211587987636449, 1.1381090620852774, 1.154219304502476, 1.1713347730837995]
6	animate/a44.jpg	animate	inanimate	left	1.431	[0.0, 0.0, 0.0, 0.0, 0.0, 0.0, 0.0, 0.0, 0.0, 0.0, 0.0, 0.0, 0.0, 0.0, 0.0, 0.0, 0.0, 0.0, 0.0, 0.0, 0.0, 0.0, 0.0, 0.0, 0.0, 0.0, 0.0, 0.0, 0.0, 0.0, 0.0, 0.0, 0.0, 0.0, 5.0, 25.0, 66.0, 159.0, 235.0, 313.0, 390.0, 457.0, 509.0, 547.0, 584.0, 611.0, 633.0, 644.0, 647.0, 647.0, 646.0, 628.0, 576.0, 486.0, 376.0, 260.0, 124.0, -49.0, -216.0, -362.0, -471.0, -550.0, -610.0, -625.0, -630.0, -631.0, -631.0, -631.0, -631.0, -631.0, -631.0, -635.0, -649.0, -668.0, -704.0, -722.0, -740.0, -757.0, -772.0, -787.0, -800.0, -809.0, -810.0, -810.0, -810.0, -810.0]	[-490.0, -490.0, -490.0, -490.0, -490.0, -490.0, -490.0, -490.0, -490.0, -490.0, -490.0, -490.0, -490.0, -490.0, -490.0, -490.0, -490.0, -490.0, -490.0, -490.0, -490.0, -490.0, -490.0, -490.0, -490.0, -490.0, -490.0, -490.0, -490.0, -490.0, -490.0, -490.0, -490.0, -490.0, -487.0, -446.0, -374.0, -239.0, -140.0, -32.0, 77.0, 177.0, 268.0, 351.0, 415.0, 463.0, 492.0, 508.0, 511.0, 511.0, 514.0, 523.0, 540.0, 540.0, 540.0, 540.0, 540.0, 539.0, 539.0, 535.0, 531.0, 531.0, 531.0, 533.0, 535.0, 536.0, 536.0, 536.0, 536.0, 536.0, 536.0, 536.0, 536.0, 532.0, 524.0, 520.0, 515.0, 510.0, 506.0, 501.0, 497.0, 492.0, 492.0, 492.0, 492.0, 492.0]	[0.008711914473678917, 0.013546215996029787, 0.018572005414171144, 0.03288990742294118, 0.04905681114178151, 0.06619207703624852, 0.0824583087087376, 0.09954066795762628, 0.11579802496999037, 0.13287150955875404, 0.14916436522617005, 0.16625423380173743, 0.18262900941772386, 0.1996168193873018, 0.2159397123614326, 0.23288758636044804, 0.24942790855129715, 0.2662307159480406, 0.28259661690390203, 0.29955473088193685, 0.3159411118394928, 0.3328886444942327, 0.3491128921887139, 0.3662430380791193, 0.38243895511550363, 0.39955954368633684, 0.4159868846036261, 0.43296445457963273, 0.4491873369406676, 0.46622156821831595, 0.4826475438167108, 0.49961931112920865, 0.5158073774946388, 0.5328525314398576, 0.549089408465079, 0.5662297943490557, 0.5824950020178221, 0.5995541506272275, 0.6159951448644279, 0.6329744215181563, 0.6493686531175626, 0.6663325697591063, 0.6826855000545038, 0.699619038059609, 0.7159750403516227, 0.7329799169820035, 0.7491601326910313, 0.7661513559869491, 0.7826189742336283, 0.7996453548403224, 0.8159136345202569, 0.8328574125043815, 0.849299089415581, 0.8662490114074899, 0.8825855577160837, 0.899686007614946, 0.9159181059803814, 0.9329117186134681, 0.9492895662260707, 0.9662391468737042, 0.98264498381468, 0.9996235777944094, 1.0160427267110208, 1.0329086807469139, 1.0491851524129743, 1.0662323543510865, 1.0825494446617085, 1.0995792386092944, 1.1159355822310317, 1.133009408164071, 1.149028173298575, 1.1661361325386679, 1.1825743961235275, 1.1996922540129162, 1.2160212909948314, 1.2329572183225537, 1.2491879513399908, 1.2661928279703716, 1.2826147075684275, 1.2996646401734324, 1.3159189251746284, 1.332996505763731, 1.3493931267003063, 1.3661665794497821, 1.3826560430024983, 1.3996919809578685]
7	inanimate/n9.jpg	animate	inanimate	left	1.845	[0.0, 0.0, 0.0, 0.0, 0.0, 0.0, 0.0, 0.0, 0.0, 0.0, 0.0, 0.0, 0.0, 0.0, 0.0, 0.0, 0.0, 0.0, 0.0, 0.0, 0.0, 0.0, 0.0, 0.0, 0.0, 0.0, 0.0, 0.0, 0.0, 0.0, 0.0, 0.0, 0.0, 0.0, 0.0, 0.0, 0.0, 0.0, 0.0, 2.0, 14.0, 28.0, 41.0, 55.0, 72.0, 81.0, 87.0, 71.0, 33.0, -31.0, -107.0, -202.0, -298.0, -397.0, -499.0, -602.0, -726.0, -831.0, -956.0, -960.0, -960.0, -960.0, -960.0, -960.0, -960.0, -960.0, -960.0, -960.0, -960.0, -960.0, -958.0, -947.0, -935.0, -924.0, -915.0, -908.0, -904.0, -903.0, -903.0, -903.0, -903.0, -903.0, -903.0, -903.0, -903.0, -903.0, -903.0, -903.0, -903.0, -903.0, -903.0, -903.0, -903.0, -903.0, -903.0, -903.0, -903.0, -903.0, -903.0, -903.0, -903.0, -903.0, -903.0, -903.0, -903.0, -903.0, -903.0, -903.0, -903.0, -903.0, -903.0]	[-490.0, -490.0, -490.0, -490.0, -490.0, -490.0, -490.0, -490.0, -490.0, -490.0, -490.0, -490.0, -490.0, -490.0, -490.0, -490.0, -490.0, -490.0, -490.0, -490.0, -490.0, -490.0, -490.0, -490.0, -490.0, -490.0, -490.0, -490.0, -490.0, -490.0, -490.0, -490.0, -490.0, -490.0, -490.0, -490.0, -490.0, -490.0, -488.0, -471.0, -449.0, -425.0, -400.0, -367.0, -317.0, -257.0, -163.0, -91.0, -4.0, 85.0, 169.0, 245.0, 314.0, 376.0, 433.0, 486.0, 540.0, 540.0, 540.0, 540.0, 540.0, 540.0, 540.0, 540.0, 540.0, 540.0, 540.0, 540.0, 540.0, 540.0, 525.0, 504.0, 486.0, 470.0, 459.0, 454.0, 451.0, 450.0, 450.0, 450.0, 450.0, 450.0, 450.0, 450.0, 450.0, 450.0, 450.0, 450.0, 450.0, 450.0, 450.0, 450.0, 450.0, 450.0, 450.0, 450.0, 450.0, 450.0, 450.0, 450.0, 450.0, 450.0, 450.0, 450.0, 450.0, 450.0, 450.0, 450.0, 450.0, 450.0, 450.0]	[0.01602009632915724, 0.021141117715160362, 0.02649970696074888, 0.04112310214259196, 0.057309803189127706, 0.07440376776503399, 0.09062289547000546, 0.10790561728936154, 0.12456438208755571, 0.1410340483271284, 0.1601637238636613, 0.17435362593096215, 0.19103355339029804, 0.20759572091628797, 0.22423332305334043, 0.24121021036989987, 0.2573446874448564, 0.2744236333674053, 0.2907584729982773, 0.3076950829999987, 0.3240207066410221, 0.3411583618581062, 0.35736724955495447, 0.3744868141366169, 0.3907748911296949, 0.4077644077624427, 0.4240623834193684, 0.44130687591678, 0.45752702761092223, 0.47451517891022377, 0.49093125584477093, 0.5078019885404501, 0.5242057774739806, 0.5413041793799493, 0.5575222830811981, 0.5745944023365155, 0.591335087097832, 0.6079235372744733, 0.6243085528840311, 0.6413025068468414, 0.6575161732180277, 0.6745613271632465, 0.6909688707528403, 0.7077498328289948, 0.7242311043955851, 0.7412284716847353, 0.7575332740088925, 0.7744360920187319, 0.7908057476452086, 0.8077450882992707, 0.8241649198898813, 0.8411636525270296, 0.8573858522140654, 0.8744815234676935, 0.8906846085010329, 0.9077912024076795, 0.9242192259989679, 0.9412933932617307, 0.9575244676088914, 0.9745074989186833, 0.990772365257726, 1.0077523245709017, 1.0241117401892552, 1.0412449580762768, 1.0572889818722615, 1.0743139971455093, 1.0906624901108444, 1.1077885400154628, 1.124233630253002, 1.1412436268874444, 1.1575098585599335, 1.174404484569095, 1.1906502362544416, 1.2078298754640855, 1.224137749770307, 1.241155255731428, 1.2575351513369242, 1.274487462666002, 1.2907089796935907, 1.3077968002762645, 1.3241862532158848, 1.3412058071698993, 1.357539281467325, 1.3744502914778423, 1.390844864421524, 1.407802978399559, 1.4241770713560982, 1.4411805826530326, 1.4575007449602708, 1.4745216642477317, 1.4909370585082797, 1.5077937965397723, 1.5242781401029788, 1.5413000833941624, 1.5574779097660212, 1.5744309037545463, 1.590958596629207, 1.60793753193866, 1.6242122969415504, 1.6412670082063414, 1.6574878425599309, 1.6744111405714648, 1.6907367642124882, 1.707656990212854, 1.724216768401675, 1.7412445143563673, 1.7574537433829391, 1.7744217560248217, 1.790566131763626, 1.8076495150162373, 1.8241874478844693]
8	inanimate/n52.jpg	animate	inanimate	right	1.178	[0.0, 0.0, 0.0, 0.0, 0.0, 0.0, 0.0, 0.0, 0.0, 0.0, 0.0, 0.0, 0.0, 0.0, 0.0, 0.0, 0.0, 0.0, 0.0, 0.0, 0.0, 0.0, 0.0, 0.0, 0.0, 0.0, 0.0, 0.0, 0.0, 0.0, 0.0, 0.0, 0.0, 0.0, 0.0, 0.0, 5.0, 15.0, 36.0, 61.0, 116.0, 153.0, 188.0, 225.0, 269.0, 314.0, 354.0, 390.0, 430.0, 470.0, 502.0, 528.0, 569.0, 588.0, 609.0, 624.0, 636.0, 644.0, 651.0, 659.0, 664.0, 669.0, 671.0, 672.0, 672.0, 672.0, 674.0, 674.0, 674.0, 674.0, 674.0]	[-490.0, -490.0, -490.0, -490.0, -490.0, -490.0, -490.0, -490.0, -490.0, -490.0, -490.0, -490.0, -490.0, -490.0, -490.0, -490.0, -490.0, -490.0, -490.0, -490.0, -490.0, -490.0, -490.0, -490.0, -490.0, -490.0, -490.0, -490.0, -490.0, -490.0, -490.0, -490.0, -490.0, -490.0, -490.0, -490.0, -481.0, -457.0, -418.0, -377.0, -300.0, -241.0, -178.0, -119.0, -58.0, -5.0, 46.0, 86.0, 128.0, 174.0, 214.0, 250.0, 308.0, 331.0, 354.0, 371.0, 383.0, 391.0, 398.0, 405.0, 410.0, 413.0, 415.0, 415.0, 416.0, 416.0, 417.0, 417.0, 418.0, 418.0, 418.0]	[0.010486744489753619, 0.01641058146196883, 0.023662887077080086, 0.03601914741739165, 0.05318581596657168, 0.06935237835568842, 0.0864504389319336, 0.10268595062370878, 0.11980039518675767, 0.13605399752850644, 0.1531011994666187, 0.169390641793143, 0.18643955040897708, 0.20261396345449612, 0.21973421069560573, 0.2361967089236714, 0.25321250822162256, 0.2695903558342252, 0.28646347785252146, 0.30269557621795684, 0.31982469810463954, 0.3362073243915802, 0.3531821637006942, 0.36939992605766747, 0.38650139997480437, 0.40300554085115436, 0.4198295109090395, 0.43597047330695204, 0.4531804911675863, 0.4695296667923685, 0.4864369221322704, 0.5027096391422674, 0.5197247557662195, 0.5360909980518045, 0.5531798426382011, 0.5692361544060986, 0.5864803055883385, 0.6026513053075178, 0.6197681392077357, 0.6362166427861666, 0.6531877274246654, 0.6694935537525453, 0.6864765850477852, 0.702910752632306, 0.719876717281295, 0.7361815196054522, 0.7531208602595143, 0.7694877852190984, 0.7865076805028366, 0.8026128029159736, 0.8197794714651536, 0.8362231963837985, 0.8531546863814583, 0.869283360792906, 0.886442861330579, 0.9027875996398507, 0.9198829295492033, 0.9361348252277821, 0.9531441391882254, 0.9695923014223808, 0.9865231087605935, 1.0026193565136055, 1.019762131749303, 1.0362031259865034, 1.0531841093034018, 1.069359205008368, 1.0864268869481748, 1.1028020038938848, 1.1198560324992286, 1.1361785841436358, 1.1531196314608678]
9	inanimate/n13.jpg	inanimate	animate	right	1.048	[0.0, 0.0, 0.0, 0.0, 0.0, 0.0, 0.0, 0.0, 0.0, 0.0, 0.0, 0.0, 0.0, 0.0, 0.0, 0.0, 0.0, 0.0, 0.0, 0.0, 0.0, 0.0, 0.0, 0.0, 0.0, 0.0, 0.0, 0.0, 0.0, 0.0, 0.0, 2.0, 9.0, 27.0, 50.0, 76.0, 104.0, 132.0, 172.0, 192.0, 206.0, 215.0, 227.0, 251.0, 287.0, 336.0, 388.0, 436.0, 482.0, 530.0, 607.0, 662.0, 704.0, 730.0, 750.0, 761.0, 766.0, 766.0, 766.0, 766.0, 766.0, 766.0, 766.0]	[-490.0, -490.0, -490.0, -490.0, -490.0, -490.0, -490.0, -490.0, -490.0, -490.0, -490.0, -490.0, -490.0, -490.0, -490.0, -490.0, -490.0, -490.0, -490.0, -490.0, -490.0, -490.0, -490.0, -490.0, -490.0, -490.0, -490.0, -490.0, -490.0, -490.0, -490.0, -490.0, -473.0, -442.0, -406.0, -361.0, -311.0, -263.0, -185.0, -136.0, -90.0, -50.0, -13.0, 31.0, 90.0, 151.0, 204.0, 251.0, 292.0, 332.0, 391.0, 429.0, 451.0, 467.0, 480.0, 488.0, 492.0, 492.0, 492.0, 492.0, 492.0, 492.0, 492.0]	[0.01586376575869508, 0.023118802040698938, 0.02983657993900124, 0.04653425671858713, 0.06329610414104536, 0.08005044222227298, 0.09640610318456311, 0.11357379572291393, 0.12988917937036604, 0.14679711738426704, 0.16308212238072883, 0.18030238022038247, 0.19668739584449213, 0.2137427897687303, 0.22949224304466043, 0.24661931693844963, 0.2634183696791297, 0.2797637906332966, 0.2966676326468587, 0.31588298281712923, 0.33019508214783855, 0.3489871791971382, 0.3635208037594566, 0.38251462869811803, 0.3967096507549286, 0.414263732440304, 0.4301114896516083, 0.44731399818556383, 0.46346246991015505, 0.480441405219608, 0.496947935433127, 0.5135937295854092, 0.5302787770342547, 0.5464350994298002, 0.5632720401481492, 0.5798164583393373, 0.5965018471324584, 0.6161865303874947, 0.6298941287095658, 0.6494310146954376, 0.6630805863824207, 0.6803039162332425, 0.69634247868089, 0.714801434558467, 0.72973919758806, 0.7482558387710014, 0.7632697190856561, 0.780348665008205, 0.7966241126705427, 0.8136917945957975, 0.8300320955604548, 0.8469823588820873, 0.8632656572153792, 0.8803466511308216, 0.8965449575043749, 0.9134549435257213, 0.9297778364998521, 0.946798755787313, 0.9632947046629852, 0.9803620452585164, 0.9965999462874606, 1.0135502096090931, 1.0299543398723472]
10	inanimate/n5.jpg	inanimate	animate	right	1.012	[0.0, 0.0, 0.0, 0.0, 0.0, 0.0, 0.0, 0.0, 0.0, 0.0, 0.0, 0.0, 0.0, 0.0, 0.0, 0.0, 0.0, 0.0, 0.0, 0.0, 0.0, 0.0, 0.0, 0.0, 0.0, 0.0, 0.0, 0.0, 0.0, 0.0, 0.0, 0.0, 0.0, 0.0, 0.0, 26.0, 77.0, 132.0, 184.0, 234.0, 280.0, 331.0, 385.0, 442.0, 505.0, 562.0, 609.0, 663.0, 690.0, 709.0, 718.0, 724.0, 726.0, 726.0, 726.0, 726.0, 726.0, 726.0, 726.0, 726.0, 726.0]	[-490.0, -490.0, -490.0, -490.0, -490.0, -490.0, -490.0, -490.0, -490.0, -490.0, -490.0, -490.0, -490.0, -490.0, -490.0, -490.0, -490.0, -490.0, -490.0, -490.0, -490.0, -490.0, -490.0, -490.0, -490.0, -490.0, -490.0, -490.0, -490.0, -490.0, -490.0, -490.0, -490.0, -490.0, -491.0, -454.0, -381.0, -307.0, -221.0, -140.0, -58.0, 30.0, 121.0, 195.0, 268.0, 330.0, 384.0, 443.0, 473.0, 492.0, 503.0, 509.0, 511.0, 511.0, 511.0, 511.0, 511.0, 511.0, 511.0, 511.0, 511.0]	[0.01336042836192064, 0.01808755127422046, 0.024314492096891627, 0.04151290461595636, 0.057727936320588924, 0.07530386331200134, 0.09111987655342091, 0.10894600076426286, 0.12502722986391746, 0.14156823472876567, 0.1579331116809044, 0.1750205909338547, 0.19145885451871436, 0.2084787498024525, 0.22494295470824, 0.24138872761977836, 0.2582294229941908, 0.2779178609198425, 0.2915862059162464, 0.3082425813918235, 0.3249713194963988, 0.3437528352078516, 0.3582233131310204, 0.3773191966902232, 0.3912128215742996, 0.4082767488434911, 0.4248522283451166, 0.44392729058745317, 0.45795949673629366, 0.4749585707031656, 0.4917013034573756, 0.5090993958874606, 0.5245781719568186, 0.5419312084122794, 0.5581165441253688, 0.5749429035058711, 0.5912787671404658, 0.6081587158259936, 0.6250413951929659, 0.643652585655218, 0.6578998316981597, 0.6748122070421232, 0.6917109290516237, 0.7084328404889675, 0.7245703895605402, 0.7415725355240284, 0.7581302657054039, 0.7748617344768718, 0.7911723394645378, 0.808218858728651, 0.8245687170274323, 0.8418947881582426, 0.8581081131851533, 0.8751628244644962, 0.8916417066939175, 0.9082888661650941, 0.9245424685068429, 0.9418821929575643, 0.9579036887589609, 0.9746249175368575, 0.9913444396370323]
11	inanimate/n55.jpg	inanimate	animate	left	1.29	[0.0, 0.0, 0.0, 0.0, 0.0, 0.0, 0.0, 0.0, 0.0, 0.0, 0.0, 0.0, 0.0, 0.0, 0.0, 0.0, 0.0, 0.0, 0.0, 0.0, 0.0, 0.0, 0.0, 0.0, 0.0, 0.0, 0.0, 0.0, 0.0, 0.0, 0.0, 0.0, 0.0, 0.0, 0.0, 0.0, 0.0, 0.0, 0.0, 0.0, 0.0, 0.0, 0.0, 0.0, 0.0, -1.0, -6.0, -16.0, -26.0, -57.0, -80.0, -111.0, -137.0, -149.0, -168.0, -194.0, -216.0, -255.0, -304.0, -373.0, -455.0, -591.0, -682.0, -744.0, -790.0, -820.0, -839.0, -857.0, -866.0, -868.0, -871.0, -873.0, -874.0, -874.0, -875.0, -875.0, -875.0, -875.0]	[-490.0, -490.0, -490.0, -490.0, -490.0, -490.0, -490.0, -490.0, -490.0, -490.0, -490.0, -490.0, -490.0, -490.0, -490.0, -490.0, -490.0, -490.0, -490.0, -490.0, -490.0, -490.0, -490.0, -490.0, -490.0, -490.0, -490.0, -490.0, -490.0, -490.0, -490.0, -490.0, -490.0, -490.0, -490.0, -490.0, -490.0, -490.0, -490.0, -490.0, -490.0, -490.0, -490.0, -490.0, -470.0, -407.0, -378.0, -313.0, -239.0, -126.0, -57.0, 6.0, 49.0, 61.0, 82.0, 99.0, 109.0, 125.0, 147.0, 176.0, 214.0, 278.0, 311.0, 341.0, 361.0, 373.0, 381.0, 392.0, 397.0, 398.0, 401.0, 404.0, 405.0, 406.0, 406.0, 406.0, 406.0, 406.0]	[0.009197426756145433, 0.015074501076014712, 0.019301912252558395, 0.03360855026403442, 0.05021167776430957, 0.06728345568990335, 0.0837186472635949, 0.10045250537223183, 0.11678324900276493, 0.13326759256597143, 0.15049365308368579, 0.16700803395360708, 0.1835545001522405, 0.19975553719268646, 0.21666347520658746, 0.23356049055291805, 0.2504131325840717, 0.26695618545636535, 0.28321934513223823, 0.3003180883679306, 0.31705979713296983, 0.333948279148899, 0.34994246829592157, 0.3669500755931949, 0.38350405111850705, 0.4007075836416334, 0.41654373552592006, 0.433580697470461, 0.4525147891108645, 0.4681256611220306, 0.48317981875152327, 0.5005243218620308, 0.5165966763015604, 0.5334602410002844, 0.5500708778272383, 0.5669600425171666, 0.5835013887117384, 0.6002328574832063, 0.6167977556615369, 0.6335671124106739, 0.6526978119509295, 0.6668552873743465, 0.683497668185737, 0.7001301503332797, 0.7166196138859959, 0.7335019519086927, 0.7503102206392214, 0.7669901480985573, 0.78327276375785, 0.8000308565242449, 0.8165479680610588, 0.8334258687536931, 0.8499204523104709, 0.8669638995779678, 0.8836605523683829, 0.9002227198798209, 0.9170135806198232, 0.9335993001295719, 0.950369339538156, 0.9667949738068273, 0.985622569496627, 1.0002579113352112, 1.0165538389846915, 1.0332446891115978, 1.0503666430158773, 1.0668916052236455, 1.0862393926508958, 1.10032177476387, 1.117222544780816, 1.133477512456011, 1.1500376319745556, 1.1668083540571388, 1.1839750226063188, 1.2002415956085315, 1.2167464191588806, 1.233700778480852, 1.2503400872956263, 1.2669961214269279]
12	animate/a48.jpg	inanimate	animate	right	1.019	[0.0, 0.0, 0.0, 0.0, 0.0, 0.0, 0.0, 0.0, 0.0, 0.0, 0.0, 0.0, 0.0, 0.0, 0.0, 0.0, 0.0, 0.0, 0.0, 0.0, 0.0, 0.0, 0.0, 0.0, 0.0, 0.0, 0.0, 0.0, 0.0, 0.0, 0.0, 0.0, 0.0, 0.0, 0.0, 0.0, 0.0, 0.0, 1.0, 17.0, 46.0, 80.0, 134.0, 238.0, 303.0, 370.0, 447.0, 527.0, 601.0, 663.0, 704.0, 730.0, 744.0, 751.0, 752.0, 752.0, 752.0, 752.0, 752.0, 752.0, 752.0]	[-490.0, -490.0, -490.0, -490.0, -490.0, -490.0, -490.0, -490.0, -490.0, -490.0, -490.0, -490.0, -490.0, -490.0, -490.0, -490.0, -490.0, -490.0, -490.0, -490.0, -490.0, -490.0, -490.0, -490.0, -490.0, -490.0, -490.0, -490.0, -490.0, -490.0, -490.0, -490.0, -490.0, -490.0, -490.0, -490.0, -490.0, -490.0, -490.0, -468.0, -430.0, -387.0, -323.0, -201.0, -116.0, -21.0, 85.0, 179.0, 258.0, 321.0, 370.0, 399.0, 416.0, 425.0, 427.0, 427.0, 427.0, 427.0, 427.0, 427.0, 427.0]	[0.0041416000021854416, 0.008871453581377864, 0.02353478474833537, 0.039951544342329726, 0.057055748911807314, 0.07327453528705519, 0.09061187040060759, 0.10725049655593466, 0.12357270685606636, 0.14001131177064963, 0.1570697777060559, 0.1733633160329191, 0.19041939263115637, 0.20672658429248258, 0.22384171152953058, 0.24008097787736915, 0.25717084645293653, 0.2733834888204001, 0.29041191743453965, 0.30667951444047503, 0.3236700550769456, 0.3400216200388968, 0.35725518988328986, 0.37357501086080447, 0.3905194715189282, 0.406909265788272, 0.4238096944754943, 0.44021382473874837, 0.4572248453623615, 0.47356514632701874, 0.4905659269570606, 0.5066891400347231, 0.5238056326052174, 0.5401531015668297, 0.5572815408086171, 0.5735682524682488, 0.5904796038084896, 0.6068400434305659, 0.623799522742047, 0.6401654236979084, 0.6571662043279503, 0.6735679452685872, 0.6906445018539671, 0.7066543923283461, 0.7238415408501169, 0.740059303221642, 0.7572587397444295, 0.7735085874301149, 0.7906493146438152, 0.8068995036592241, 0.8238934576365864, 0.8404231985041406, 0.8572205445670988, 0.8735864455229603, 0.890551044838503, 0.9066599219222553, 0.9237876784900436, 0.9400487901584711, 0.9570563974557444, 0.9735601970023708, 0.9906657669052947]
13	inanimate/n2.jpg	inanimate	animate	left	1.198	[0.0, 0.0, 0.0, 0.0, 0.0, 0.0, 0.0, 0.0, 0.0, 0.0, 0.0, 0.0, 0.0, 0.0, 0.0, 0.0, 0.0, 0.0, 0.0, 0.0, 0.0, 0.0, 0.0, 0.0, 0.0, 0.0, 0.0, 4.0, 15.0, 37.0, 63.0, 98.0, 141.0, 182.0, 220.0, 255.0, 296.0, 344.0, 401.0, 461.0, 507.0, 552.0, 567.0, 577.0, 584.0, 592.0, 595.0, 597.0, 598.0, 598.0, 598.0, 580.0, 488.0, 266.0, 102.0, -40.0, -179.0, -316.0, -445.0, -572.0, -667.0, -743.0, -789.0, -820.0, -841.0, -852.0, -859.0, -866.0, -868.0, -870.0, -870.0, -870.0]	[-490.0, -490.0, -490.0, -490.0, -490.0, -490.0, -490.0, -490.0, -490.0, -490.0, -490.0, -490.0, -490.0, -490.0, -490.0, -490.0, -490.0, -490.0, -490.0, -490.0, -490.0, -490.0, -490.0, -490.0, -490.0, -490.0, -485.0, -471.0, -455.0, -423.0, -392.0, -347.0, -292.0, -230.0, -161.0, -92.0, -15.0, 65.0, 139.0, 207.0, 256.0, 311.0, 330.0, 348.0, 363.0, 376.0, 387.0, 391.0, 394.0, 395.0, 397.0, 403.0, 415.0, 436.0, 436.0, 431.0, 416.0, 410.0, 410.0, 410.0, 410.0, 410.0, 413.0, 421.0, 428.0, 431.0, 433.0, 437.0, 438.0, 440.0, 440.0, 440.0]	[0.016347776167094707, 0.022488359682029113, 0.03129270717909094, 0.04785555736452807, 0.06502154323970899, 0.0811311029974604, 0.09820765958284028, 0.11514665890717879, 0.13156683184206486, 0.14808087138226256, 0.16501440938736778, 0.18168102484196424, 0.19825479769497178, 0.21449986670631915, 0.23176244986825623, 0.24791535893746186, 0.2649188702343963, 0.281205581894028, 0.2983111517969519, 0.31471084473014344, 0.33167066538590007, 0.34812155830150004, 0.36509025360282976, 0.38116431472008117, 0.3983589725830825, 0.41472077753860503, 0.43180450212094, 0.4481113524379907, 0.46506059175590053, 0.48136710074322764, 0.498378804026288, 0.5144535478029866, 0.531637624342693, 0.5480779359204462, 0.565078716550488, 0.581353140209103, 0.5984044381475542, 0.6147450804564869, 0.6318028637178941, 0.6478264075121842, 0.665000585388043, 0.6815074569312856, 0.6984276829462033, 0.7144508854107698, 0.7316851379146101, 0.747923380258726, 0.7650149555120151, 0.7815016884123906, 0.7983987037587212, 0.8147857673611725, 0.8317790386645356, 0.8479575477103936, 0.8650105523120146, 0.8812446986703435, 0.8983236445928924, 0.9146782815514598, 0.9317732701310888, 0.9493754797877045, 0.9650146824424155, 0.981213671489968, 0.998269065428758, 1.0148407902743202, 1.0316661256510997, 1.0480665012582904, 1.065044071234297, 1.0814307935070246, 1.0983605768415146, 1.114599160529906, 1.131668207788607, 1.1477753782091895, 1.1650359133636812, 1.181225003747386]
14	inanimate/n37.jpg	animate	inanimate	right	1.492	[0.0, 0.0, 0.0, 0.0, 0.0, 0.0, 0.0, 0.0, 0.0, 0.0, 0.0, 0.0, 0.0, 0.0, 0.0, 0.0, 0.0, 0.0, 0.0, 0.0, 0.0, 0.0, 0.0, 0.0, 0.0, 0.0, 0.0, 0.0, 0.0, 0.0, 0.0, 0.0, 0.0, 10.0, 32.0, 47.0, 52.0, 42.0, 5.0, -53.0, -129.0, -226.0, -333.0, -435.0, -555.0, -601.0, -618.0, -620.0, -620.0, -597.0, -522.0, -403.0, -269.0, -134.0, 7.0, 223.0, 347.0, 433.0, 484.0, 505.0, 508.0, 508.0, 508.0, 508.0, 508.0, 508.0, 509.0, 518.0, 543.0, 576.0, 606.0, 655.0, 702.0, 741.0, 767.0, 792.0, 815.0, 828.0, 831.0, 831.0, 831.0, 831.0, 831.0, 831.0, 831.0, 831.0, 831.0, 831.0, 831.0, 831.0]	[-490.0, -490.0, -490.0, -490.0, -490.0, -490.0, -490.0, -490.0, -490.0, -490.0, -490.0, -490.0, -490.0, -490.0, -490.0, -490.0, -490.0, -490.0, -490.0, -490.0, -490.0, -490.0, -490.0, -490.0, -490.0, -490.0, -490.0, -490.0, -490.0, -490.0, -490.0, -490.0, -490.0, -458.0, -374.0, -315.0, -256.0, -194.0, -118.0, -41.0, 27.0, 92.0, 153.0, 195.0, 244.0, 259.0, 266.0, 268.0, 271.0, 282.0, 302.0, 335.0, 366.0, 406.0, 447.0, 509.0, 540.0, 540.0, 540.0, 540.0, 540.0, 540.0, 540.0, 540.0, 540.0, 540.0, 540.0, 540.0, 540.0, 540.0, 535.0, 528.0, 522.0, 515.0, 511.0, 505.0, 502.0, 500.0, 500.0, 500.0, 500.0, 500.0, 500.0, 500.0, 500.0, 500.0, 500.0, 500.0, 500.0, 500.0]	[0.01568422450509388, 0.021350696275476366, 0.029684345339774154, 0.04620999020698946, 0.06368522392585874, 0.07980741301435046, 0.09695735623245127, 0.11350825974659529, 0.13018272588669788, 0.14648821087030228, 0.16358490611310117, 0.17980198581062723, 0.1968498704081867, 0.21327140867651906, 0.23021416267147288, 0.24650667699461337, 0.26374878016940784, 0.2800481211452279, 0.29695708316285163, 0.3131639228668064, 0.33027154076262377, 0.3466063804080477, 0.36363105435157195, 0.37974812343600206, 0.39686598133994266, 0.4134185915318085, 0.4303534948558081, 0.4466221158654662, 0.46367443780764006, 0.47972836025292054, 0.4967885328514967, 0.5133349990355782, 0.5302118757390417, 0.5467020219512051, 0.5635498853371246, 0.5800277435628232, 0.5969408015662339, 0.6133903291483875, 0.6303351311362348, 0.6466621201107046, 0.6636867940542288, 0.679993985715555, 0.6969886223378126, 0.7133739792916458, 0.7303665679210098, 0.7466682982485509, 0.7635980815684889, 0.7799796838517068, 0.7969541818310972, 0.8131371282070177, 0.830394591379445, 0.8466420497279614, 0.8636363450204954, 0.8798923366994131, 0.8969101839902578, 0.9133836048858939, 0.9303215802065097, 0.9467321958072716, 0.9637179577839561, 0.9799896507756785, 0.9969685860851314, 1.013290113725816, 1.030325369007187, 1.0465318673814181, 1.0635336720006308, 1.0800873061962193, 1.0969208335736766, 1.1130713533057133, 1.1302677178318845, 1.1466776507731993, 1.1636852580559207, 1.1797258685110137, 1.1968440677446779, 1.213077190113836, 1.2301841253502062, 1.2466421862482093, 1.263681878859643, 1.279974734527059, 1.296964933819254, 1.3134574693831382, 1.3302828047599178, 1.3466647483728593, 1.3636706490069628, 1.3798044434079202, 1.3969683812902076, 1.4131752209941624, 1.4302541669167113, 1.4464872892713174, 1.463493872564868, 1.479969000123674]
15	animate/a41.jpg	animate	inanimate	left	1.516	[0.0, 0.0, 0.0, 0.0, 0.0, 0.0, 0.0, 0.0, 0.0, 0.0, 0.0, 0.0, 0.0, 0.0, 0.0, 0.0, 0.0, 0.0, 0.0, 0.0, 0.0, 0.0, 0.0, 0.0, 0.0, 0.0, 0.0, 0.0, 0.0, 0.0, 0.0, 0.0, 0.0, 0.0, 0.0, 0.0, 0.0, 0.0, 0.0, 0.0, 0.0, 0.0, -12.0, -52.0, -100.0, -145.0, -196.0, -249.0, -324.0, -371.0, -410.0, -444.0, -468.0, -478.0, -484.0, -488.0, -489.0, -490.0, -492.0, -493.0, -493.0, -493.0, -494.0, -494.0, -495.0, -496.0, -497.0, -498.0, -499.0, -502.0, -508.0, -523.0, -536.0, -547.0, -559.0, -574.0, -585.0, -596.0, -614.0, -638.0, -672.0, -712.0, -738.0, -762.0, -775.0, -786.0, -797.0, -804.0, -805.0, -805.0, -805.0, -805.0]	[-490.0, -490.0, -490.0, -490.0, -490.0, -490.0, -490.0, -490.0, -490.0, -490.0, -490.0, -490.0, -490.0, -490.0, -490.0, -490.0, -490.0, -490.0, -490.0, -490.0, -490.0, -490.0, -490.0, -490.0, -490.0, -490.0, -490.0, -490.0, -490.0, -490.0, -490.0, -490.0, -490.0, -490.0, -490.0, -490.0, -490.0, -490.0, -490.0, -490.0, -490.0, -490.0, -481.0, -440.0, -384.0, -330.0, -273.0, -212.0, -115.0, -47.0, 25.0, 91.0, 140.0, 166.0, 183.0, 195.0, 205.0, 215.0, 224.0, 230.0, 233.0, 236.0, 239.0, 242.0, 245.0, 246.0, 250.0, 252.0, 255.0, 258.0, 267.0, 279.0, 291.0, 301.0, 309.0, 319.0, 327.0, 334.0, 345.0, 360.0, 379.0, 401.0, 415.0, 427.0, 434.0, 439.0, 447.0, 452.0, 453.0, 453.0, 453.0, 453.0]	[0.00887257998692803, 0.014657494350103661, 0.024274556097225286, 0.03230919732595794, 0.048984004781232215, 0.06617012931383215, 0.08272103284252807, 0.09920401107228827, 0.11567128797469195, 0.13277003121038433, 0.14909633752540685, 0.16617903810401913, 0.182393045804929, 0.1995429890230298, 0.21573003141384106, 0.23276289735804312, 0.24907281967171002, 0.2662101335590705, 0.2826613678043941, 0.29963927911012433, 0.3158519214775879, 0.3327704408147838, 0.3492360110540176, 0.36613780506013427, 0.38256787665886804, 0.3996065452665789, 0.41579768364317715, 0.4327749122749083, 0.4493193304806482, 0.46616070851450786, 0.4825839534460101, 0.4996809900185326, 0.5158891950559337, 0.5327742637455231, 0.5491876100131776, 0.5662464172783075, 0.582326963703963, 0.599413077623467, 0.6158513412083266, 0.6328159405238694, 0.6492094894638285, 0.6661440514581045, 0.6825802670500707, 0.6996278103179066, 0.7158704900066368, 0.7328999426099472, 0.7490545583423227, 0.7662352215556893, 0.782552653196035, 0.7995739138132194, 0.8160091054014629, 0.8328760834265267, 0.8490491311531514, 0.8661488983925665, 0.882568729983177, 0.8995449346257374, 0.9157985369674861, 0.932819456254947, 0.949252599850297, 0.9661417645256734, 0.9825933401007205, 0.9995825154037448, 1.015960704360623, 1.0328894636913901, 1.0492386393161723, 1.066245222609723, 1.0825827929074876, 1.0994606936001219, 1.1158992985147052, 1.1328236205154099, 1.1490133935731137, 1.166104968811851, 1.1824695044342661, 1.1995713196811266, 1.2159505326271756, 1.2328345773130422, 1.2489912410383113, 1.2660596056375653, 1.2825773998483783, 1.29956043115817, 1.3158601134782657, 1.332878302098834, 1.3492732163722394, 1.3661675010516774, 1.3825613913213601, 1.3995471532980446, 1.4159789315453963, 1.4340344316296978, 1.449102583923377, 1.4662098604894709, 1.4823596975620603, 1.4995905367395608]
16	animate/a72.jpg	animate	inanimate	left	1.189	[0.0, 0.0, 0.0, 0.0, 0.0, 0.0, 0.0, 0.0, 0.0, 0.0, 0.0, 0.0, 0.0, 0.0, 0.0, 0.0, 0.0, 0.0, 0.0, 0.0, 0.0, 0.0, 0.0, 0.0, 0.0, 0.0, 0.0, 0.0, 0.0, 0.0, 0.0, 0.0, 0.0, 0.0, 0.0, 0.0, 0.0, 0.0, 0.0, 0.0, 0.0, 0.0, 0.0, -20.0, -47.0, -56.0, -56.0, -52.0, -52.0, -56.0, -77.0, -113.0, -166.0, -231.0, -298.0, -409.0, -472.0, -529.0, -580.0, -626.0, -668.0, -689.0, -705.0, -713.0, -717.0, -719.0, -720.0, -721.0, -723.0, -724.0, -724.0, -724.0]	[-490.0, -490.0, -490.0, -490.0, -490.0, -490.0, -490.0, -490.0, -490.0, -490.0, -490.0, -490.0, -490.0, -490.0, -490.0, -490.0, -490.0, -490.0, -490.0, -490.0, -490.0, -490.0, -490.0, -490.0, -490.0, -490.0, -490.0, -490.0, -490.0, -490.0, -490.0, -490.0, -490.0, -490.0, -490.0, -490.0, -490.0, -490.0, -490.0, -490.0, -490.0, -490.0, -490.0, -427.0, -332.0, -265.0, -216.0, -157.0, -97.0, -36.0, 30.0, 101.0, 160.0, 208.0, 248.0, 289.0, 310.0, 326.0, 340.0, 351.0, 359.0, 362.0, 367.0, 371.0, 374.0, 376.0, 378.0, 378.0, 381.0, 382.0, 382.0, 382.0]	[0.005426378033007495, 0.013687323138583452, 0.019389634879189543, 0.03668396202556323, 0.052917425709892996, 0.06997179564496037, 0.0861349447077373, 0.10323300528398249, 0.11970164751983248, 0.13667580416949932, 0.15302224912738893, 0.1700646724057151, 0.18619061615027022, 0.2030831941665383, 0.21965526034182403, 0.2367133849475067, 0.2527765233826358, 0.269908375950763, 0.2862592582387151, 0.3033108975214418, 0.31969454779755324, 0.33665675777592696, 0.35298272274667397, 0.369988964710501, 0.3864255216321908, 0.4033624729490839, 0.4196358726185281, 0.4366045679344097, 0.4530206448689569, 0.4699692015128676, 0.4862600091728382, 0.5032993604545482, 0.519702808058355, 0.5367192900157534, 0.5530008816713234, 0.5700200942956144, 0.58619075268507, 0.6033096345781814, 0.6197086448519258, 0.6368036334315548, 0.6528916891984409, 0.6698975898179924, 0.6863167387491558, 0.7033543833531439, 0.7195212870865362, 0.7366981956147356, 0.7530975472182035, 0.7699269786098739, 0.7862908315582899, 0.8032919535180554, 0.819718953120173, 0.836771957721794, 0.8530098587361863, 0.8700355566834332, 0.8861683270952199, 0.9033861956122564, 0.9196995312522631, 0.936751853194437, 0.953126970140147, 0.9700096494925674, 0.9862113692070125, 1.003270517801866, 1.0195504027942661, 1.0367822659754893, 1.052888412392349, 1.0699547289987095, 1.0861550833651563, 1.103317997243721, 1.119529615607462, 1.1366259695205372, 1.1528594332194189, 1.1699230191443348]
17	inanimate/n16.jpg	inanimate	animate	right	1.445	[0.0, 0.0, 0.0, 0.0, 0.0, 0.0, 0.0, 0.0, 0.0, 0.0, 0.0, 0.0, 0.0, 0.0, 0.0, 0.0, 0.0, 0.0, 0.0, 0.0, 0.0, 0.0, 0.0, 0.0, 0.0, 0.0, 0.0, 0.0, 0.0, 0.0, 0.0, 0.0, 0.0, 0.0, -2.0, -40.0, -97.0, -194.0, -259.0, -331.0, -406.0, -467.0, -527.0, -570.0, -598.0, -618.0, -630.0, -644.0, -655.0, -678.0, -689.0, -691.0, -691.0, -684.0, -644.0, -558.0, -455.0, -338.0, -222.0, -100.0, 15.0, 218.0, 354.0, 473.0, 562.0, 644.0, 706.0, 744.0, 759.0, 760.0, 760.0, 760.0, 760.0, 760.0, 760.0, 760.0, 760.0, 760.0, 760.0, 760.0, 760.0, 760.0, 760.0, 760.0, 760.0, 760.0, 760.0]	[-490.0, -490.0, -490.0, -490.0, -490.0, -490.0, -490.0, -490.0, -490.0, -490.0, -490.0, -490.0, -490.0, -490.0, -490.0, -490.0, -490.0, -490.0, -490.0, -490.0, -490.0, -490.0, -490.0, -490.0, -490.0, -490.0, -490.0, -490.0, -490.0, -490.0, -490.0, -490.0, -490.0, -490.0, -488.0, -446.0, -379.0, -262.0, -180.0, -84.0, 9.0, 99.0, 191.0, 263.0, 315.0, 352.0, 377.0, 396.0, 410.0, 427.0, 435.0, 437.0, 442.0, 452.0, 467.0, 494.0, 521.0, 540.0, 540.0, 540.0, 540.0, 540.0, 540.0, 525.0, 514.0, 501.0, 493.0, 483.0, 478.0, 478.0, 478.0, 478.0, 478.0, 478.0, 478.0, 478.0, 478.0, 478.0, 478.0, 478.0, 478.0, 478.0, 478.0, 478.0, 478.0, 478.0, 478.0]	[0.0028988059930270538, 0.008344435205799527, 0.021007212722906843, 0.03795713470026385, 0.054047921134042554, 0.07115007771062665, 0.08742313605034724, 0.10463895655993838, 0.12070755634340458, 0.13793498218001332, 0.15413499521673657, 0.17126070379163139, 0.1873924501996953, 0.2045403454103507, 0.2207932650926523, 0.23800635494990274, 0.25415926400455646, 0.2711446846515173, 0.28754881491477136, 0.3047294781135861, 0.3208267498703208, 0.33786780781520065, 0.35415110614849254, 0.37125667605141643, 0.3874334784341045, 0.40453665901441127, 0.42079060270043556, 0.4379504445823841, 0.45416718293563463, 0.4711788862332469, 0.4877588030794868, 0.5046544530923711, 0.5211036393302493, 0.5380207933339989, 0.5542955583368894, 0.5712966802966548, 0.5877561065426562, 0.6046797458839137, 0.6209995668614283, 0.6380826087697642, 0.654370003103395, 0.6712786237767432, 0.6877370260190219, 0.7045575827360153, 0.7209794623340713, 0.7379399656492751, 0.7543399999121903, 0.7712363325990736, 0.7874820842844201, 0.8044480489334092, 0.820942632490187, 0.838115786362323, 0.8543321833858499, 0.8713053160317941, 0.8877319742896361, 0.9046108989714412, 0.9209972799289972, 0.937961879229988, 0.9543243668595096, 0.9712521021865541, 0.9877903763845097, 1.0046341437700903, 1.0209850260580424, 1.0380912786349654, 1.054370822297642, 1.0712743229814805, 1.0877528638811782, 1.1045355326205026, 1.1210004201857373, 1.1380640061106533, 1.1543517417740077, 1.1712985917693004, 1.1877952233189717, 1.20457482006168, 1.2208915690425783, 1.2380824722349644, 1.254056522724568, 1.2710583273583325, 1.2877181161602493, 1.3045472062076442, 1.3210165311174933, 1.3379336851212429, 1.3542323434376158, 1.3711856787558645, 1.3874696597486036, 1.4045315390249016, 1.420988575933734]
18	inanimate/n35.jpg	inanimate	animate	left	1.032	[0.0, 0.0, 0.0, 0.0, 0.0, 0.0, 0.0, 0.0, 0.0, 0.0, 0.0, 0.0, 0.0, 0.0, 0.0, 0.0, 0.0, 0.0, 0.0, 0.0, 0.0, 0.0, 0.0, 0.0, 0.0, 0.0, 0.0, 0.0, 0.0, 0.0, 0.0, 0.0, 0.0, 0.0, 0.0, -13.0, -72.0, -135.0, -192.0, -246.0, -311.0, -385.0, -459.0, -543.0, -623.0, -684.0, -730.0, -749.0, -762.0, -775.0, -785.0, -787.0, -787.0, -787.0, -787.0, -786.0, -785.0, -780.0, -778.0, -775.0, -771.0, -769.0, -769.0]	[-490.0, -490.0, -490.0, -490.0, -490.0, -490.0, -490.0, -490.0, -490.0, -490.0, -490.0, -490.0, -490.0, -490.0, -490.0, -490.0, -490.0, -490.0, -490.0, -490.0, -490.0, -490.0, -490.0, -490.0, -490.0, -490.0, -490.0, -490.0, -490.0, -490.0, -490.0, -490.0, -490.0, -490.0, -490.0, -476.0, -426.0, -377.0, -339.0, -305.0, -260.0, -205.0, -150.0, -78.0, 4.0, 76.0, 137.0, 171.0, 206.0, 247.0, 280.0, 299.0, 315.0, 335.0, 356.0, 377.0, 393.0, 415.0, 430.0, 449.0, 463.0, 469.0, 469.0]	[0.015623808547388762, 0.02375504704832565, 0.029202382924268022, 0.04029536923917476, 0.05689849673944991, 0.07406482395890635, 0.09024708766082767, 0.10751752149371896, 0.1239264304167591, 0.14047118995222263, 0.15684664824220818, 0.17393549281405285, 0.19085298816207796, 0.20728544908342883, 0.2261908687360119, 0.24059410401969217, 0.25732727945433, 0.2738409776648041, 0.2901990279642632, 0.307500523107592, 0.3235510322119808, 0.3406395354686538, 0.3573392602556851, 0.37395399308297783, 0.39069740849663503, 0.4072913200070616, 0.4262298489775276, 0.44062864694569726, 0.45737615835969336, 0.4739082885644166, 0.4905148293910315, 0.5075449646828929, 0.5235906951274956, 0.5404832731437637, 0.5573345498560229, 0.5743128024914768, 0.5904984795342898, 0.606908071131329, 0.6241785049642203, 0.6406928858341416, 0.6574687279207865, 0.6736001329845749, 0.6903469617536757, 0.7068691932945512, 0.723655616689939, 0.7402191495493753, 0.7569465223205043, 0.7735656924778596, 0.7903190065699164, 0.8073802031576633, 0.8234812295850134, 0.8405007835390279, 0.8574483161937678, 0.8738251398026478, 0.8902804700483102, 0.9075007279025158, 0.9238802821782883, 0.9417794516775757, 0.9571831344655948, 0.9742183897469658, 0.9905795120284893, 1.0075051993626403, 1.0236396764375968]
19	inanimate/n65.jpg	inanimate	animate	left	1.579	[0.0, 0.0, 0.0, 0.0, 0.0, 0.0, 0.0, 0.0, 0.0, 0.0, 0.0, 0.0, 0.0, 0.0, 0.0, 0.0, 0.0, 0.0, 0.0, 0.0, 0.0, 0.0, 0.0, 0.0, 0.0, 0.0, 0.0, 0.0, 0.0, 0.0, 0.0, 0.0, 0.0, 0.0, 0.0, 0.0, 7.0, 43.0, 96.0, 154.0, 221.0, 282.0, 359.0, 445.0, 529.0, 649.0, 683.0, 779.0, 817.0, 846.0, 863.0, 865.0, 865.0, 865.0, 865.0, 865.0, 840.0, 774.0, 664.0, 525.0, 355.0, 100.0, -74.0, -242.0, -377.0, -477.0, -523.0, -563.0, -593.0, -608.0, -611.0, -611.0, -612.0, -614.0, -614.0, -617.0, -617.0, -617.0, -617.0, -617.0, -617.0, -617.0, -617.0, -619.0, -636.0, -658.0, -686.0, -716.0, -739.0, -754.0, -761.0, -762.0, -762.0, -762.0, -762.0]	[-490.0, -490.0, -490.0, -490.0, -490.0, -490.0, -490.0, -490.0, -490.0, -490.0, -490.0, -490.0, -490.0, -490.0, -490.0, -490.0, -490.0, -490.0, -490.0, -490.0, -490.0, -490.0, -490.0, -490.0, -490.0, -490.0, -490.0, -490.0, -490.0, -490.0, -490.0, -490.0, -490.0, -490.0, -490.0, -490.0, -468.0, -399.0, -313.0, -232.0, -146.0, -64.0, 29.0, 131.0, 226.0, 364.0, 408.0, 497.0, 538.0, 540.0, 540.0, 540.0, 540.0, 540.0, 540.0, 540.0, 533.0, 511.0, 483.0, 458.0, 431.0, 394.0, 386.0, 383.0, 383.0, 383.0, 383.0, 388.0, 398.0, 403.0, 404.0, 404.0, 404.0, 405.0, 405.0, 407.0, 407.0, 407.0, 407.0, 407.0, 407.0, 407.0, 407.0, 407.0, 405.0, 399.0, 391.0, 382.0, 377.0, 376.0, 376.0, 376.0, 376.0, 376.0, 376.0]	[0.0036978668940719217, 0.009328498679678887, 0.022161942775710486, 0.03891389153432101, 0.05566242695203982, 0.07247410900890827, 0.08900794587680139, 0.1059329505515052, 0.12209336894738954, 0.13940510408428963, 0.15541601854783949, 0.17262364707130473, 0.18877109480672516, 0.20591182203497738, 0.22210808040108532, 0.23944302619202062, 0.2554754446464358, 0.2725905718834838, 0.28882540091581177, 0.30595247480960097, 0.3221047012048075, 0.33935226571338717, 0.35546046012314036, 0.3726520459895255, 0.38881826704891864, 0.40595216760993935, 0.4221166819916107, 0.4395219424186507, 0.45545503293396905, 0.4726418401260162, 0.4889910157653503, 0.5059914550511166, 0.5222744120546849, 0.5393687179603148, 0.5583430869155563, 0.5724913463345729, 0.591760285809869, 0.6058467639231822, 0.6250607487600064, 0.6393820640951162, 0.6584492756664986, 0.6724664631474297, 0.6914647254307056, 0.7058744460518938, 0.7247897643683245, 0.7391745676577557, 0.7582585045602173, 0.7724709346221061, 0.7914405249030096, 0.8058222562103765, 0.8233794098923681, 0.8393155723897507, 0.8560931211395655, 0.8725392353808274, 0.8894454667315586, 0.9059083063038997, 0.922445215168409, 0.9392599692218937, 0.9554896782501601, 0.9723307149542961, 0.9888570424955105, 1.0058448524650885, 1.0221499961189693, 1.0392166540405015, 1.0555231630278286, 1.0722877411171794, 1.0893578123650514, 1.1057530679827323, 1.1226674913195893, 1.1391692428733222, 1.1560584075486986, 1.1720314340491313, 1.1892793398728827, 1.205270457023289, 1.2225521548389224, 1.2392860129475594, 1.2559925643872702, 1.272604907877394, 1.288897080870811, 1.3058135522151133, 1.3220337039092556, 1.338872009946499, 1.3558454839221667, 1.3725646647071699, 1.3897292852489045, 1.4054251492052572, 1.4226211724017048, 1.4392198625719175, 1.4558014860813273, 1.4721967416844564, 1.4893047009245493, 1.5055538659507874, 1.5225150519254385, 1.5387464676168747, 1.5558796855184482]
20	inanimate/n74.jpg	animate	inanimate	right	1.497	[0.0, 0.0, 0.0, 0.0, 0.0, 0.0, 0.0, 0.0, 0.0, 0.0, 0.0, 0.0, 0.0, 0.0, 0.0, 0.0, 0.0, 0.0, 0.0, 0.0, 0.0, 0.0, 0.0, 0.0, 0.0, 0.0, 0.0, 0.0, 0.0, 0.0, 0.0, 0.0, 0.0, 0.0, 0.0, -3.0, 15.0, 40.0, 64.0, 92.0, 114.0, 126.0, 135.0, 138.0, 132.0, 109.0, 49.0, 5.0, -49.0, -116.0, -199.0, -300.0, -418.0, -542.0, -653.0, -709.0, -726.0, -727.0, -724.0, -709.0, -665.0, -592.0, -507.0, -404.0, -290.0, -96.0, -27.0, 183.0, 252.0, 436.0, 520.0, 590.0, 629.0, 648.0, 663.0, 673.0, 681.0, 686.0, 687.0, 690.0, 695.0, 710.0, 739.0, 781.0, 817.0, 832.0, 833.0, 833.0, 833.0, 833.0]	[-490.0, -490.0, -490.0, -490.0, -490.0, -490.0, -490.0, -490.0, -490.0, -490.0, -490.0, -490.0, -490.0, -490.0, -490.0, -490.0, -490.0, -490.0, -490.0, -490.0, -490.0, -490.0, -490.0, -490.0, -490.0, -490.0, -490.0, -490.0, -490.0, -490.0, -490.0, -490.0, -490.0, -490.0, -490.0, -489.0, -445.0, -405.0, -371.0, -332.0, -297.0, -270.0, -242.0, -214.0, -184.0, -137.0, -48.0, 10.0, 73.0, 128.0, 176.0, 231.0, 279.0, 329.0, 367.0, 387.0, 398.0, 400.0, 417.0, 435.0, 463.0, 494.0, 515.0, 540.0, 540.0, 540.0, 540.0, 540.0, 540.0, 540.0, 540.0, 540.0, 540.0, 538.0, 534.0, 528.0, 525.0, 522.0, 522.0, 521.0, 518.0, 512.0, 500.0, 485.0, 475.0, 473.0, 473.0, 473.0, 473.0, 473.0]	[0.015277457772754133, 0.021599289204459637, 0.028591840295121074, 0.04528234907775186, 0.06241659098304808, 0.07874699328385759, 0.0956784832815174, 0.11202526958368253, 0.1288919062790228, 0.14858205086784437, 0.16205549462756608, 0.17892588599352166, 0.19577306670544203, 0.2122174742835341, 0.2291322389501147, 0.2458531263982877, 0.262594835148775, 0.27912901336094365, 0.29544371433439665, 0.3128421480942052, 0.3288069825794082, 0.34580025388277136, 0.36207672554883175, 0.3790532715211157, 0.39531847920443397, 0.4124629610887496, 0.42896266463503707, 0.445696522743674, 0.4622457195946481, 0.4790840256464435, 0.4956205931812292, 0.5124899605434621, 0.529027210737695, 0.5457931541604921, 0.5623065110266907, 0.5792697450087871, 0.5954165100847604, 0.6123855467303656, 0.6289681942434981, 0.6458017216209555, 0.6622761665203143, 0.6790967232373077, 0.6957517333794385, 0.7124285888421582, 0.7289849536900874, 0.7459430676826742, 0.7620864194177557, 0.779298826601007, 0.795444226328982, 0.8123507990094367, 0.828749126609182, 0.845786088553723, 0.8619775682745967, 0.879158572803135, 0.8952968045487069, 0.9124010091181844, 0.9286846487811999, 0.9457902186841238, 0.961985453061061, 0.9793221055151662, 0.9954954945715144, 1.0124921792012174, 1.0287058455724036, 1.045708674195339, 1.0621926764288219, 1.0790374678035732, 1.095422483413131, 1.112354656070238, 1.1287157783663133, 1.1457534229703015, 1.1623370944871567, 1.179232744500041, 1.1957604373747017, 1.2123171435669065, 1.228816847113194, 1.245702939806506, 1.2646827700809808, 1.279155296011595, 1.2982795102143427, 1.3123403883510036, 1.3302003045391757, 1.3459156244935002, 1.363448543517734, 1.3792195007699775, 1.396426787963719, 1.4124895850691246, 1.4295425896707457, 1.4458699199894909, 1.4622685889189597, 1.4793154495273484]
21	animate/a36.jpg	inanimate	animate	right	1.302	[0.0, 0.0, 0.0, 0.0, 0.0, 0.0, 0.0, 0.0, 0.0, 0.0, 0.0, 0.0, 0.0, 0.0, 0.0, 0.0, 0.0, 0.0, 0.0, 0.0, 0.0, 0.0, 0.0, 0.0, 0.0, 0.0, 0.0, 0.0, 0.0, 0.0, 0.0, 0.0, 0.0, 0.0, 0.0, 13.0, 67.0, 93.0, 171.0, 196.0, 311.0, 409.0, 514.0, 615.0, 707.0, 790.0, 858.0, 915.0, 956.0, 959.0, 959.0, 959.0, 959.0, 959.0, 959.0, 959.0, 959.0, 959.0, 959.0, 959.0, 959.0, 959.0, 959.0, 959.0, 959.0, 959.0, 955.0, 933.0, 906.0, 884.0, 866.0, 851.0, 840.0, 835.0, 832.0, 832.0, 832.0, 832.0]	[-490.0, -490.0, -490.0, -490.0, -490.0, -490.0, -490.0, -490.0, -490.0, -490.0, -490.0, -490.0, -490.0, -490.0, -490.0, -490.0, -490.0, -490.0, -490.0, -490.0, -490.0, -490.0, -490.0, -490.0, -490.0, -490.0, -490.0, -490.0, -490.0, -490.0, -490.0, -490.0, -490.0, -490.0, -490.0, -468.0, -379.0, -344.0, -244.0, -216.0, -95.0, 1.0, 96.0, 174.0, 236.0, 287.0, 333.0, 373.0, 406.0, 435.0, 466.0, 472.0, 478.0, 478.0, 478.0, 478.0, 478.0, 478.0, 478.0, 478.0, 478.0, 478.0, 478.0, 478.0, 478.0, 478.0, 478.0, 478.0, 476.0, 474.0, 470.0, 468.0, 468.0, 468.0, 468.0, 468.0, 468.0, 468.0]	[0.005693744285963476, 0.01036215788917616, 0.02108616306213662, 0.03799273574259132, 0.05427603407588322, 0.07089349757006858, 0.08803900345810689, 0.10466841360903345, 0.12120361581037287, 0.1375845354195917, 0.15463924668438267, 0.17131541948765516, 0.18777962439344265, 0.20436090655857697, 0.221529964444926, 0.23767126817256212, 0.25467477946949657, 0.27090687782038003, 0.28789605312340427, 0.30430462073127273, 0.32143988662573975, 0.33758119035337586, 0.3547577575664036, 0.3708468373224605, 0.38806436450977344, 0.40421624957525637, 0.4213958887703484, 0.4375474325061077, 0.4548260583251249, 0.4708919274271466, 0.4880613266432192, 0.5043395049724495, 0.521389778907178, 0.5375645332969725, 0.5548346257855883, 0.5708704575808952, 0.5879142461781157, 0.6042484031495405, 0.6212546451133676, 0.6376369300560327, 0.6547578599565895, 0.6712759954971261, 0.6878821949940175, 0.7073204357147915, 0.7214014525088714, 0.7403478321357397, 0.7548295740562025, 0.7723426957527408, 0.7880334397195838, 0.8067303048155736, 0.8212553960474906, 0.8382998673187103, 0.8547924028825946, 0.8708784106420353, 0.8876948713586899, 0.9077871064073406, 0.9211731688847067, 0.9378476350248093, 0.9543132052494911, 0.9713747431815136, 0.9883082811866188, 1.0049045820196625, 1.0209670377953444, 1.0379370984446723, 1.0543111913866596, 1.0744495064136572, 1.0876775316428393, 1.1047537468984956, 1.1211851838161238, 1.1405083952558925, 1.1545634707290446, 1.173875759501243, 1.187758461732301, 1.2060389003745513, 1.2209602794027887, 1.2380286439874908, 1.254315696991398, 1.2714127335639205]
22	inanimate/n24.jpg	animate	inanimate	right	1.471	[0.0, 0.0, 0.0, 0.0, 0.0, 0.0, 0.0, 0.0, 0.0, 0.0, 0.0, 0.0, 0.0, 0.0, 0.0, 0.0, 0.0, 0.0, 0.0, 0.0, 0.0, 0.0, 0.0, 0.0, 0.0, 0.0, 0.0, 0.0, 0.0, 0.0, 0.0, 0.0, 0.0, 0.0, 0.0, 15.0, 45.0, 75.0, 110.0, 153.0, 188.0, 220.0, 258.0, 300.0, 332.0, 354.0, 356.0, 361.0, 363.0, 363.0, 350.0, 324.0, 282.0, 243.0, 224.0, 220.0, 220.0, 220.0, 220.0, 223.0, 251.0, 281.0, 313.0, 347.0, 376.0, 400.0, 421.0, 433.0, 447.0, 467.0, 494.0, 535.0, 555.0, 572.0, 588.0, 604.0, 620.0, 645.0, 668.0, 682.0, 691.0, 697.0, 699.0, 699.0, 699.0, 699.0, 699.0, 699.0]	[-490.0, -490.0, -490.0, -490.0, -490.0, -490.0, -490.0, -490.0, -490.0, -490.0, -490.0, -490.0, -490.0, -490.0, -490.0, -490.0, -490.0, -490.0, -490.0, -490.0, -490.0, -490.0, -490.0, -490.0, -490.0, -490.0, -490.0, -490.0, -490.0, -490.0, -490.0, -490.0, -490.0, -490.0, -490.0, -420.0, -338.0, -270.0, -200.0, -122.0, -59.0, -5.0, 54.0, 109.0, 156.0, 187.0, 193.0, 201.0, 211.0, 219.0, 234.0, 249.0, 278.0, 310.0, 327.0, 330.0, 330.0, 330.0, 330.0, 336.0, 352.0, 365.0, 378.0, 391.0, 402.0, 409.0, 415.0, 419.0, 423.0, 428.0, 430.0, 436.0, 440.0, 444.0, 447.0, 452.0, 457.0, 465.0, 474.0, 479.0, 483.0, 485.0, 486.0, 486.0, 486.0, 486.0, 486.0, 486.0]	[0.007934698878671043, 0.013903933155233972, 0.0245583063660888, 0.041678894936922006, 0.05810521185048856, 0.07534663236583583, 0.09190231455431785, 0.10856449269340374, 0.12489352966076694, 0.14187075830704998, 0.15857150708325207, 0.17507086929981597, 0.1922784978232812, 0.20862801479233894, 0.22549738215457182, 0.24167042986664455, 0.25813019744236954, 0.2752268926851684, 0.2914989270211663, 0.3085471529630013, 0.32518065911426675, 0.34186843723000493, 0.3587497512635309, 0.37513510820281226, 0.3915631317941006, 0.40870112835546024, 0.42524691188009456, 0.441612812835956, 0.4580845270684222, 0.4752614356111735, 0.4917048191855429, 0.5085851092153462, 0.5252810793317622, 0.5416995455889264, 0.5605455732729752, 0.5750931924849283, 0.5919205758691533, 0.6084735274052946, 0.6247312257473823, 0.6418439636472613, 0.6583723391813692, 0.675464255764382, 0.691378231626004, 0.70834829226078, 0.7254115368559724, 0.7419085097499192, 0.7580924801295623, 0.7751809833862353, 0.7914707670424832, 0.8085162623174256, 0.8252494377520634, 0.8417423146311194, 0.8581211862474447, 0.8753417854313739, 0.891873232962098, 0.9086070910707349, 0.9247972054436104, 0.9419157460069982, 0.9585697321454063, 0.9751650089892792, 0.9927143120003166, 1.0084859519265592, 1.0252443860081257, 1.041671726939967, 1.0582059051375836, 1.075311816384783, 1.0918760319036664, 1.108562786015682, 1.1247494870622177, 1.141846523649292, 1.1586998483544448, 1.1751722452463582, 1.191510498218122, 1.2084419882157817, 1.2247884331882233, 1.2418738644337282, 1.2580745601444505, 1.2752559060027124, 1.2913678550976329, 1.3084379263455048, 1.325161203116295, 1.3418486399168614, 1.3581206742528593, 1.375407833402278, 1.391495206495165, 1.4084348884935025, 1.424804885435151, 1.4418558420438785]
23	inanimate/n68.jpg	inanimate	animate	left	2.079	[0.0, 0.0, 0.0, 0.0, 0.0, 0.0, 0.0, 0.0, 0.0, 0.0, 0.0, 0.0, 0.0, 0.0, 0.0, 0.0, 0.0, 0.0, 0.0, 0.0, 0.0, 0.0, 0.0, 0.0, 0.0, 0.0, 0.0, 0.0, 0.0, 0.0, 0.0, 0.0, 0.0, 0.0, 0.0, 0.0, 0.0, 6.0, 18.0, 25.0, 32.0, 34.0, 34.0, 34.0, 18.0, -19.0, -75.0, -132.0, -197.0, -266.0, -409.0, -525.0, -646.0, -749.0, -848.0, -920.0, -960.0, -960.0, -960.0, -960.0, -960.0, -960.0, -960.0, -960.0, -960.0, -960.0, -960.0, -956.0, -927.0, -889.0, -854.0, -831.0, -820.0, -820.0, -820.0, -820.0, -820.0, -820.0, -820.0, -819.0, -829.0, -846.0, -861.0, -877.0, -893.0, -906.0, -921.0, -926.0, -930.0, -932.0, -932.0, -932.0, -932.0, -932.0, -932.0, -932.0, -932.0, -932.0, -932.0, -932.0, -932.0, -932.0, -932.0, -932.0, -932.0, -932.0, -932.0, -932.0, -932.0, -932.0, -932.0, -932.0, -932.0, -932.0, -932.0, -932.0, -932.0, -932.0, -932.0, -932.0, -932.0, -932.0, -932.0, -932.0, -932.0]	[-490.0, -490.0, -490.0, -490.0, -490.0, -490.0, -490.0, -490.0, -490.0, -490.0, -490.0, -490.0, -490.0, -490.0, -490.0, -490.0, -490.0, -490.0, -490.0, -490.0, -490.0, -490.0, -490.0, -490.0, -490.0, -490.0, -490.0, -490.0, -490.0, -490.0, -490.0, -490.0, -490.0, -490.0, -490.0, -490.0, -490.0, -471.0, -432.0, -403.0, -356.0, -301.0, -241.0, -176.0, -111.0, -37.0, 39.0, 104.0, 163.0, 213.0, 291.0, 343.0, 397.0, 441.0, 483.0, 508.0, 528.0, 539.0, 540.0, 540.0, 540.0, 540.0, 540.0, 540.0, 540.0, 540.0, 540.0, 539.0, 527.0, 510.0, 495.0, 484.0, 477.0, 477.0, 477.0, 477.0, 477.0, 477.0, 477.0, 477.0, 470.0, 463.0, 457.0, 450.0, 442.0, 435.0, 427.0, 425.0, 422.0, 422.0, 422.0, 422.0, 422.0, 422.0, 422.0, 422.0, 422.0, 422.0, 422.0, 422.0, 422.0, 422.0, 422.0, 422.0, 422.0, 422.0, 422.0, 422.0, 422.0, 422.0, 422.0, 422.0, 422.0, 422.0, 422.0, 422.0, 422.0, 422.0, 422.0, 422.0, 422.0, 422.0, 422.0, 422.0, 422.0]	[0.003929973448975943, 0.01079793793905992, 0.016964121445198543, 0.03423387260409072, 0.05115648794162553, 0.06757666086195968, 0.08384835386823397, 0.10088633981649764, 0.11743314734485466, 0.13437931466614828, 0.15104183413495775, 0.16748897237994242, 0.18645958666456863, 0.20100754722079728, 0.21766050935548265, 0.23420526889094617, 0.25314038452052046, 0.2677081424044445, 0.2844416591688059, 0.3008652454300318, 0.31813158324803226, 0.3343612922762986, 0.3510210810782155, 0.36758051793731283, 0.38391057890839875, 0.40103219146840274, 0.4172400551760802, 0.43429783843748737, 0.4506217554153409, 0.46768704800342675, 0.4839242663583718, 0.5010315429390175, 0.5172356519760797, 0.5342838779179147, 0.5507723174669081, 0.5676727461541304, 0.5839082578313537, 0.6011459236760857, 0.6172568487672834, 0.6343347706861096, 0.6506149970227852, 0.6677369509125128, 0.6839205799624324, 0.7011114831693703, 0.7172592722345144, 0.734339242146234, 0.750627319139312, 0.7676707664213609, 0.7839264167560032, 0.8010920613014605, 0.8171623677480966, 0.8342638416506816, 0.8505464573245263, 0.8678387364634546, 0.8838097149564419, 0.9010804901190568, 0.9172729938291013, 0.9343311184202321, 0.952199226609082, 0.9676653733476996, 0.9841176315967459, 1.0010463909275131, 1.0174300412036246, 1.0343427578773117, 1.0508397307712585, 1.0677565434452845, 1.0837978365598246, 1.101055299732252, 1.1174713766522473, 1.1344482639688067, 1.1505663570424076, 1.1676797776162857, 1.1841013158700662, 1.2010863951727515, 1.2174744827789254, 1.2343824207928265, 1.2508541350252926, 1.2677562703756848, 1.283808827487519, 1.301090866647428, 1.3171621970832348, 1.3344312655681279, 1.3508302758418722, 1.3676573178963736, 1.3841809147706954, 1.4011011407710612, 1.4174294950789772, 1.4343350437557092, 1.4505319847958162, 1.4676017147139646, 1.4842321488686139, 1.5011339428892825, 1.5171438333491096, 1.5341872806311585, 1.5507951867912197, 1.5677068794611841, 1.5839768658042885, 1.6010670757241314, 1.6174104486854048, 1.6342985893716104, 1.6507617702736752, 1.667659468294005, 1.683983726601582, 1.701049701863667, 1.71744017880701, 1.7343235408188775, 1.7508133457158692, 1.7677421050466364, 1.7840366673772223, 1.8011750052683055, 1.8174016422854038, 1.8343901349289808, 1.8507318012270844, 1.8677155151963234, 1.8840404561778996, 1.9011624100676272, 1.9174446843971964, 1.9343413584138034, 1.950529766123509, 1.967484466775204, 1.9840387836447917, 2.001074038911611, 2.017285998619627, 2.0342847312422236, 2.0508994640695164]
24	inanimate/n41.jpg	inanimate	animate	left	1.06	[0.0, 0.0, 0.0, 0.0, 0.0, 0.0, 0.0, 0.0, 0.0, 0.0, 0.0, 0.0, 0.0, 0.0, 0.0, 0.0, 0.0, 0.0, 0.0, 0.0, 0.0, 0.0, 0.0, 0.0, 0.0, 0.0, 0.0, 0.0, 0.0, 0.0, 0.0, 0.0, 0.0, 0.0, 0.0, -18.0, -53.0, -100.0, -157.0, -216.0, -260.0, -285.0, -299.0, -309.0, -324.0, -354.0, -388.0, -423.0, -459.0, -495.0, -541.0, -589.0, -632.0, -675.0, -703.0, -712.0, -717.0, -723.0, -729.0, -735.0, -740.0, -744.0, -744.0, -744.0]	[-490.0, -490.0, -490.0, -490.0, -490.0, -490.0, -490.0, -490.0, -490.0, -490.0, -490.0, -490.0, -490.0, -490.0, -490.0, -490.0, -490.0, -490.0, -490.0, -490.0, -490.0, -490.0, -490.0, -490.0, -490.0, -490.0, -490.0, -490.0, -490.0, -490.0, -490.0, -490.0, -490.0, -490.0, -490.0, -457.0, -395.0, -318.0, -234.0, -144.0, -65.0, 7.0, 86.0, 126.0, 168.0, 216.0, 261.0, 299.0, 327.0, 353.0, 381.0, 410.0, 438.0, 462.0, 482.0, 488.0, 492.0, 496.0, 499.0, 500.0, 503.0, 503.0, 503.0, 503.0]	[0.01490335664129816, 0.021168868101085536, 0.02798051260469947, 0.045236951773404144, 0.06159773272520397, 0.07890707853948697, 0.09532110746658873, 0.11179384570277762, 0.12973329251690302, 0.14534211652062368, 0.16181860941287596, 0.17885215803107712, 0.19481733386055566, 0.21191368777363095, 0.22879261245543603, 0.24531108934024815, 0.2615206596965436, 0.27876788287539966, 0.2953078637365252, 0.31179425529262517, 0.33073244293336757, 0.3453053208068013, 0.36146642186213285, 0.3784805144823622, 0.39510514597350266, 0.41200830531306565, 0.4283574809523998, 0.44536269891250413, 0.46150570930331014, 0.47861912987718824, 0.49533045999123715, 0.512081384746125, 0.5282267844886519, 0.5453896983672166, 0.561982244529645, 0.5785423640481895, 0.5955318806954892, 0.6120390935684554, 0.6286824983835686, 0.6450098286877619, 0.6616969241440529, 0.6786359234683914, 0.6953308695956366, 0.7119186370982789, 0.7282681540673366, 0.7453566573094577, 0.761916094168555, 0.7785212696617236, 0.7954186263523297, 0.8120770498208003, 0.8286593559896573, 0.845012968959054, 0.8615765018039383, 0.8786475970700849, 0.895319332528743, 0.9118552174040815, 0.9306811064307112, 0.9452444269700209, 0.961780653175083, 0.9788415084331064, 0.9948524228966562, 1.0118538862006972, 1.0288505708304, 1.045267671754118]
25	inanimate/n67.jpg	inanimate	animate	left	1.623	[0.0, 0.0, 0.0, 0.0, 0.0, 0.0, 0.0, 0.0, 0.0, 0.0, 0.0, 0.0, 0.0, 0.0, 0.0, 0.0, 0.0, 0.0, 0.0, 0.0, 0.0, 0.0, 0.0, 0.0, 0.0, 0.0, 0.0, 0.0, 0.0, 0.0, 0.0, 0.0, 0.0, 0.0, 0.0, 0.0, 0.0, 0.0, 0.0, 0.0, 0.0, -12.0, -29.0, -47.0, -94.0, -119.0, -196.0, -254.0, -328.0, -406.0, -480.0, -549.0, -600.0, -652.0, -696.0, -727.0, -748.0, -760.0, -772.0, -780.0, -788.0, -795.0, -801.0, -803.0, -804.0, -805.0, -807.0, -807.0, -807.0, -807.0, -808.0, -808.0, -808.0, -807.0, -806.0, -805.0, -803.0, -803.0, -803.0, -803.0, -803.0, -803.0, -803.0, -803.0, -803.0, -803.0, -803.0, -803.0, -803.0, -803.0, -803.0, -803.0, -803.0, -803.0, -803.0, -803.0, -803.0, -803.0]	[-490.0, -490.0, -490.0, -490.0, -490.0, -490.0, -490.0, -490.0, -490.0, -490.0, -490.0, -490.0, -490.0, -490.0, -490.0, -490.0, -490.0, -490.0, -490.0, -490.0, -490.0, -490.0, -490.0, -490.0, -490.0, -490.0, -490.0, -490.0, -490.0, -490.0, -490.0, -490.0, -490.0, -490.0, -490.0, -490.0, -484.0, -437.0, -382.0, -339.0, -290.0, -226.0, -164.0, -106.0, -2.0, 41.0, 150.0, 217.0, 289.0, 355.0, 410.0, 452.0, 481.0, 508.0, 531.0, 540.0, 540.0, 540.0, 540.0, 540.0, 540.0, 540.0, 540.0, 540.0, 539.0, 539.0, 538.0, 538.0, 538.0, 538.0, 527.0, 513.0, 505.0, 498.0, 489.0, 484.0, 480.0, 480.0, 478.0, 478.0, 478.0, 478.0, 478.0, 478.0, 478.0, 478.0, 478.0, 478.0, 478.0, 478.0, 478.0, 478.0, 478.0, 478.0, 478.0, 478.0, 478.0, 478.0]	[0.008023001748370007, 0.01226406624482479, 0.01719257573131472, 0.031226488543325104, 0.04756678950798232, 0.06471195406629704, 0.08087988178886008, 0.09787656641856302, 0.11422232871700544, 0.13128215998585802, 0.1479965620819712, 0.1644996789691504, 0.18100416118977591, 0.1980977844359586, 0.2141926668700762, 0.23126512745511718, 0.2476252257474698, 0.2647502516483655, 0.28135781647870317, 0.2977332747541368, 0.3146630580886267, 0.33142797750770114, 0.3480253023444675, 0.36444410993135534, 0.38096941346884705, 0.39812072202039417, 0.41414358315523714, 0.43128089704259764, 0.4481338804180268, 0.46448920005059335, 0.48341714768321253, 0.4979968522238778, 0.5146477663656697, 0.5315243017248577, 0.5475884641637094, 0.5645759328035638, 0.5816002654173644, 0.5980433076620102, 0.6142576566926436, 0.6314338825759478, 0.6476342369423946, 0.6647514121723361, 0.6809780492039863, 0.6992997891502455, 0.7142436961730709, 0.7314499593630899, 0.7475014924712013, 0.7646060383849544, 0.7813054218277102, 0.7980693172576139, 0.8141505463572685, 0.8314261001796694, 0.8477759584638989, 0.8647531871101819, 0.8812218293460319, 0.8979887967579998, 0.9144004363624845, 0.9315012276056223, 0.9477817952720216, 0.9646794932777993, 0.9811477941839257, 0.9980605108576128, 1.0141577826143475, 1.0313947657850804, 1.047786266732146, 1.0647860233584652, 1.081082292352221, 1.09803221434413, 1.1144469259306788, 1.1314067465864355, 1.1477876661956543, 1.1646911668794928, 1.1811482037883252, 1.1979906058259076, 1.214129178901203, 1.2313753780617844, 1.2477365003578598, 1.2646922250132775, 1.281170083238976, 1.2980449119349942, 1.3144432395347394, 1.3314412894978886, 1.347788758459501, 1.3647045471298043, 1.3810707894153893, 1.3980227594147436, 1.4144238176813815, 1.431543382248492, 1.4476723979896633, 1.4646223199815722, 1.4809520396083826, 1.4979876362194773, 1.5143736758327577, 1.5315178163873497, 1.547729093421367, 1.5647411380487029, 1.5812664415861946, 1.5981293236254714]
26	animate/a57.jpg	inanimate	animate	right	1.39	[0.0, 0.0, 0.0, 0.0, 0.0, 0.0, 0.0, 0.0, 0.0, 0.0, 0.0, 0.0, 0.0, 0.0, 0.0, 0.0, 0.0, 0.0, 0.0, 0.0, 0.0, 0.0, 0.0, 0.0, 0.0, 0.0, 0.0, 0.0, 0.0, 0.0, 0.0, 0.0, 0.0, 0.0, -22.0, -42.0, -89.0, -161.0, -198.0, -226.0, -242.0, -256.0, -273.0, -292.0, -307.0, -311.0, -308.0, -281.0, -229.0, -122.0, -35.0, 57.0, 148.0, 240.0, 321.0, 390.0, 446.0, 496.0, 526.0, 550.0, 570.0, 600.0, 625.0, 652.0, 675.0, 690.0, 695.0, 697.0, 698.0, 704.0, 714.0, 721.0, 725.0, 732.0, 743.0, 755.0, 765.0, 774.0, 777.0, 777.0, 777.0, 777.0, 777.0]	[-490.0, -490.0, -490.0, -490.0, -490.0, -490.0, -490.0, -490.0, -490.0, -490.0, -490.0, -490.0, -490.0, -490.0, -490.0, -490.0, -490.0, -490.0, -490.0, -490.0, -490.0, -490.0, -490.0, -490.0, -490.0, -490.0, -490.0, -490.0, -490.0, -490.0, -490.0, -490.0, -490.0, -490.0, -428.0, -381.0, -303.0, -187.0, -114.0, -46.0, 3.0, 52.0, 105.0, 155.0, 199.0, 221.0, 245.0, 282.0, 317.0, 366.0, 392.0, 417.0, 442.0, 469.0, 491.0, 512.0, 527.0, 540.0, 540.0, 540.0, 540.0, 540.0, 540.0, 540.0, 540.0, 540.0, 540.0, 540.0, 540.0, 540.0, 540.0, 539.0, 537.0, 535.0, 530.0, 527.0, 524.0, 523.0, 522.0, 522.0, 522.0, 522.0, 522.0]	[0.007085803299560212, 0.014041149071999826, 0.02959228777035605, 0.04591757008165587, 0.06307263330381829, 0.07964401681965683, 0.09625499497633427, 0.1150726920022862, 0.12962031122879125, 0.14630058001785073, 0.16282690755906515, 0.18200846573745366, 0.19630691174825188, 0.2130298471893184, 0.22943943878635764, 0.2458722410374321, 0.26286756033368874, 0.2796952850476373, 0.29653700442577247, 0.31255338023765944, 0.32967294480476994, 0.34616206702776253, 0.36291606377926655, 0.3794696979748551, 0.3964397586096311, 0.41303128078288864, 0.4294893416954437, 0.4485831772472011, 0.4629150739056058, 0.4791359082737472, 0.4963097448198823, 0.5125237525062403, 0.5295480851345928, 0.5465427217568504, 0.5630349159910111, 0.5793001236597775, 0.5961589096841635, 0.6126022932730848, 0.6297730578080518, 0.6459491775312927, 0.663076934099081, 0.6792168724932708, 0.6963589650549693, 0.7125951594061917, 0.7295990120328497, 0.7460574142751284, 0.7630288402579026, 0.7792653759388486, 0.796333399208379, 0.8125801748828962, 0.8296280594950076, 0.845969043119112, 0.8631469756655861, 0.8791510634619044, 0.8963863399694674, 0.9125348117086105, 0.9296847549267113, 0.9460697705362691, 0.9630913724831771, 0.9792514495493378, 0.9964792167302221, 1.0126396351261064, 1.0296796690672636, 1.0459332714090124, 1.0630139239947312, 1.079161030400428, 1.0963249682681635, 1.1125444373028586, 1.1296547858801205, 1.1459800681768684, 1.16296480614983, 1.1792508351500146, 1.1964649489964359, 1.2127680446574232, 1.2296432146831648, 1.2462070888723247, 1.2630907922284678, 1.2794563518400537, 1.2965025297889952, 1.3127547667972976, 1.329639152812888, 1.3462050749949412, 1.3630522557068616]
27	inanimate/n24.jpg	inanimate	animate	left	1.164	[0.0, 0.0, 0.0, 0.0, 0.0, 0.0, 0.0, 0.0, 0.0, 0.0, 0.0, 0.0, 0.0, 0.0, 0.0, 0.0, 0.0, 0.0, 0.0, 0.0, 0.0, 0.0, 0.0, 0.0, 0.0, 0.0, 0.0, 0.0, 0.0, 0.0, 0.0, 0.0, 0.0, 0.0, 2.0, 48.0, 115.0, 193.0, 271.0, 351.0, 441.0, 520.0, 568.0, 568.0, 547.0, 507.0, 437.0, 352.0, 257.0, 135.0, 0.0, -146.0, -289.0, -405.0, -536.0, -588.0, -629.0, -658.0, -681.0, -698.0, -706.0, -714.0, -719.0, -721.0, -723.0, -727.0, -730.0, -730.0, -730.0, -730.0]	[-490.0, -490.0, -490.0, -490.0, -490.0, -490.0, -490.0, -490.0, -490.0, -490.0, -490.0, -490.0, -490.0, -490.0, -490.0, -490.0, -490.0, -490.0, -490.0, -490.0, -490.0, -490.0, -490.0, -490.0, -490.0, -490.0, -490.0, -490.0, -490.0, -490.0, -490.0, -490.0, -490.0, -490.0, -490.0, -428.0, -335.0, -234.0, -125.0, -9.0, 116.0, 234.0, 343.0, 370.0, 394.0, 411.0, 427.0, 432.0, 432.0, 432.0, 432.0, 432.0, 432.0, 432.0, 428.0, 428.0, 428.0, 428.0, 429.0, 432.0, 433.0, 434.0, 436.0, 436.0, 437.0, 439.0, 440.0, 440.0, 440.0, 440.0]	[5.584211612585932e-05, 0.008563571085687727, 0.015165295713813975, 0.03195786311698612, 0.04817630814795848, 0.06518698742729612, 0.08169010431447532, 0.09869498094485607, 0.11514621519017965, 0.13202991854632273, 0.14830229421204422, 0.16530136817891616, 0.18162323714932427, 0.19867863108811434, 0.21514215331990272, 0.232020054012537, 0.24816716041823383, 0.2654157489159843, 0.281513020672719, 0.29855817461793777, 0.31485751560830977, 0.33194943219132256, 0.34809073591895867, 0.36516934051178396, 0.38169259605638217, 0.39857834740541875, 0.41503674964769743, 0.43198837830277625, 0.44971141988935415, 0.4652584626019234, 0.48167556352564134, 0.4987145734630758, 0.5151511303847656, 0.5321235803567106, 0.548095241523697, 0.5652291420847178, 0.5816889096458908, 0.5986801329563605, 0.6150904072128469, 0.6320208732213359, 0.6483639048528858, 0.6654046214534901, 0.681716933104326, 0.6986545670952182, 0.7150515293760691, 0.7320502619986655, 0.7480854111199733, 0.765279727653251, 0.7816828339273343, 0.7986825905536534, 0.8151198301347904, 0.8320130908250576, 0.8483281331282342, 0.8652872711099917, 0.8817132467083866, 0.8986686300195288, 0.915102456274326, 0.9320721755939303, 0.9481052767077927, 0.9653818545339163, 0.9817583368130727, 0.9986611548229121, 1.0150625544338254, 1.0319469404494157, 1.0483462920528837, 1.065352192686987, 1.0816972723114304, 1.0986359303060453, 1.11510081787128, 1.1319817905750824]
28	animate/a31.jpg	inanimate	animate	right	1.375	[0.0, 0.0, 0.0, 0.0, 0.0, 0.0, 0.0, 0.0, 0.0, 0.0, 0.0, 0.0, 0.0, 0.0, 0.0, 0.0, 0.0, 0.0, 0.0, 0.0, 0.0, 0.0, 0.0, 0.0, 0.0, 0.0, 0.0, 0.0, 0.0, 0.0, 0.0, 0.0, -1.0, -1.0, 15.0, 34.0, 58.0, 87.0, 98.0, 101.0, 101.0, 101.0, 116.0, 155.0, 215.0, 289.0, 355.0, 412.0, 485.0, 526.0, 558.0, 577.0, 592.0, 601.0, 606.0, 611.0, 618.0, 622.0, 622.0, 622.0, 622.0, 622.0, 622.0, 622.0, 622.0, 622.0, 622.0, 622.0, 622.0, 622.0, 634.0, 656.0, 677.0, 696.0, 705.0, 714.0, 721.0, 726.0, 726.0, 726.0, 726.0, 726.0]	[-490.0, -490.0, -490.0, -490.0, -490.0, -490.0, -490.0, -490.0, -490.0, -490.0, -490.0, -490.0, -490.0, -490.0, -490.0, -490.0, -490.0, -490.0, -490.0, -490.0, -490.0, -490.0, -490.0, -490.0, -490.0, -490.0, -490.0, -490.0, -490.0, -490.0, -490.0, -490.0, -490.0, -461.0, -409.0, -359.0, -312.0, -243.0, -203.0, -163.0, -114.0, -59.0, 0.0, 64.0, 129.0, 187.0, 234.0, 276.0, 334.0, 370.0, 398.0, 414.0, 428.0, 435.0, 439.0, 443.0, 447.0, 449.0, 450.0, 450.0, 450.0, 450.0, 450.0, 450.0, 450.0, 450.0, 450.0, 450.0, 450.0, 450.0, 451.0, 451.0, 453.0, 458.0, 463.0, 468.0, 473.0, 476.0, 476.0, 476.0, 476.0, 476.0]	[0.015200214082142338, 0.020918568479828537, 0.028755919134709984, 0.04580585173971485, 0.06246700587507803, 0.08159565742244013, 0.09587430610554293, 0.11208558313956019, 0.12911196376080625, 0.14606666441250127, 0.16256500262534246, 0.17881723963364493, 0.19570060166006442, 0.21210882792365737, 0.22915090987225994, 0.24587794129911344, 0.262253399589099, 0.27871658049116377, 0.29582419840153307, 0.31253723517875187, 0.3291147626878228, 0.3454093250184087, 0.3625609748996794, 0.3790518037858419, 0.3960880830709357, 0.4120068375777919, 0.42901376220106613, 0.44596095352608245, 0.4623995584406657, 0.481752124542254, 0.49588604796736035, 0.5125386687723221, 0.5291598869371228, 0.5454981398943346, 0.562532371171983, 0.579021152065252, 0.5960304660256952, 0.6120092951750848, 0.6291503637330607, 0.6460408937564353, 0.662425909365993, 0.6816504755261121, 0.6958161429356551, 0.7125366890395526, 0.7290906645648647, 0.7454067308863159, 0.7624269674997777, 0.7791539989411831, 0.7956994411360938, 0.813056232247618, 0.8291965119860834, 0.84587746343459, 0.8625078975892393, 0.8787526252708631, 0.8960148671030765, 0.9120571842213394, 0.9292279487708583, 0.94586452691874, 0.9622447638539597, 0.978834920693771, 0.9959012373001315, 1.0125088021304691, 1.0290849643060938, 1.0454262892744737, 1.0627127657498932, 1.0790503360476578, 1.096037122028065, 1.1120323351642583, 1.12911059842736, 1.1458348991873208, 1.1624052587139886, 1.1787796930002514, 1.1960214548307704, 1.2125273023848422, 1.2290754752466455, 1.2453529709018767, 1.2625756180932513, 1.2790370923321461, 1.296051526282099, 1.3120593687490327, 1.3290949653601274, 1.3460110953747062]
29	inanimate/n67.jpg	animate	inanimate	right	1.679	[0.0, 0.0, 0.0, 0.0, 0.0, 0.0, 0.0, 0.0, 0.0, 0.0, 0.0, 0.0, 0.0, 0.0, 0.0, 0.0, 0.0, 0.0, 0.0, 0.0, 0.0, 0.0, 0.0, 0.0, 0.0, 0.0, 0.0, 0.0, 1.0, 8.0, 20.0, 34.0, 43.0, 46.0, 46.0, 46.0, 46.0, 46.0, 32.0, -12.0, -112.0, -151.0, -262.0, -331.0, -415.0, -500.0, -581.0, -656.0, -694.0, -716.0, -726.0, -734.0, -739.0, -739.0, -741.0, -741.0, -728.0, -659.0, -559.0, -440.0, -321.0, -186.0, -57.0, 60.0, 187.0, 355.0, 445.0, 494.0, 526.0, 544.0, 549.0, 549.0, 549.0, 549.0, 549.0, 549.0, 551.0, 566.0, 591.0, 629.0, 670.0, 708.0, 749.0, 777.0, 802.0, 822.0, 839.0, 850.0, 853.0, 853.0, 853.0, 853.0, 853.0, 853.0, 853.0, 853.0, 853.0, 853.0, 853.0, 853.0, 853.0]	[-490.0, -490.0, -490.0, -490.0, -490.0, -490.0, -490.0, -490.0, -490.0, -490.0, -490.0, -490.0, -490.0, -490.0, -490.0, -490.0, -490.0, -490.0, -490.0, -490.0, -490.0, -490.0, -490.0, -490.0, -490.0, -490.0, -490.0, -490.0, -488.0, -467.0, -426.0, -382.0, -332.0, -279.0, -219.0, -148.0, -78.0, -4.0, 70.0, 154.0, 276.0, 309.0, 385.0, 421.0, 445.0, 460.0, 471.0, 478.0, 478.0, 476.0, 473.0, 471.0, 469.0, 469.0, 468.0, 468.0, 468.0, 468.0, 468.0, 468.0, 468.0, 468.0, 479.0, 495.0, 499.0, 501.0, 501.0, 501.0, 501.0, 501.0, 501.0, 501.0, 501.0, 501.0, 501.0, 501.0, 501.0, 501.0, 501.0, 501.0, 501.0, 501.0, 501.0, 501.0, 501.0, 501.0, 501.0, 501.0, 501.0, 501.0, 501.0, 501.0, 501.0, 501.0, 501.0, 501.0, 501.0, 501.0, 501.0, 501.0, 501.0]	[5.993810191284865e-05, 0.008090483315754682, 0.014945477145374753, 0.03201452440407593, 0.04829031341068912, 0.0653590193396667, 0.08162013100809418, 0.09867211160599254, 0.11493288194469642, 0.13206814783916343, 0.14831219286134, 0.16533516014169436, 0.18162255447532516, 0.1988267696578987, 0.21495339607645292, 0.2320302939915564, 0.248323490988696, 0.2654689968767343, 0.28161951660877094, 0.2986779825441772, 0.3149462622095598, 0.3320330588030629, 0.3483648264373187, 0.36537038572714664, 0.3817673479934456, 0.39873536064988, 0.4150353842996992, 0.43201705027604476, 0.44867240174789913, 0.46545438781322446, 0.481780694128247, 0.498741880102898, 0.5150890077347867, 0.5321423536806833, 0.5485690119239734, 0.5653581660008058, 0.5817711709241848, 0.5988231515366351, 0.6151177138526691, 0.6320925531617831, 0.6483284061832819, 0.6654650374111952, 0.6817421917512547, 0.6988996442960342, 0.7151754332880955, 0.7320444593206048, 0.7484591709217057, 0.7653940742457053, 0.7817835271853255, 0.7987597318278858, 0.8150880861358019, 0.832018552129739, 0.8485199623537483, 0.8655176709871739, 0.8817504520120565, 0.8987836592859821, 0.9151147442607908, 0.9321298608847428, 0.9481721780030057, 0.9654081371700158, 0.9817467314715032, 0.9988307973981136, 1.01511375438713, 1.0321469616756076, 1.0499194965668721, 1.0653743793227477, 1.0817795335897245, 1.098850628855871, 1.1149465352791594, 1.132079753166181, 1.148488662103773, 1.165467597413226, 1.1818184797011781, 1.1987759110197658, 1.2151749212935101, 1.232073301973287, 1.248606456181733, 1.2653631836001296, 1.2818058845150517, 1.2988421637855936, 1.3149561608734075, 1.332064461443224, 1.3482583304867148, 1.3653669724008068, 1.3818141106457915, 1.3988589232467348, 1.4149811123206746, 1.4321228635526495, 1.4485932124516694, 1.4654598491470097, 1.4817711367941229, 1.4987220827897545, 1.5148278878768906, 1.5319689564348664, 1.5481846707989462, 1.565392640652135, 1.5817773149319692, 1.5987729755579494, 1.6148999433062272, 1.6320068785425974, 1.648244438227266]
30	animate/a42.jpg	inanimate	animate	right	1.115	[0.0, 0.0, 0.0, 0.0, 0.0, 0.0, 0.0, 0.0, 0.0, 0.0, 0.0, 0.0, 0.0, 0.0, 0.0, 0.0, 0.0, 0.0, 0.0, 0.0, 0.0, 0.0, 0.0, 0.0, 0.0, 0.0, 0.0, 0.0, 0.0, 0.0, 0.0, 0.0, 0.0, 0.0, 0.0, 0.0, 0.0, 2.0, 6.0, 13.0, 19.0, 29.0, 49.0, 68.0, 105.0, 145.0, 204.0, 289.0, 407.0, 480.0, 554.0, 627.0, 687.0, 735.0, 777.0, 799.0, 819.0, 833.0, 857.0, 872.0, 882.0, 891.0, 897.0, 902.0, 903.0, 903.0, 903.0]	[-490.0, -490.0, -490.0, -490.0, -490.0, -490.0, -490.0, -490.0, -490.0, -490.0, -490.0, -490.0, -490.0, -490.0, -490.0, -490.0, -490.0, -490.0, -490.0, -490.0, -490.0, -490.0, -490.0, -490.0, -490.0, -490.0, -490.0, -490.0, -490.0, -490.0, -490.0, -490.0, -490.0, -490.0, -490.0, -490.0, -490.0, -488.0, -449.0, -403.0, -356.0, -299.0, -238.0, -185.0, -126.0, -69.0, -4.0, 57.0, 131.0, 174.0, 215.0, 250.0, 277.0, 308.0, 330.0, 344.0, 357.0, 366.0, 385.0, 397.0, 405.0, 419.0, 431.0, 441.0, 448.0, 449.0, 449.0]	[0.015398187315440737, 0.02110084040032234, 0.029283278869115748, 0.04593726500752382, 0.0630052882770542, 0.07926537595631089, 0.09643340982438531, 0.11261567354085855, 0.12971168612421025, 0.14658412548305932, 0.1628640104754595, 0.1821937072527362, 0.1964491452818038, 0.21260546767734922, 0.22959600831381977, 0.2461694398225518, 0.2629026152571896, 0.28224869602127, 0.2963358568085823, 0.31252528852201067, 0.3297035623982083, 0.3457523648394272, 0.3629040147206979, 0.37990752601763234, 0.39619969901104923, 0.4155355397815583, 0.4297851751471171, 0.4464186812983826, 0.4627268969488796, 0.47917778986447956, 0.49627243711438496, 0.5128363112889929, 0.529885219904827, 0.5459152490220731, 0.5629945362743456, 0.5798673169774702, 0.5961656339641195, 0.6125895615550689, 0.6297203901194734, 0.6464044135791482, 0.6627344745502342, 0.6792055061087012, 0.6963865106517915, 0.7128473022166872, 0.7298504721838981, 0.7463873810484074, 0.7627211966901086, 0.7795680360577535, 0.7964650514040841, 0.8125886058260221, 0.8297211410535965, 0.8466208870668197, 0.8628632254112745, 0.8792642836779123, 0.8964466535544489, 0.9126401812682161, 0.9298723857791629, 0.9463966653129319, 0.9628987581963884, 0.9792786538164364, 0.9963886610494228, 1.0126077887398424, 1.0296177853742847, 1.0459795903298073, 1.0631124668871053, 1.0793312532478012, 1.0963589992024936]
31	animate/a54.jpg	inanimate	animate	right	0.994	[0.0, 0.0, 0.0, 0.0, 0.0, 0.0, 0.0, 0.0, 0.0, 0.0, 0.0, 0.0, 0.0, 0.0, 0.0, 0.0, 0.0, 0.0, 0.0, 0.0, 0.0, 0.0, 0.0, 0.0, 0.0, 0.0, 0.0, 0.0, 0.0, 0.0, 0.0, 0.0, 0.0, 0.0, 0.0, 0.0, 0.0, 0.0, 27.0, 77.0, 146.0, 229.0, 323.0, 424.0, 535.0, 633.0, 713.0, 789.0, 811.0, 847.0, 857.0, 861.0, 863.0, 863.0, 863.0, 863.0, 863.0, 863.0, 863.0, 863.0]	[-490.0, -490.0, -490.0, -490.0, -490.0, -490.0, -490.0, -490.0, -490.0, -490.0, -490.0, -490.0, -490.0, -490.0, -490.0, -490.0, -490.0, -490.0, -490.0, -490.0, -490.0, -490.0, -490.0, -490.0, -490.0, -490.0, -490.0, -490.0, -490.0, -490.0, -490.0, -490.0, -490.0, -490.0, -490.0, -490.0, -490.0, -490.0, -462.0, -391.0, -308.0, -209.0, -109.0, -6.0, 99.0, 195.0, 272.0, 355.0, 381.0, 423.0, 438.0, 443.0, 445.0, 445.0, 445.0, 445.0, 445.0, 445.0, 445.0, 445.0]	[0.004795594344614074, 0.012616902342415415, 0.017798339686123654, 0.03504010153119452, 0.051132594628143124, 0.06826342317799572, 0.08451702553429641, 0.10154579547815956, 0.11771304052672349, 0.13487356508267112, 0.1511623247351963, 0.16812590006156825, 0.1845382223255001, 0.20158269359671976, 0.2177994319499703, 0.2348534605553141, 0.2511323215585435, 0.26819488347973675, 0.28449320048093796, 0.3015485944051761, 0.3177926394273527, 0.33496818263665773, 0.35112723568454385, 0.36822802694223356, 0.38452668525860645, 0.40166160982334986, 0.4178059855476022, 0.43483441416174173, 0.451034427198465, 0.4681792504270561, 0.4845038500643568, 0.5016060066409409, 0.5177985103509855, 0.5349600588961039, 0.5511331066227285, 0.568255060527008, 0.5844844282109989, 0.6015149048325839, 0.617812539145234, 0.634912306399201, 0.6511416740831919, 0.668197068021982, 0.6844288250431418, 0.7016187042463571, 0.7178122319455724, 0.7348683085438097, 0.7515629133413313, 0.7679619236005237, 0.7848114936496131, 0.8016521890240256, 0.818015700642718, 0.8350632439105539, 0.8511185316892806, 0.8681612962973304, 0.885069575640955, 0.9013395619840594, 0.9177798735618126, 0.9350270967406686, 0.9515855095960433, 0.9678896292462014]
32	animate/a77.jpg	inanimate	animate	right	1.056	[0.0, 0.0, 0.0, 0.0, 0.0, 0.0, 0.0, 0.0, 0.0, 0.0, 0.0, 0.0, 0.0, 0.0, 0.0, 0.0, 0.0, 0.0, 0.0, 0.0, 0.0, 0.0, 0.0, 0.0, 0.0, 0.0, 0.0, 0.0, 0.0, 0.0, 0.0, 15.0, 31.0, 53.0, 80.0, 115.0, 156.0, 206.0, 290.0, 353.0, 422.0, 482.0, 540.0, 585.0, 634.0, 675.0, 713.0, 736.0, 756.0, 768.0, 770.0, 770.0, 770.0, 770.0, 770.0, 770.0, 770.0, 770.0, 770.0, 770.0, 770.0, 770.0, 770.0, 770.0]	[-490.0, -490.0, -490.0, -490.0, -490.0, -490.0, -490.0, -490.0, -490.0, -490.0, -490.0, -490.0, -490.0, -490.0, -490.0, -490.0, -490.0, -490.0, -490.0, -490.0, -490.0, -490.0, -490.0, -490.0, -490.0, -490.0, -490.0, -490.0, -490.0, -490.0, -483.0, -446.0, -406.0, -366.0, -318.0, -255.0, -178.0, -97.0, 27.0, 112.0, 195.0, 263.0, 323.0, 367.0, 411.0, 447.0, 476.0, 490.0, 502.0, 509.0, 511.0, 511.0, 511.0, 511.0, 511.0, 511.0, 511.0, 511.0, 511.0, 511.0, 511.0, 511.0, 511.0, 511.0]	[0.009176707826554775, 0.017970815315493383, 0.03342911141226068, 0.038376394208171405, 0.04971548172761686, 0.06580695083539467, 0.08323508057219442, 0.09943748294608667, 0.11652598618820775, 0.13275569521647412, 0.1500206677155802, 0.16607971015037037, 0.1832439893623814, 0.19944434374338016, 0.21649803100444842, 0.23289635861874558, 0.2498913365707267, 0.26625553086341824, 0.2833242367923958, 0.29968023908440955, 0.31659090776520316, 0.33290048874914646, 0.3499115093727596, 0.36628184765868355, 0.38325873496069107, 0.39974000652728137, 0.4165827498945873, 0.43292578152613714, 0.44988901550823357, 0.466257305801264, 0.48325433176069055, 0.49935023818397895, 0.5164779947517673, 0.5328923650085926, 0.5499672149453545, 0.566137190660811, 0.5832721152255544, 0.5993465176579775, 0.6165029461990343, 0.6329302871308755, 0.6498419798008399, 0.6662700033921283, 0.683234602707671, 0.6993738584424136, 0.7164865963422926, 0.7328811692859745, 0.749808904613019, 0.7662761815154226, 0.7832779861491872, 0.7995107671740698, 0.8165839104331098, 0.8329532247153111, 0.8498464854055783, 0.8662376450083684, 0.8832025856536347, 0.8996824918867787, 0.9165504939155653, 0.9329047895444091, 0.9500124074547784, 0.9662707884563133, 0.9832794197427575, 0.9993708888505353, 1.0164747520902893, 1.0329273516690591]
33	inanimate/n69.jpg	animate	inanimate	right	1.188	[0.0, 0.0, 0.0, 0.0, 0.0, 0.0, 0.0, 0.0, 0.0, 0.0, 0.0, 0.0, 0.0, 0.0, 0.0, 0.0, 0.0, 0.0, 0.0, 0.0, 0.0, 0.0, 0.0, 0.0, 0.0, 0.0, 0.0, 0.0, 0.0, 0.0, 0.0, 0.0, 0.0, 0.0, 0.0, 0.0, 0.0, -2.0, -36.0, -87.0, -169.0, -269.0, -455.0, -571.0, -667.0, -720.0, -739.0, -743.0, -742.0, -704.0, -625.0, -485.0, -312.0, -100.0, 231.0, 335.0, 639.0, 824.0, 959.0, 959.0, 959.0, 959.0, 959.0, 959.0, 959.0, 959.0, 959.0, 959.0, 959.0, 959.0, 959.0, 959.0]	[-490.0, -490.0, -490.0, -490.0, -490.0, -490.0, -490.0, -490.0, -490.0, -490.0, -490.0, -490.0, -490.0, -490.0, -490.0, -490.0, -490.0, -490.0, -490.0, -490.0, -490.0, -490.0, -490.0, -490.0, -490.0, -490.0, -490.0, -490.0, -490.0, -490.0, -490.0, -490.0, -490.0, -490.0, -490.0, -430.0, -365.0, -299.0, -223.0, -142.0, -67.0, -2.0, 96.0, 145.0, 187.0, 213.0, 228.0, 235.0, 248.0, 284.0, 340.0, 395.0, 449.0, 501.0, 540.0, 540.0, 540.0, 540.0, 540.0, 540.0, 540.0, 540.0, 540.0, 540.0, 540.0, 540.0, 540.0, 540.0, 540.0, 540.0, 540.0, 540.0]	[0.003369948157342151, 0.014948992888093926, 0.02142681357508991, 0.03814087435603142, 0.05522357493464369, 0.07134200935252011, 0.08870460312755313, 0.10525550665624905, 0.12176579154038336, 0.13828631641808897, 0.15517684642691165, 0.1721438350796234, 0.1887025892647216, 0.2049841809348436, 0.22165045505971648, 0.23873588631977327, 0.2548867473815335, 0.27195272264361847, 0.28821656497893855, 0.30532008688896894, 0.3215392145793885, 0.33858334452088457, 0.35487688284774777, 0.37192886346019804, 0.38821113778976724, 0.4052740410406841, 0.42150716339529026, 0.43862365596578456, 0.45487964764470235, 0.47197770822094753, 0.48812481462664437, 0.5052409658674151, 0.5218570640281541, 0.5387964046822162, 0.5547899111552397, 0.5720152890135068, 0.5883607099676738, 0.6053932345821522, 0.6217953168525128, 0.6386721935414243, 0.655070179811446, 0.6720508217840688, 0.6884143334173132, 0.7053570873977151, 0.7214806418196531, 0.7387736036325805, 0.7548077287501656, 0.7719610853091581, 0.7883836475666612, 0.8053789668629179, 0.8217684198025381, 0.8387063951231539, 0.8550678587489529, 0.8720805860357359, 0.8881174418347655, 0.9052735290460987, 0.9217530939495191, 0.9387900558795081, 0.9548176956741372, 0.9720891535107512, 0.9881089426344261, 1.0051349819113966, 1.02179101605725, 1.0386614074232057, 1.0550802150100935, 1.0720632463198854, 1.088491952570621, 1.1053302586224163, 1.1217849061940797, 1.1386580282269279, 1.1550215398456203, 1.1720045711408602]
34	inanimate/n28.jpg	inanimate	animate	right	1.309	[0.0, 0.0, 0.0, 0.0, 0.0, 0.0, 0.0, 0.0, 0.0, 0.0, 0.0, 0.0, 0.0, 0.0, 0.0, 0.0, 0.0, 0.0, 0.0, 0.0, 0.0, 0.0, 0.0, 0.0, 0.0, 0.0, 0.0, 0.0, 0.0, 0.0, 0.0, 0.0, 0.0, 0.0, 15.0, 28.0, 72.0, 110.0, 152.0, 207.0, 266.0, 329.0, 393.0, 453.0, 520.0, 619.0, 679.0, 724.0, 766.0, 789.0, 801.0, 809.0, 811.0, 811.0, 811.0, 811.0, 811.0, 811.0, 811.0, 811.0, 811.0, 811.0, 811.0, 811.0, 811.0, 811.0, 811.0, 811.0, 811.0, 811.0, 811.0, 811.0, 811.0, 811.0, 811.0, 811.0, 811.0, 811.0, 811.0]	[-490.0, -490.0, -490.0, -490.0, -490.0, -490.0, -490.0, -490.0, -490.0, -490.0, -490.0, -490.0, -490.0, -490.0, -490.0, -490.0, -490.0, -490.0, -490.0, -490.0, -490.0, -490.0, -490.0, -490.0, -490.0, -490.0, -490.0, -490.0, -490.0, -490.0, -490.0, -490.0, -490.0, -487.0, -417.0, -393.0, -316.0, -259.0, -192.0, -115.0, -31.0, 44.0, 119.0, 187.0, 257.0, 353.0, 406.0, 445.0, 474.0, 490.0, 501.0, 507.0, 508.0, 508.0, 508.0, 508.0, 508.0, 508.0, 508.0, 508.0, 508.0, 508.0, 508.0, 508.0, 508.0, 508.0, 508.0, 508.0, 508.0, 508.0, 508.0, 508.0, 508.0, 508.0, 508.0, 508.0, 508.0, 508.0, 508.0]	[0.016534826732822694, 0.024589606618974358, 0.048612634316668846, 0.05313495732843876, 0.06463925010757521, 0.0817475506773917, 0.09801753702049609, 0.11518557088857051, 0.13174364241422154, 0.1481771273392951, 0.1648625161324162, 0.18172437415341847, 0.19838655229250435, 0.21489717850636225, 0.2312791221193038, 0.24845329999516252, 0.26503628883801866, 0.28189405087323394, 0.29801487461372744, 0.315261756448308, 0.3315884040930541, 0.3486038620467298, 0.36464890983188525, 0.38176233040576335, 0.39829104726959486, 0.4152597425854765, 0.43132834235439077, 0.44834721364895813, 0.4651438770524692, 0.48156439130252693, 0.4992079022777034, 0.5151723954331828, 0.5315898377011763, 0.5486291889683343, 0.5646513674291782, 0.5818992732674815, 0.5979695797141176, 0.615169016236905, 0.6315536905167392, 0.6486449244257528, 0.6646971402078634, 0.6817627741402248, 0.6979644938401179, 0.7150792797474423, 0.7317868551908759, 0.7482131721189944, 0.7651627527666278, 0.7817204829625553, 0.7984563890640857, 0.8149748659343459, 0.8314438494999195, 0.8485712647379842, 0.8651375282497611, 0.8818744583550142, 0.8980290740728378, 0.9150708146917168, 0.9317746354645351, 0.9481818377389573, 0.9649802078056382, 0.9817847218655515, 0.9984615773282712, 1.0149913181958254, 1.0313340084976517, 1.0484347997407895, 1.0651147272001253, 1.0818755506188609, 1.09803221434413, 1.1150903389352607, 1.13181259171688, 1.1481737139984034, 1.1648816307861125, 1.1817185714899097, 1.1986538161581848, 1.215010159779922, 1.2315067913295934, 1.2486413745646132, 1.2651393714477308, 1.2819264775171177, 1.2979582133120857]
