trialIndex	stimulus	isAnimate	left_option	right_option	response	response_time	xTrajectory	yTrajectory	tTrajectory
0	大象	True	animate	inanimate	left	1.318	[0.0, 0.0, 0.0, 0.0, 0.0, 0.0, 0.0, 0.0, 0.0, 0.0, 0.0, 0.0, 0.0, 0.0, 0.0, 0.0, 0.0, 0.0, 0.0, 0.0, 0.0, 0.0, 0.0, 0.0, 0.0, 0.0, 0.0, 0.0, 0.0, 0.0, 0.0, 0.0, 0.0, 0.0, 0.0, 0.0, 0.0, 0.0, 0.0, 0.0, 0.0, 0.0, 0.0, 0.0, 0.0, 0.0, -4.0, -19.0, -26.0, -45.0, -67.0, -104.0, -151.0, -224.0, -255.0, -350.0, -437.0, -524.0, -623.0, -712.0, -790.0, -851.0, -899.0, -919.0, -929.0, -930.0, -930.0, -930.0, -930.0, -930.0, -930.0, -930.0, -930.0, -930.0, -930.0, -930.0, -930.0, -930.0, -930.0]	[-490.0, -490.0, -490.0, -490.0, -490.0, -490.0, -490.0, -490.0, -490.0, -490.0, -490.0, -490.0, -490.0, -490.0, -490.0, -490.0, -490.0, -490.0, -490.0, -490.0, -490.0, -490.0, -490.0, -490.0, -490.0, -490.0, -490.0, -490.0, -490.0, -490.0, -490.0, -490.0, -490.0, -490.0, -490.0, -490.0, -490.0, -490.0, -490.0, -490.0, -490.0, -490.0, -490.0, -490.0, -470.0, -445.0, -359.0, -259.0, -225.0, -162.0, -104.0, -37.0, 33.0, 116.0, 141.0, 208.0, 250.0, 288.0, 347.0, 402.0, 454.0, 491.0, 518.0, 529.0, 536.0, 536.0, 536.0, 536.0, 536.0, 536.0, 536.0, 536.0, 536.0, 536.0, 536.0, 536.0, 536.0, 536.0, 536.0]	[0.0097198371659033, 0.014109722920693457, 0.01979940533055924, 0.03610523165843915, 0.052529841908835806, 0.06793181801913306, 0.08573541424993891, 0.10276281886035576, 0.11745277400768828, 0.13619913240836468, 0.15248208939738106, 0.16794072682387196, 0.1857910856779199, 0.20272633034619503, 0.21743266948033124, 0.23603327861928847, 0.25247939287510235, 0.267918915633345, 0.2859672477206914, 0.3027348978066584, 0.3175825488724513, 0.3360729074047413, 0.35235415773058776, 0.3678974457725417, 0.38571264731581323, 0.4027482439269079, 0.4178761295188451, 0.43591422161262017, 0.4620436162367696, 0.46741620016109664, 0.4858997320261551, 0.5027185820799787, 0.51754165715829, 0.5360398663615342, 0.5617490798613289, 0.570708051265683, 0.5935719115659595, 0.6026568349188892, 0.6173891153739532, 0.6360313671611948, 0.652353918805602, 0.668004385457607, 0.6856772510800511, 0.7028411889477866, 0.7175318267691182, 0.7360477852780605, 0.7583952085115016, 0.7677917690307368, 0.7859592263994273, 0.8026586098421831, 0.8175659942062339, 0.8358819315035362, 0.8558652812644141, 0.867665851226775, 0.8856148553750245, 0.9026323613215936, 0.917519948372501, 0.9359062002913561, 0.9546484626916936, 0.9679689892072929, 0.9879055763303768, 1.002701344754314, 1.017788270371966, 1.0359308104088996, 1.0541061184339924, 1.0678976847120794, 1.0872635627893033, 1.1026819229009561, 1.118285626915167, 1.1357553993002512, 1.1526984946249286, 1.1680062627856387, 1.1856036937824683, 1.2021918026148342, 1.2176442960335407, 1.2356004681787454, 1.2539420054527, 1.2674485585448565, 1.2873923136648955]
1	蝙蝠	True	animate	inanimate	left	1.696	[0.0, 0.0, 0.0, 0.0, 0.0, 0.0, 0.0, 0.0, 0.0, 0.0, 0.0, 0.0, 0.0, 0.0, 0.0, 0.0, 0.0, 0.0, 0.0, 0.0, 0.0, 0.0, 0.0, 0.0, 0.0, 0.0, 0.0, 0.0, 0.0, 0.0, 0.0, 0.0, 0.0, 0.0, 0.0, 0.0, 0.0, -1.0, -1.0, 14.0, 50.0, 86.0, 120.0, 165.0, 215.0, 279.0, 340.0, 395.0, 444.0, 470.0, 471.0, 471.0, 451.0, 373.0, 260.0, 119.0, -86.0, -148.0, -251.0, -331.0, -399.0, -505.0, -528.0, -552.0, -566.0, -574.0, -582.0, -589.0, -595.0, -596.0, -596.0, -596.0, -596.0, -596.0, -596.0, -598.0, -607.0, -611.0, -619.0, -630.0, -647.0, -668.0, -698.0, -710.0, -736.0, -766.0, -775.0, -775.0, -775.0, -775.0, -775.0, -775.0, -775.0, -775.0, -775.0, -775.0, -775.0, -775.0, -775.0, -775.0, -775.0, -775.0, -775.0]	[-490.0, -490.0, -490.0, -490.0, -490.0, -491.0, -491.0, -491.0, -491.0, -491.0, -491.0, -491.0, -491.0, -491.0, -491.0, -491.0, -491.0, -491.0, -491.0, -491.0, -491.0, -491.0, -491.0, -491.0, -491.0, -491.0, -491.0, -491.0, -491.0, -491.0, -491.0, -491.0, -491.0, -491.0, -491.0, -491.0, -491.0, -467.0, -404.0, -322.0, -246.0, -187.0, -130.0, -58.0, 23.0, 105.0, 175.0, 240.0, 291.0, 332.0, 332.0, 334.0, 337.0, 349.0, 363.0, 365.0, 365.0, 365.0, 365.0, 370.0, 381.0, 413.0, 420.0, 428.0, 431.0, 431.0, 431.0, 431.0, 431.0, 431.0, 431.0, 431.0, 431.0, 431.0, 431.0, 431.0, 431.0, 431.0, 431.0, 431.0, 430.0, 427.0, 420.0, 416.0, 410.0, 407.0, 405.0, 405.0, 405.0, 405.0, 405.0, 405.0, 405.0, 405.0, 405.0, 405.0, 405.0, 405.0, 405.0, 405.0, 405.0, 405.0, 405.0]	[0.006247557321330532, 0.011091074848081917, 0.01672204796341248, 0.029168761597247794, 0.045822406391380355, 0.06368061591638252, 0.07886925881030038, 0.09583897812990472, 0.11101430901908316, 0.13012964856170584, 0.1455541526665911, 0.16093906213063747, 0.1893407115858281, 0.20029716464341618, 0.21082217257935554, 0.2302757732977625, 0.24583749331941362, 0.2610025842295727, 0.27932705484272446, 0.2956833984644618, 0.3103412682976341, 0.329109813348623, 0.3458532287768321, 0.3608575517719146, 0.3788028012495488, 0.39582679253362585, 0.4103549557621591, 0.4291204288165318, 0.4460474814841291, 0.46107501511869486, 0.47892230199067853, 0.49584116265759803, 0.5104833311634138, 0.5291938495793147, 0.547204293688992, 0.5608917533536442, 0.580598623258993, 0.5958408554579364, 0.6131061692867661, 0.6290754411020316, 0.6465516988246236, 0.660964491442428, 0.6793824873457197, 0.695866148249479, 0.7107032179774251, 0.7286539287888445, 0.7453754988964647, 0.7606098804244539, 0.778686543169897, 0.7956327104911907, 0.8105892468447564, 0.8289379521156661, 0.8453434477123665, 0.860583973233588, 0.8793310143082635, 0.8953415874420898, 0.9110323314089328, 0.9286929090303602, 0.9460107881750446, 0.9606072180322371, 0.9790859712375095, 0.9953218242590083, 1.010920066939434, 1.028672121843556, 1.0460159422946163, 1.0606792734615738, 1.0790334400662687, 1.0953259543894092, 1.110919418395497, 1.1387319268251304, 1.1456213953060796, 1.1605885129683884, 1.1790744341706159, 1.195389817818068, 1.210884636559058, 1.2368020632857224, 1.245569546794286, 1.2605721631116467, 1.2789853803551523, 1.2954690412443597, 1.3110945905791596, 1.328615562946652, 1.345750828841119, 1.3605128052731743, 1.3790192064625444, 1.3954090007464401, 1.4108505714975763, 1.4328692909039091, 1.4457583722978598, 1.460750065962202, 1.479050984591595, 1.498499806621112, 1.5108779122965643, 1.52888494306535, 1.5459819796524243, 1.5607398600986926, 1.5790595520520583, 1.595813890133286, 1.6109083250776166, 1.6311657653714065, 1.6459052138234256, 1.6632599569420563, 1.679067778182798]
2	钢琴	False	animate	inanimate	right	1.478	[0.0, 0.0, 0.0, 0.0, 0.0, 0.0, 0.0, 0.0, 0.0, 0.0, 0.0, 0.0, 0.0, 0.0, 0.0, 0.0, 0.0, 0.0, 0.0, 0.0, 0.0, 0.0, 0.0, 0.0, 0.0, 0.0, 0.0, 0.0, 0.0, 0.0, 0.0, 0.0, 0.0, 0.0, 0.0, 0.0, 0.0, 0.0, 0.0, 0.0, 0.0, 0.0, 0.0, 0.0, 0.0, 0.0, 2.0, 2.0, 0.0, -3.0, -3.0, 16.0, 65.0, 85.0, 125.0, 181.0, 275.0, 313.0, 430.0, 519.0, 608.0, 675.0, 716.0, 735.0, 744.0, 744.0, 745.0, 745.0, 745.0, 745.0, 745.0, 745.0, 745.0, 745.0, 745.0, 745.0, 745.0, 745.0, 745.0, 745.0, 745.0, 745.0, 745.0, 745.0, 745.0, 745.0, 745.0, 745.0, 745.0]	[-490.0, -490.0, -490.0, -490.0, -490.0, -490.0, -490.0, -490.0, -490.0, -490.0, -490.0, -490.0, -490.0, -490.0, -490.0, -490.0, -490.0, -490.0, -490.0, -490.0, -490.0, -490.0, -490.0, -490.0, -490.0, -490.0, -490.0, -490.0, -490.0, -490.0, -490.0, -490.0, -490.0, -490.0, -490.0, -490.0, -490.0, -490.0, -490.0, -490.0, -490.0, -490.0, -490.0, -490.0, -490.0, -490.0, -473.0, -453.0, -415.0, -373.0, -324.0, -264.0, -139.0, -92.0, -8.0, 83.0, 209.0, 251.0, 353.0, 412.0, 465.0, 505.0, 526.0, 533.0, 538.0, 538.0, 539.0, 539.0, 539.0, 539.0, 539.0, 539.0, 539.0, 539.0, 539.0, 539.0, 539.0, 539.0, 539.0, 539.0, 539.0, 539.0, 539.0, 539.0, 539.0, 539.0, 539.0, 539.0, 539.0]	[0.015545813905191608, 0.020731347249238752, 0.028804217785364017, 0.04634805946261622, 0.0636201999586774, 0.078279435125296, 0.09657284441345837, 0.11307288930402137, 0.1288138092495501, 0.1465143228560919, 0.16351066614151932, 0.17843238651403226, 0.19680976375821047, 0.2131517714005895, 0.22859402482572477, 0.24651674630877096, 0.2634267323301174, 0.27825561007193755, 0.2967230992799159, 0.3132152934995247, 0.3284964376798598, 0.34655978842056356, 0.36338785447878763, 0.3782245828770101, 0.3967408827302279, 0.41317948764481116, 0.4284613144991454, 0.44651510792027693, 0.4634117819368839, 0.4784819822089048, 0.49674091686028987, 0.513058689844911, 0.5285924205527408, 0.5465458620310528, 0.5633756347524468, 0.5784188697143691, 0.5967187643400393, 0.6132488465518691, 0.6285443267115625, 0.6464073149109026, 0.6634336955175968, 0.6785864984267391, 0.6966044518630952, 0.713132827411755, 0.728549480845686, 0.7508556027605664, 0.7631688551191473, 0.7782912793772994, 0.7983780530921649, 0.8129796029534191, 0.8286119789554505, 0.848125654287287, 0.8632241852319567, 0.8780571589595638, 0.8965212348412024, 0.9128526611457346, 0.9284922051447211, 0.9490831279399572, 0.963384304617648, 0.9782155716820853, 0.9965762236242881, 1.0132083644421073, 1.028526031266665, 1.0496316844510147, 1.063199677504599, 1.0781121818727115, 1.0965885457408149, 1.114582264533965, 1.1284267374430783, 1.1475318369921297, 1.1632744636008283, 1.1793376020505093, 1.1965646865573945, 1.2134207419294398, 1.2284868462156737, 1.2469348794402322, 1.2630993938219035, 1.278576804572367, 1.2963629927980946, 1.3128019390424015, 1.3280878618825227, 1.3484306354657747, 1.3642582540342119, 1.3816331357957097, 1.3962206909927772, 1.4141393164900364, 1.4282438852678752, 1.4500332287861966, 1.463576987182023]
3	大象	True	inanimate	animate	right	1.684	[0.0, -2.0, -2.0, -2.0, -2.0, -2.0, -2.0, -2.0, -2.0, -2.0, -2.0, -2.0, -2.0, -2.0, -2.0, -2.0, -2.0, -2.0, -2.0, -2.0, -2.0, -2.0, -2.0, -2.0, -2.0, -2.0, -2.0, -2.0, -2.0, -2.0, -2.0, -2.0, -2.0, -2.0, -2.0, -2.0, -2.0, -6.0, -7.0, -8.0, -9.0, -12.0, -12.0, -12.0, -12.0, -12.0, -14.0, -18.0, -29.0, -54.0, -68.0, -111.0, -190.0, -260.0, -296.0, -401.0, -461.0, -519.0, -572.0, -617.0, -650.0, -664.0, -668.0, -669.0, -669.0, -665.0, -661.0, -651.0, -644.0, -638.0, -621.0, -589.0, -534.0, -459.0, -366.0, -272.0, -168.0, 22.0, 92.0, 300.0, 424.0, 530.0, 603.0, 642.0, 671.0, 686.0, 688.0, 688.0, 688.0, 688.0, 688.0, 688.0, 688.0, 688.0, 688.0, 688.0, 688.0, 688.0, 688.0, 688.0, 688.0, 688.0]	[-490.0, -490.0, -490.0, -490.0, -490.0, -490.0, -490.0, -490.0, -490.0, -490.0, -490.0, -490.0, -490.0, -490.0, -490.0, -490.0, -490.0, -490.0, -490.0, -490.0, -490.0, -490.0, -490.0, -490.0, -490.0, -490.0, -490.0, -490.0, -490.0, -490.0, -490.0, -490.0, -490.0, -490.0, -490.0, -490.0, -490.0, -492.0, -492.0, -492.0, -493.0, -493.0, -493.0, -493.0, -493.0, -493.0, -493.0, -488.0, -478.0, -456.0, -444.0, -409.0, -340.0, -277.0, -249.0, -154.0, -94.0, -26.0, 38.0, 101.0, 145.0, 175.0, 194.0, 211.0, 230.0, 265.0, 279.0, 312.0, 335.0, 356.0, 379.0, 405.0, 435.0, 464.0, 493.0, 518.0, 540.0, 540.0, 540.0, 540.0, 540.0, 540.0, 540.0, 540.0, 540.0, 540.0, 540.0, 540.0, 540.0, 540.0, 540.0, 540.0, 540.0, 540.0, 540.0, 540.0, 540.0, 540.0, 540.0, 540.0, 540.0, 540.0]	[0.008887086674803868, 0.013137708490830846, 0.018330751176108606, 0.03468231613805983, 0.05089666516869329, 0.0664037718961481, 0.08431864272279199, 0.10149657525471412, 0.1159267758630449, 0.1346557262731949, 0.15209409601811785, 0.16631335273268633, 0.18432925817614887, 0.20124470551672857, 0.21676683089754079, 0.23723419109592214, 0.251062962677679, 0.2661324802902527, 0.28429959632921964, 0.30141574756999034, 0.3161753346794285, 0.33467081320122816, 0.3555371918482706, 0.36603933047445025, 0.3919441278849263, 0.40123521645728033, 0.4160272302106023, 0.4346326180238975, 0.45849180580989923, 0.46607622859301046, 0.4918141140806256, 0.5013335545372684, 0.5160173656913685, 0.5346548388188239, 0.5510405370878289, 0.5664462678687414, 0.5907788847398479, 0.6036259821703425, 0.6160173998214304, 0.6345866063202266, 0.6573613786458736, 0.666172552810167, 0.6885960933286697, 0.7013858467835234, 0.7160502019396517, 0.7347194190515438, 0.754164827754721, 0.7664613547967747, 0.787171402858803, 0.8013643769227201, 0.8168131156853633, 0.8345808719168417, 0.8524005107901758, 0.866427255605231, 0.8851360673725139, 0.901221733802231, 0.9170715390209807, 0.9343979514815146, 0.9515844173438381, 0.9665160363656469, 0.9845281871384941, 1.0012207439285703, 1.0161199363064952, 1.0341047804249683, 1.0509021264879266, 1.0663638359110337, 1.0842394534265622, 1.1009101648960495, 1.1181188174086856, 1.134219502506312, 1.1524634184897877, 1.1660600835311925, 1.1856300788494991, 1.2007057404553052, 1.2164405164076015, 1.2341451259999303, 1.252012551529333, 1.2663205548597034, 1.285448865077342, 1.30103550243075, 1.3169733715913026, 1.3340987388364738, 1.3522921375115402, 1.3662226263841148, 1.3844453797210008, 1.400754960704944, 1.4163948460336542, 1.434391978153144, 1.4512490575143602, 1.4662841004901566, 1.4846235897566658, 1.5010311333608115, 1.5162494722317206, 1.5343486629717518, 1.5514392142213183, 1.566297446610406, 1.5845457999384962, 1.6010086395108374, 1.616369314302574, 1.634062318582437, 1.6512545871082693, 1.6659872089076089]
4	药品	False	animate	inanimate	right	1.246	[0.0, 0.0, 0.0, 0.0, 0.0, 0.0, 0.0, 0.0, 0.0, 0.0, 0.0, 0.0, 0.0, 0.0, 0.0, 0.0, 0.0, 0.0, 0.0, 0.0, 0.0, 0.0, 0.0, 0.0, 0.0, 0.0, 0.0, 0.0, 0.0, 0.0, 0.0, 0.0, 0.0, 0.0, 0.0, 0.0, 0.0, 0.0, 0.0, 0.0, 0.0, 0.0, 0.0, 0.0, 0.0, 0.0, -1.0, 0.0, 5.0, 35.0, 77.0, 140.0, 212.0, 278.0, 338.0, 391.0, 443.0, 486.0, 534.0, 563.0, 581.0, 637.0, 667.0, 701.0, 736.0, 763.0, 780.0, 787.0, 789.0, 789.0, 790.0, 791.0, 791.0, 791.0, 791.0]	[-490.0, -490.0, -490.0, -490.0, -490.0, -490.0, -490.0, -490.0, -490.0, -490.0, -490.0, -490.0, -490.0, -490.0, -490.0, -490.0, -490.0, -490.0, -490.0, -490.0, -490.0, -490.0, -490.0, -490.0, -490.0, -490.0, -490.0, -490.0, -490.0, -490.0, -490.0, -490.0, -490.0, -490.0, -490.0, -490.0, -490.0, -490.0, -490.0, -490.0, -490.0, -490.0, -490.0, -490.0, -490.0, -490.0, -477.0, -423.0, -391.0, -265.0, -156.0, -38.0, 67.0, 155.0, 209.0, 252.0, 289.0, 317.0, 345.0, 357.0, 365.0, 392.0, 406.0, 419.0, 435.0, 447.0, 454.0, 458.0, 460.0, 460.0, 461.0, 462.0, 462.0, 462.0, 462.0]	[0.010420252787298523, 0.014826522528892383, 0.027656553298584186, 0.03750538025633432, 0.05384841188788414, 0.06915140138880815, 0.08776156784733757, 0.10418242344167084, 0.12090979621279985, 0.13759689166909084, 0.1546632082608994, 0.16923745146777947, 0.1884719162917463, 0.20420600957004353, 0.22191983516677283, 0.23759829113259912, 0.25477110367501155, 0.2693139442271786, 0.2881278865970671, 0.30405517444887664, 0.3196104091475718, 0.33734027740138117, 0.3539321409043623, 0.3689808372000698, 0.38760602232650854, 0.40392379531112965, 0.4190725022199331, 0.43710274365730584, 0.455625187503756, 0.468875058053527, 0.488992893093382, 0.50386546147638, 0.5218270949408179, 0.5371072151174303, 0.5560191201075213, 0.5690484894294059, 0.5884467941650655, 0.6039341035793768, 0.6216946918139001, 0.6372512918460416, 0.6547732882172568, 0.669100747545599, 0.6883765136735747, 0.7039126337185735, 0.7204256492696004, 0.7372294806555146, 0.7543026239145547, 0.7688212298235158, 0.7881864252412925, 0.8037208386231214, 0.8192258973431308, 0.8371021975181065, 0.8542439487500815, 0.8691690824343823, 0.8874341610935517, 0.9035925314819906, 0.9191778035019524, 0.9369684290577425, 0.954081508301897, 0.9690445299638668, 0.987393576579052, 1.0038475414912682, 1.0191966109559871, 1.0373865963192657, 1.0543238889804343, 1.069141844054684, 1.087403168043238, 1.1037571223278064, 1.1192188317509135, 1.137218694537296, 1.1540843072289135, 1.1690913608763367, 1.1875202794471988, 1.2036376898613526, 1.2191707379097352]
5	腰带	False	inanimate	animate	left	1.717	[0.0, 0.0, 0.0, 0.0, 0.0, 0.0, 0.0, 0.0, 0.0, 0.0, 0.0, 0.0, 0.0, 0.0, 0.0, 0.0, 0.0, 0.0, 0.0, 0.0, 0.0, 0.0, 0.0, 0.0, 0.0, 0.0, 0.0, 0.0, 0.0, 0.0, 0.0, 0.0, 0.0, 0.0, 0.0, 0.0, 0.0, 0.0, 0.0, 0.0, 0.0, 0.0, 0.0, 0.0, 0.0, 0.0, 0.0, 0.0, 0.0, 0.0, 0.0, 0.0, 2.0, 5.0, 12.0, 18.0, 25.0, 27.0, 31.0, 33.0, 33.0, 24.0, 4.0, -7.0, -56.0, -95.0, -134.0, -182.0, -240.0, -305.0, -409.0, -454.0, -539.0, -660.0, -726.0, -760.0, -820.0, -842.0, -856.0, -862.0, -865.0, -866.0, -869.0, -874.0, -878.0, -889.0, -897.0, -897.0, -904.0, -906.0, -907.0, -908.0, -909.0, -909.0, -909.0, -909.0, -909.0, -909.0, -909.0, -909.0, -909.0, -909.0, -909.0]	[-490.0, -490.0, -490.0, -490.0, -490.0, -490.0, -490.0, -490.0, -490.0, -490.0, -490.0, -490.0, -490.0, -490.0, -490.0, -490.0, -490.0, -490.0, -490.0, -490.0, -490.0, -490.0, -490.0, -490.0, -490.0, -490.0, -490.0, -490.0, -490.0, -490.0, -490.0, -490.0, -490.0, -490.0, -490.0, -490.0, -490.0, -490.0, -490.0, -490.0, -490.0, -490.0, -490.0, -490.0, -490.0, -490.0, -490.0, -490.0, -490.0, -490.0, -490.0, -490.0, -477.0, -454.0, -434.0, -420.0, -403.0, -396.0, -383.0, -352.0, -340.0, -300.0, -268.0, -247.0, -178.0, -135.0, -96.0, -54.0, -13.0, 29.0, 89.0, 113.0, 159.0, 238.0, 272.0, 288.0, 310.0, 313.0, 318.0, 323.0, 328.0, 331.0, 337.0, 346.0, 358.0, 375.0, 386.0, 386.0, 397.0, 400.0, 407.0, 412.0, 422.0, 422.0, 423.0, 423.0, 423.0, 423.0, 423.0, 423.0, 423.0, 423.0, 423.0]	[0.0016281933058053255, 0.006635550744249485, 0.014156144228763878, 0.03263762810092885, 0.057430020737228915, 0.064131073304452, 0.08245383725443389, 0.09942935923754703, 0.11408927706361283, 0.1327851181558799, 0.14898342452943325, 0.16448541126737837, 0.19911604952358175, 0.2065291230683215, 0.21394424460595474, 0.23271927499445155, 0.24947293041623197, 0.26448408006399404, 0.28348609700333327, 0.30215155944461003, 0.3140640866768081, 0.33276026909879874, 0.3490107994439313, 0.36432061561208684, 0.3823283290548716, 0.399425365641946, 0.4141102007852169, 0.4328698711760808, 0.45278939165291376, 0.46436399905360304, 0.48270553632755764, 0.4994871810777113, 0.5143133281526389, 0.5327405400457792, 0.5508629414398456, 0.5644695051305462, 0.5841166417376371, 0.5994343085621949, 0.6153066417755326, 0.6327334061788861, 0.6497403308167122, 0.664544632556499, 0.6829824257874861, 0.6993104387656786, 0.7147410868637962, 0.7326583470276091, 0.7490751066216035, 0.7641726135479985, 0.7847976696648402, 0.7989387610869016, 0.8171171411086107, 0.8334922580688726, 0.8490509060939075, 0.8642497889813967, 0.8828937474318082, 0.8993528323480859, 0.9154074374528136, 0.9326140419725562, 0.9497834411886288, 0.9642976097529754, 0.9823227312008385, 0.9991262212570291, 1.014140784231131, 1.0323413509177044, 1.0495472727779998, 1.0644113078305963, 1.0850172492791899, 1.0990245381108252, 1.1144248075579526, 1.132274825082277, 1.1491854937630706, 1.1642870966898045, 1.1826453592948383, 1.1990576815587701, 1.2144306443515234, 1.2325800110556884, 1.2495811330300057, 1.2640864269342273, 1.2829290412773844, 1.2992836782505037, 1.3145023584511364, 1.3324499972659396, 1.3493063939677086, 1.3644602208660217, 1.3825962755945511, 1.4081535958393943, 1.4139968781819334, 1.4423125116736628, 1.4480274527595611, 1.4640813752048416, 1.484506068736664, 1.4990140933077782, 1.5142621281702304, 1.532282812288031, 1.5493255768960807, 1.5641281719726976, 1.5828192344051786, 1.5991772847046377, 1.6144707168714376, 1.6347151865047636, 1.649362475000089, 1.6643118433421478, 1.682874564517988]
6	黄瓜	False	inanimate	animate	right	1.331	[0.0, 0.0, 0.0, 0.0, 0.0, 0.0, 0.0, 0.0, 0.0, 0.0, 0.0, 0.0, 0.0, 0.0, 0.0, 0.0, 0.0, 0.0, 0.0, 0.0, 0.0, 0.0, 0.0, 0.0, 0.0, 0.0, 0.0, 0.0, 0.0, 0.0, 0.0, 0.0, 0.0, 0.0, 11.0, 29.0, 45.0, 114.0, 176.0, 239.0, 290.0, 338.0, 363.0, 369.0, 369.0, 369.0, 369.0, 368.0, 344.0, 334.0, 333.0, 333.0, 333.0, 333.0, 334.0, 349.0, 376.0, 434.0, 572.0, 637.0, 667.0, 726.0, 781.0, 814.0, 825.0, 825.0, 825.0, 825.0, 825.0, 825.0, 825.0, 825.0, 825.0, 825.0, 825.0, 825.0, 825.0, 825.0, 825.0, 825.0, 825.0]	[-490.0, -490.0, -490.0, -490.0, -490.0, -490.0, -490.0, -490.0, -490.0, -490.0, -490.0, -490.0, -490.0, -490.0, -490.0, -490.0, -490.0, -490.0, -490.0, -490.0, -490.0, -490.0, -490.0, -490.0, -490.0, -490.0, -490.0, -490.0, -490.0, -490.0, -490.0, -490.0, -490.0, -490.0, -442.0, -367.0, -315.0, -152.0, -43.0, 59.0, 145.0, 211.0, 249.0, 264.0, 269.0, 269.0, 272.0, 275.0, 287.0, 290.0, 290.0, 290.0, 290.0, 291.0, 299.0, 313.0, 332.0, 365.0, 426.0, 443.0, 451.0, 466.0, 475.0, 480.0, 482.0, 482.0, 482.0, 482.0, 482.0, 482.0, 482.0, 482.0, 482.0, 482.0, 482.0, 482.0, 482.0, 482.0, 482.0, 482.0, 482.0]	[0.014858710259431973, 0.020112851561862044, 0.0300080998276826, 0.04434272715297993, 0.062270568654639646, 0.07622392683697399, 0.09493615191604476, 0.11103717834339477, 0.12662893570086453, 0.14438884127594065, 0.1614111258822959, 0.17671240872005, 0.19700807832123246, 0.21141882294614334, 0.22602856480807532, 0.24463600061426405, 0.2616494105604943, 0.27642947767162696, 0.29435766048845835, 0.31102564129105303, 0.3264525347185554, 0.3454221250140108, 0.3641343500930816, 0.37606189599318895, 0.39457546517951414, 0.4266754593991209, 0.43228049120807555, 0.45210170772043057, 0.4611190471041482, 0.4763704952929402, 0.4943867420661263, 0.5171922343870392, 0.5261010298272595, 0.545264838685398, 0.5617710275691934, 0.5760186149418587, 0.5946171760879224, 0.6110694343224168, 0.6265441144059878, 0.6445040412072558, 0.6610214940883452, 0.676267480943352, 0.6946032155537978, 0.7211957992840325, 0.7263253539858852, 0.7464431890111882, 0.7612147227919195, 0.7786988311709138, 0.7946070043544751, 0.8120385474321665, 0.8264400760526769, 0.8443406108999625, 0.8610809543170035, 0.8787746412708657, 0.8945295558660291, 0.9110862620582338, 0.9264646861847723, 0.9538754454843001, 0.9774738547275774, 0.982447078844416, 0.9944080753921298, 1.0108009416726418, 1.0261906297819223, 1.0449298201856436, 1.060968382647843, 1.0762232441775268, 1.0940961310261628, 1.1116252953797812, 1.1265674957248848, 1.1465969254786614, 1.1607817075419007, 1.1764936141698854, 1.194874746084679, 1.2111703324044356, 1.2264275832712883, 1.2473554018797586, 1.261656919901725, 1.279603876042529, 1.295534918550402, 1.3152322311361786, 1.3260777509131003]
7	礼物	False	animate	inanimate	right	1.243	[0.0, 0.0, 0.0, 0.0, 0.0, 0.0, 0.0, 0.0, 0.0, 0.0, 0.0, 0.0, 0.0, 0.0, 0.0, 0.0, 0.0, 0.0, 0.0, 0.0, 0.0, 0.0, 0.0, 0.0, 0.0, 0.0, 0.0, 0.0, 0.0, 0.0, 0.0, 0.0, 0.0, 0.0, 0.0, -3.0, -5.0, -6.0, -6.0, -6.0, -6.0, -6.0, -6.0, -6.0, -6.0, -6.0, -6.0, -6.0, 6.0, 95.0, 129.0, 163.0, 285.0, 386.0, 431.0, 559.0, 632.0, 686.0, 735.0, 777.0, 814.0, 825.0, 835.0, 839.0, 841.0, 842.0, 843.0, 844.0, 845.0, 846.0, 846.0, 846.0, 846.0, 846.0, 846.0]	[-490.0, -490.0, -490.0, -490.0, -490.0, -490.0, -490.0, -490.0, -490.0, -490.0, -490.0, -490.0, -490.0, -490.0, -490.0, -490.0, -490.0, -490.0, -490.0, -490.0, -490.0, -490.0, -490.0, -490.0, -490.0, -490.0, -490.0, -490.0, -490.0, -490.0, -490.0, -490.0, -490.0, -490.0, -490.0, -490.0, -491.0, -491.0, -491.0, -491.0, -491.0, -491.0, -491.0, -491.0, -491.0, -491.0, -491.0, -491.0, -470.0, -337.0, -293.0, -247.0, -108.0, -7.0, 36.0, 152.0, 213.0, 260.0, 306.0, 340.0, 370.0, 380.0, 388.0, 391.0, 393.0, 396.0, 398.0, 399.0, 401.0, 402.0, 402.0, 402.0, 402.0, 402.0, 402.0]	[0.009150834783213213, 0.019463874836219475, 0.03301138790266123, 0.06124271212320309, 0.066964479861781, 0.08555553166661412, 0.10122443031286821, 0.11759852326940745, 0.13286840345244855, 0.15101640482316725, 0.1680219641129952, 0.18268802593229339, 0.20089405395265203, 0.2189775433507748, 0.23293329088483006, 0.251209292182466, 0.26758611580589786, 0.28280240668391343, 0.30080602412635926, 0.3179774713353254, 0.33314392756437883, 0.35169879806926474, 0.36821795761352405, 0.3831843926163856, 0.4009210875374265, 0.4180157347873319, 0.43297056446317583, 0.45358469791244715, 0.48227886988024693, 0.4907995695248246, 0.500861047039507, 0.5180017742532073, 0.533174374490045, 0.5517507489712443, 0.5676217168511357, 0.5827861250872957, 0.6130965095653664, 0.6229678645177046, 0.6325862915837206, 0.6512128420581575, 0.668679883776349, 0.6863844933832297, 0.7104546250484418, 0.7166638165363111, 0.7329727148608072, 0.753317195107229, 0.7676108624582412, 0.7830903212015983, 0.8154541659605457, 0.8214831335353665, 0.8329536343371728, 0.8515009955008281, 0.8674740220012609, 0.8828247981291497, 0.9020398069696967, 0.9203052269440377, 0.9326560259505641, 0.9511436538159614, 0.9675798694079276, 0.9830924374691676, 1.0008332283759955, 1.017864046327304, 1.0328854359686375, 1.0511969359213253, 1.0680096419819165, 1.0830218156334013, 1.1029580614267616, 1.1179893497319426, 1.1355536714108894, 1.1512075513892341, 1.169223115502973, 1.1830563244147925, 1.2022218399361009, 1.2178484132746235, 1.2355397108767647]
8	小鸟	True	inanimate	animate	right	1.353	[0.0, 0.0, 0.0, 0.0, 0.0, 0.0, 0.0, 0.0, 0.0, 0.0, 0.0, 0.0, 0.0, 0.0, 0.0, 0.0, 0.0, 0.0, 0.0, 0.0, 0.0, 0.0, 0.0, 0.0, 0.0, 0.0, 0.0, 0.0, 0.0, 0.0, 0.0, 0.0, 0.0, 0.0, 0.0, 0.0, 0.0, 3.0, 33.0, 33.0, 45.0, 45.0, 45.0, 42.0, 31.0, 23.0, 23.0, 25.0, 34.0, 49.0, 100.0, 129.0, 223.0, 288.0, 352.0, 438.0, 536.0, 623.0, 704.0, 751.0, 775.0, 782.0, 783.0, 783.0, 783.0, 784.0, 786.0, 790.0, 795.0, 802.0, 808.0, 815.0, 824.0, 831.0, 836.0, 841.0, 844.0, 846.0, 848.0, 848.0, 848.0, 848.0]	[-490.0, -490.0, -490.0, -490.0, -490.0, -490.0, -490.0, -490.0, -490.0, -490.0, -490.0, -490.0, -490.0, -490.0, -490.0, -490.0, -490.0, -490.0, -490.0, -490.0, -490.0, -490.0, -490.0, -490.0, -490.0, -490.0, -490.0, -490.0, -490.0, -490.0, -490.0, -490.0, -490.0, -490.0, -490.0, -490.0, -490.0, -486.0, -385.0, -385.0, -316.0, -316.0, -293.0, -267.0, -237.0, -206.0, -158.0, -143.0, -115.0, -82.0, -22.0, 7.0, 79.0, 124.0, 162.0, 198.0, 232.0, 258.0, 278.0, 293.0, 300.0, 304.0, 305.0, 305.0, 305.0, 306.0, 308.0, 313.0, 321.0, 328.0, 333.0, 339.0, 346.0, 350.0, 355.0, 359.0, 364.0, 368.0, 371.0, 372.0, 372.0, 372.0]	[0.01076953903248068, 0.01472285967611242, 0.021545426847296767, 0.03737953073868994, 0.05375396502495278, 0.0688627359631937, 0.08695885469205678, 0.10367120880982839, 0.12166902358876541, 0.13749459414975718, 0.15415131095505785, 0.16915051394607872, 0.1919136809592601, 0.20362379762809724, 0.21932751225540414, 0.2382158652471844, 0.2540270998288179, 0.2688023882510606, 0.2872954774502432, 0.3042252607847331, 0.31935792503645644, 0.3369673026900273, 0.35401382196869235, 0.3695472113467986, 0.3875115754781291, 0.40377985514351167, 0.4193692231638124, 0.4370294594555162, 0.45406232539971825, 0.4688348831696203, 0.4873545963637298, 0.5038522519171238, 0.5191869853879325, 0.5372469228168484, 0.5540381248865742, 0.5688847519486444, 0.5872716865269467, 0.6138652942463523, 0.6192979527986608, 0.6461878377012908, 0.6574279386113631, 0.668802866130136, 0.6874454592471011, 0.7036055362987099, 0.7192027549899649, 0.737102948492975, 0.7538275905972114, 0.7687261003011372, 0.7872355734871235, 0.8035355971369427, 0.8189877492259257, 0.8368930627329974, 0.854006824636599, 0.8688428703753743, 0.8873175275803078, 0.9066304990265053, 0.9191495752747869, 0.9397234314092202, 0.9538590615120484, 0.9688688458263641, 0.9872554390749428, 1.0067551197571447, 1.019054377466091, 1.0392964577622479, 1.0539505729248049, 1.0716722491924884, 1.0874660757690435, 1.1050146961206337, 1.11927935013955, 1.1377038313803496, 1.1538888257637154, 1.1700557294825558, 1.187073235429125, 1.2041228267044062, 1.2192589042824693, 1.2372396524151554, 1.2541964010742959, 1.269192190724425, 1.2868169283610769, 1.3041218368452974, 1.3191811144642998, 1.3381950780603802]
9	青蛙	True	animate	inanimate	left	1.248	[0.0, 0.0, 0.0, 0.0, 0.0, 0.0, 0.0, 0.0, 0.0, 0.0, 0.0, 0.0, 0.0, 0.0, 0.0, 0.0, 0.0, 0.0, 0.0, 0.0, 0.0, 0.0, 0.0, 0.0, 0.0, 0.0, 0.0, 0.0, 0.0, 0.0, 0.0, 0.0, 0.0, 0.0, 0.0, 0.0, 38.0, 178.0, 279.0, 328.0, 451.0, 505.0, 528.0, 570.0, 598.0, 598.0, 606.0, 606.0, 606.0, 606.0, 572.0, 572.0, 375.0, 307.0, 234.0, -22.0, -238.0, -452.0, -604.0, -709.0, -791.0, -832.0, -842.0, -842.0, -842.0, -842.0, -842.0, -842.0, -842.0, -842.0, -842.0, -842.0, -842.0, -842.0, -842.0]	[-490.0, -490.0, -490.0, -490.0, -490.0, -490.0, -490.0, -490.0, -490.0, -490.0, -490.0, -490.0, -490.0, -490.0, -490.0, -490.0, -490.0, -490.0, -490.0, -490.0, -490.0, -490.0, -490.0, -490.0, -490.0, -490.0, -490.0, -490.0, -490.0, -490.0, -490.0, -490.0, -490.0, -490.0, -490.0, -490.0, -421.0, -236.0, -116.0, -63.0, 69.0, 127.0, 154.0, 215.0, 260.0, 260.0, 280.0, 283.0, 287.0, 287.0, 303.0, 303.0, 388.0, 418.0, 440.0, 508.0, 540.0, 540.0, 540.0, 540.0, 530.0, 525.0, 523.0, 523.0, 523.0, 523.0, 523.0, 523.0, 523.0, 523.0, 523.0, 523.0, 523.0, 523.0, 523.0]	[0.014961690467316657, 0.02015712247521151, 0.030511463846778497, 0.04627183977572713, 0.0639354893937707, 0.07811822346411645, 0.09687277386547066, 0.11288266433984973, 0.12787811266025528, 0.14591927675064653, 0.16513906425097957, 0.177835633745417, 0.1990221829037182, 0.2126676585758105, 0.23092386256030295, 0.24597187619656324, 0.26495204781531356, 0.27775101726001594, 0.2973862072103657, 0.31261888207518496, 0.3287905644538114, 0.34597873699385673, 0.362994536277256, 0.3777012167556677, 0.3964318738289876, 0.41266499618359376, 0.4282335428724764, 0.44598901111749, 0.46301027173467446, 0.47766472824150696, 0.4962837693747133, 0.5126735636440571, 0.5282328943430912, 0.5460136212350335, 0.5629522792296484, 0.5783965806622291, 0.5972132536990102, 0.6168474196456373, 0.6276400327769807, 0.6470639375038445, 0.6626055188826285, 0.6780801989516476, 0.6964674748742254, 0.723248133159359, 0.7280790213553701, 0.7537124588998267, 0.7626878143055364, 0.7777685959154041, 0.7959531199303456, 0.8225771063007414, 0.831645304322592, 0.8504438867093995, 0.8636507492774399, 0.8776457501080586, 0.8961917459528195, 0.9125173695938429, 0.9278739483997924, 0.9464479335438227, 0.9630101010698127, 0.9778440988156945, 0.9963150013500126, 1.0149070771731203, 1.0281368090654723, 1.0476521910604788, 1.065191936751944, 1.0805751395382686, 1.0963037714973325, 1.1139322638045996, 1.1281552751897834, 1.147032022854546, 1.163005049340427, 1.1806475363118807, 1.1963290642743232, 1.2138967992796097, 1.22811605600873]
10	桌子	False	inanimate	animate	left	1.482	[0.0, 0.0, 0.0, 0.0, 0.0, 0.0, 0.0, 0.0, 0.0, 0.0, 0.0, 0.0, 0.0, 0.0, 0.0, 0.0, 0.0, 0.0, 0.0, 0.0, 0.0, 0.0, 0.0, 0.0, 0.0, 0.0, 0.0, 0.0, 0.0, 0.0, 0.0, 0.0, 0.0, 0.0, 0.0, 0.0, 0.0, 0.0, 5.0, 9.0, 19.0, 32.0, 57.0, 131.0, 216.0, 262.0, 378.0, 458.0, 544.0, 609.0, 671.0, 681.0, 688.0, 692.0, 692.0, 692.0, 678.0, 659.0, 532.0, 420.0, 279.0, 107.0, -144.0, -229.0, -486.0, -563.0, -704.0, -853.0, -899.0, -915.0, -916.0, -916.0, -916.0, -916.0, -916.0, -916.0, -916.0, -916.0, -916.0, -916.0, -916.0, -916.0, -916.0, -916.0, -916.0, -916.0, -916.0, -916.0, -916.0, -916.0]	[-490.0, -490.0, -490.0, -490.0, -490.0, -490.0, -490.0, -490.0, -490.0, -490.0, -490.0, -490.0, -490.0, -490.0, -490.0, -490.0, -490.0, -490.0, -490.0, -490.0, -490.0, -490.0, -490.0, -490.0, -490.0, -490.0, -490.0, -490.0, -490.0, -490.0, -490.0, -490.0, -490.0, -490.0, -490.0, -490.0, -490.0, -490.0, -488.0, -476.0, -454.0, -429.0, -381.0, -256.0, -137.0, -72.0, 86.0, 171.0, 240.0, 287.0, 335.0, 343.0, 354.0, 359.0, 359.0, 360.0, 368.0, 374.0, 392.0, 400.0, 400.0, 400.0, 400.0, 413.0, 441.0, 447.0, 468.0, 486.0, 492.0, 494.0, 494.0, 494.0, 494.0, 494.0, 494.0, 494.0, 494.0, 494.0, 494.0, 494.0, 494.0, 494.0, 494.0, 494.0, 494.0, 494.0, 494.0, 494.0, 494.0, 494.0]	[0.009913816800690256, 0.01499968086136505, 0.022083709234721027, 0.036199883339577354, 0.05246133635228034, 0.06792168042738922, 0.08646050827519502, 0.10279125190572813, 0.11739382577070501, 0.13577325102232862, 0.153057338175131, 0.16787529324938077, 0.18638715577253606, 0.20310258188692387, 0.21778263837040868, 0.23643205815460533, 0.2546769981418038, 0.2675295568915317, 0.28621652332367375, 0.30352586913795676, 0.31794685375643894, 0.33588903123745695, 0.3528696732100798, 0.36767670561675914, 0.3862902854307322, 0.40351293260755483, 0.4179612238804111, 0.43590067069453653, 0.4528055366972694, 0.4678603770007612, 0.4892623073683353, 0.502519687244785, 0.5178902607149212, 0.5529840880772099, 0.561954323478858, 0.5674822139844764, 0.5857773299503606, 0.6089371261041379, 0.6178408015402965, 0.6360338588856393, 0.65372071917227, 0.6679676238709362, 0.6861767238879111, 0.7028723526746035, 0.7175722064712318, 0.7359069170925068, 0.7531490202673012, 0.7677130234660581, 0.7856767049379414, 0.8082412160583772, 0.8176428965671221, 0.8361629510909552, 0.8530695237714099, 0.867710668273503, 0.8857081417227164, 0.9088160552200861, 0.9174005841632606, 0.9359667186508887, 0.9531627418473363, 0.9677403983951081, 0.9857583518314641, 1.009139331858023, 1.017339860991342, 1.0358646941749612, 1.0521759818220744, 1.0679698083986295, 1.086493617593078, 1.1025820146896876, 1.1176733776228502, 1.1361804614862194, 1.1530747461656574, 1.1677295440022135, 1.1855962868430652, 1.2026789874362294, 1.217492163850693, 1.2357951304729795, 1.2530157296569087, 1.2677234341244912, 1.285653664948768, 1.3039736982318573, 1.3174048166983994, 1.3357166579808109, 1.3527512306027347, 1.367809825547738, 1.3858902429637965, 1.4030681754957186, 1.4177560826501576, 1.4372564459918067, 1.4527120114216814, 1.46882054717571]
11	太阳	False	animate	inanimate	right	2.112	[0.0, 0.0, 0.0, 0.0, 0.0, 0.0, 0.0, 0.0, 0.0, 0.0, 0.0, 0.0, 0.0, 0.0, 0.0, 0.0, 0.0, 0.0, 0.0, 0.0, 0.0, 0.0, 0.0, 0.0, 0.0, 0.0, 5.0, 12.0, 43.0, 70.0, 102.0, 144.0, 180.0, 223.0, 265.0, 309.0, 356.0, 439.0, 482.0, 503.0, 549.0, 563.0, 568.0, 569.0, 569.0, 569.0, 569.0, 569.0, 569.0, 569.0, 569.0, 569.0, 567.0, 565.0, 563.0, 563.0, 562.0, 560.0, 559.0, 557.0, 555.0, 552.0, 548.0, 547.0, 545.0, 544.0, 538.0, 524.0, 506.0, 495.0, 495.0, 494.0, 494.0, 508.0, 524.0, 536.0, 577.0, 616.0, 622.0, 632.0, 641.0, 645.0, 648.0, 649.0, 650.0, 650.0, 650.0, 650.0, 650.0, 650.0, 650.0, 650.0, 650.0, 650.0, 650.0, 650.0, 650.0, 650.0, 650.0, 650.0, 650.0, 650.0, 650.0, 650.0, 650.0, 650.0, 650.0, 650.0, 650.0, 650.0, 650.0, 650.0, 650.0, 650.0, 650.0, 650.0, 654.0, 676.0, 703.0, 740.0, 774.0, 808.0, 817.0, 817.0, 817.0, 817.0, 817.0]	[-490.0, -490.0, -490.0, -490.0, -490.0, -490.0, -490.0, -490.0, -490.0, -490.0, -490.0, -490.0, -490.0, -490.0, -490.0, -490.0, -490.0, -490.0, -490.0, -490.0, -490.0, -490.0, -490.0, -490.0, -490.0, -490.0, -488.0, -478.0, -445.0, -404.0, -355.0, -298.0, -243.0, -181.0, -123.0, -63.0, -9.0, 67.0, 105.0, 124.0, 169.0, 186.0, 195.0, 197.0, 200.0, 201.0, 201.0, 204.0, 204.0, 204.0, 205.0, 207.0, 221.0, 227.0, 230.0, 231.0, 234.0, 236.0, 241.0, 244.0, 247.0, 252.0, 258.0, 259.0, 263.0, 264.0, 269.0, 277.0, 284.0, 289.0, 289.0, 290.0, 296.0, 320.0, 340.0, 352.0, 384.0, 406.0, 408.0, 413.0, 416.0, 418.0, 420.0, 420.0, 421.0, 421.0, 421.0, 421.0, 421.0, 421.0, 421.0, 421.0, 421.0, 421.0, 421.0, 421.0, 421.0, 421.0, 421.0, 421.0, 421.0, 421.0, 421.0, 421.0, 421.0, 421.0, 421.0, 421.0, 421.0, 421.0, 421.0, 421.0, 421.0, 421.0, 421.0, 421.0, 425.0, 431.0, 437.0, 446.0, 453.0, 459.0, 462.0, 462.0, 462.0, 462.0, 462.0]	[0.014297797490144148, 0.01936079222650733, 0.02456441623507999, 0.044135776872280985, 0.059682136910851113, 0.07531144091626629, 0.09314541578351054, 0.10994992984342389, 0.12462589032656979, 0.14383953383367043, 0.15963882174401078, 0.17531181637605187, 0.19305499663460068, 0.2101936758554075, 0.22459247380902525, 0.24335453353705816, 0.2597354531608289, 0.2752094505704008, 0.2929000655130949, 0.3100114380795276, 0.3246802305657184, 0.34318799708853476, 0.3595610660413513, 0.37510401275358163, 0.39291750763368327, 0.41019681612669956, 0.42468401936639566, 0.4431044046068564, 0.4596174201433314, 0.47500847360061016, 0.49289091778337024, 0.5099268557241885, 0.5246963414974744, 0.5431477880483726, 0.559482286349521, 0.5749736917496193, 0.5927902586263372, 0.6098005965905031, 0.6248871808638796, 0.6431399715220323, 0.6594410191755742, 0.6749604138894938, 0.69293945535901, 0.7099859746231232, 0.7246701271069469, 0.7431638989801286, 0.7596188878815155, 0.7749430400435813, 0.7929466574860271, 0.809845038165804, 0.8247145345521858, 0.8432502904033754, 0.8595492900494719, 0.8750236287887674, 0.8928480463364394, 0.9102570614195429, 0.9246712193707936, 0.9431970765581354, 0.9595435215160251, 0.9749710976175265, 0.9929897337278817, 1.0099406797235133, 1.0248794667422771, 1.0431052920757793, 1.0594449103664374, 1.0749516757641686, 1.0927682426408865, 1.1099424205167452, 1.1246115543326596, 1.1431681315007154, 1.1593838458647951, 1.1749353259074269, 1.192677482162253, 1.2097560867405264, 1.22468053776538, 1.2432173176202923, 1.2654951088770758, 1.2752145705599105, 1.292700044272351, 1.309886168819503, 1.3248020865139551, 1.3429084452363895, 1.363953682463034, 1.3747346902819118, 1.3930584782210644, 1.409554768455564, 1.4248540032858727, 1.4428852687124163, 1.4634181648725644, 1.474744964405545, 1.5045105811586836, 1.5098548344249139, 1.524723989481572, 1.5431081934075337, 1.5594979876768775, 1.5752457342750859, 1.5946454043441918, 1.609833705908386, 1.6278205980343046, 1.6431566968385596, 1.6609790663933381, 1.674950515225646, 1.694192148046568, 1.7097487480787095, 1.7260805157275172, 1.7431068963342113, 1.760156146279769, 1.7750055040087318, 1.7932398626726354, 1.8098068088584114, 1.8247660758643178, 1.8428065572952619, 1.8592980688408716, 1.8747372502693906, 1.8927207290689694, 1.9097815843269927, 1.9245882754185004, 1.9428526714036707, 1.9593359909631545, 1.9747277270798804, 1.9943376583687495, 2.0106103753787465, 2.041454604914179, 2.0451454403664684, 2.0597753208712675, 2.075392336875666, 2.09319422642875]
12	蚂蚁	True	animate	inanimate	left	1.827	[0.0, 0.0, 0.0, 0.0, 0.0, 0.0, 0.0, 0.0, 0.0, 0.0, 0.0, 0.0, 0.0, 0.0, 0.0, 0.0, 0.0, 0.0, 0.0, 0.0, 0.0, 0.0, 0.0, 0.0, 0.0, 0.0, 0.0, 0.0, 0.0, 0.0, 0.0, 0.0, 0.0, 0.0, 0.0, 0.0, 0.0, 0.0, 0.0, 0.0, 0.0, 0.0, 2.0, 12.0, 38.0, 45.0, 79.0, 95.0, 106.0, 118.0, 118.0, 108.0, 79.0, 37.0, -24.0, -112.0, -208.0, -315.0, -438.0, -622.0, -685.0, -841.0, -931.0, -960.0, -960.0, -960.0, -960.0, -960.0, -960.0, -960.0, -960.0, -960.0, -960.0, -960.0, -960.0, -960.0, -960.0, -960.0, -960.0, -960.0, -960.0, -960.0, -960.0, -960.0, -960.0, -960.0, -960.0, -960.0, -960.0, -960.0, -960.0, -960.0, -960.0, -960.0, -960.0, -960.0, -960.0, -960.0, -960.0, -960.0, -960.0, -960.0, -960.0, -952.0, -944.0, -929.0, -919.0, -909.0, -906.0, -895.0, -890.0]	[-490.0, -490.0, -490.0, -490.0, -490.0, -490.0, -490.0, -490.0, -490.0, -490.0, -490.0, -490.0, -490.0, -490.0, -490.0, -490.0, -490.0, -490.0, -490.0, -490.0, -490.0, -490.0, -490.0, -490.0, -490.0, -490.0, -490.0, -490.0, -490.0, -490.0, -490.0, -490.0, -490.0, -490.0, -490.0, -490.0, -490.0, -490.0, -490.0, -490.0, -490.0, -490.0, -484.0, -448.0, -394.0, -381.0, -323.0, -287.0, -264.0, -207.0, -178.0, -143.0, -97.0, -46.0, 0.0, 55.0, 103.0, 145.0, 196.0, 273.0, 300.0, 375.0, 422.0, 450.0, 483.0, 488.0, 489.0, 489.0, 489.0, 489.0, 489.0, 489.0, 489.0, 489.0, 489.0, 489.0, 489.0, 489.0, 489.0, 489.0, 489.0, 489.0, 489.0, 489.0, 489.0, 489.0, 489.0, 489.0, 489.0, 489.0, 489.0, 489.0, 489.0, 489.0, 489.0, 489.0, 489.0, 489.0, 489.0, 489.0, 489.0, 489.0, 489.0, 486.0, 483.0, 474.0, 471.0, 468.0, 468.0, 464.0, 462.0]	[0.012991276540560648, 0.02132048828934785, 0.02686305611860007, 0.04277669063594658, 0.06073593476321548, 0.07449848772375844, 0.09272533706098329, 0.11024767474737018, 0.12456489408214111, 0.1471321358694695, 0.1644783456576988, 0.1740510340896435, 0.1927840805001324, 0.20915919744584244, 0.2245693655568175, 0.24307406008301768, 0.2610595868754899, 0.27462519059190527, 0.2930585464928299, 0.30968590863631107, 0.3249916288041277, 0.34281945967813954, 0.35934510454535484, 0.3745603714196477, 0.3936514763190644, 0.40968150543631054, 0.424692313754349, 0.44917545856151264, 0.4594591439526994, 0.4741753817506833, 0.49277838022680953, 0.5214541202149121, 0.5259105659351917, 0.5552624869014835, 0.5622669846488861, 0.5740289839595789, 0.5927746597008081, 0.6092419366032118, 0.6249070805788506, 0.6563858484587399, 0.6613932058971841, 0.6744160898961127, 0.6927723044937011, 0.717537390490179, 0.7242527790513122, 0.7441589875234058, 0.7594623183540534, 0.774315089409356, 0.7928597199206706, 0.8103718176280381, 0.8245695703517413, 0.8435248246532865, 0.8593862351990538, 0.8752913363859989, 0.8924945275794016, 0.9095751801651204, 0.924552879165276, 0.9425902885996038, 0.9593098106997786, 0.974231189728016, 0.9922296871809522, 1.0091178278671578, 1.0245058093132684, 1.0516141474363394, 1.0592722981818952, 1.0742687705060234, 1.0922167506505502, 1.1105125492758816, 1.1247290753381094, 1.142702996803564, 1.159035447111819, 1.175080153552699, 1.1929236857540673, 1.2119185346964514, 1.2240631684835535, 1.2426996176072862, 1.2596444195951335, 1.2742896600975655, 1.292332189521403, 1.3094370767648797, 1.3244990850507747, 1.3431208568508737, 1.3590549713699147, 1.3745371607656125, 1.3935675083630485, 1.4097231480845949, 1.424186116681085, 1.442779557823087, 1.473409088808694, 1.4839870034047635, 1.4927483429055428, 1.50903539590945, 1.5243732013914268, 1.5423146961984457, 1.5593479034723714, 1.5744058157724794, 1.6022381215152564, 1.609581904427614, 1.624180382292252, 1.642644116829615, 1.6670876669813879, 1.6743007192853838, 1.699591117008822, 1.7092262694059173, 1.7241923630790552, 1.7426513189566322, 1.7649717768654227, 1.774297340089106, 1.7923180241923546, 1.8095300900458824, 1.8243193731468637]
13	黑狗	True	animate	inanimate	left	1.357	[0.0, 0.0, 0.0, 0.0, 0.0, 0.0, 0.0, 0.0, 0.0, 0.0, 0.0, 0.0, 0.0, 0.0, 0.0, 0.0, 0.0, 0.0, 0.0, 0.0, 0.0, 0.0, 0.0, 0.0, 0.0, 0.0, 0.0, 0.0, 0.0, 0.0, 0.0, 0.0, 0.0, 0.0, 0.0, 1.0, 2.0, 7.0, 13.0, 15.0, 29.0, 51.0, 73.0, 99.0, 121.0, 143.0, 155.0, 162.0, 162.0, 159.0, 146.0, 138.0, 124.0, 89.0, 52.0, 28.0, 5.0, -40.0, -116.0, -243.0, -297.0, -449.0, -539.0, -627.0, -698.0, -761.0, -813.0, -845.0, -855.0, -855.0, -856.0, -856.0, -856.0, -856.0, -856.0, -856.0, -856.0, -856.0, -856.0, -856.0, -856.0, -856.0]	[-490.0, -490.0, -490.0, -490.0, -490.0, -490.0, -490.0, -490.0, -490.0, -490.0, -490.0, -490.0, -490.0, -490.0, -490.0, -490.0, -490.0, -490.0, -490.0, -490.0, -490.0, -490.0, -490.0, -490.0, -490.0, -490.0, -490.0, -490.0, -490.0, -490.0, -490.0, -490.0, -490.0, -490.0, -490.0, -490.0, -488.0, -480.0, -472.0, -466.0, -441.0, -405.0, -354.0, -295.0, -241.0, -204.0, -174.0, -139.0, -130.0, -94.0, -67.0, -52.0, -37.0, -11.0, 11.0, 22.0, 32.0, 44.0, 65.0, 103.0, 117.0, 164.0, 211.0, 258.0, 298.0, 339.0, 376.0, 404.0, 412.0, 412.0, 413.0, 413.0, 414.0, 415.0, 415.0, 416.0, 419.0, 421.0, 421.0, 421.0, 421.0, 421.0]	[0.014130885567283258, 0.018735811216174625, 0.022709611846948974, 0.04637185040337499, 0.055754757588147186, 0.07111577372415923, 0.08875553002872039, 0.10579385730670765, 0.12047152445302345, 0.1462657299125567, 0.15572099974087905, 0.17112638919206802, 0.18874771350238007, 0.20575566212937701, 0.22034253465244547, 0.2387328825716395, 0.2564211081917165, 0.27085028479632456, 0.28878188095404766, 0.30583761622256134, 0.32093307515606284, 0.33923331112600863, 0.35539987351512536, 0.37089912957162596, 0.389140314902761, 0.40593219963193405, 0.4204859628516715, 0.438860609443509, 0.4562955658475403, 0.470752390450798, 0.4889317944762297, 0.5058117431617575, 0.5203214743960416, 0.5387483449740103, 0.5565178078686586, 0.5708408298669383, 0.5900514013628708, 0.6070808539807331, 0.6208898282493465, 0.6390917602548143, 0.6554358158900868, 0.6709528212813893, 0.6893377078667982, 0.7056455821875716, 0.721581062025507, 0.7393853409012081, 0.756834291969426, 0.7708262208034284, 0.7901682055671699, 0.8071300742158201, 0.8209182271675672, 0.839026633897447, 0.8553321188810514, 0.8709221695607994, 0.8893459681275999, 0.9054534798779059, 0.9215732796292286, 0.9390055053663673, 0.956037005977123, 0.9708655423892196, 0.9920387795427814, 1.005663092568284, 1.0209585727425292, 1.039069368809578, 1.0552174992044456, 1.0709178004908608, 1.0890832098666579, 1.1060556598386029, 1.1205118017678615, 1.1388762083661277, 1.1561186528706457, 1.1707847147044959, 1.1888129081344232, 1.2058068620972335, 1.2205650838732254, 1.2389926371106412, 1.2553465914097615, 1.270926402095938, 1.288634083699435, 1.3057464802695904, 1.320575016667135, 1.338880713970866]
14	皇帝	True	inanimate	animate	right	1.029	[0.0, 0.0, 0.0, 0.0, 0.0, 0.0, 0.0, 0.0, 0.0, 0.0, 0.0, 0.0, 0.0, 0.0, 0.0, 0.0, 0.0, 0.0, 0.0, 0.0, 0.0, 0.0, 0.0, 0.0, 0.0, 0.0, 0.0, 3.0, 8.0, 11.0, 18.0, 29.0, 36.0, 40.0, 58.0, 77.0, 100.0, 126.0, 155.0, 181.0, 213.0, 258.0, 311.0, 399.0, 507.0, 507.0, 625.0, 707.0, 769.0, 807.0, 810.0, 817.0, 819.0, 820.0, 820.0, 820.0, 820.0, 820.0, 820.0, 820.0, 820.0, 820.0, 820.0]	[-490.0, -490.0, -490.0, -490.0, -490.0, -490.0, -490.0, -490.0, -490.0, -490.0, -490.0, -490.0, -490.0, -490.0, -490.0, -490.0, -490.0, -490.0, -490.0, -490.0, -490.0, -490.0, -490.0, -490.0, -490.0, -490.0, -490.0, -477.0, -455.0, -444.0, -419.0, -388.0, -362.0, -339.0, -283.0, -242.0, -195.0, -153.0, -107.0, -68.0, -22.0, 29.0, 86.0, 165.0, 248.0, 248.0, 322.0, 362.0, 390.0, 406.0, 408.0, 412.0, 412.0, 412.0, 412.0, 412.0, 412.0, 412.0, 413.0, 413.0, 413.0, 413.0, 413.0]	[0.00741355141508393, 0.01221849829016719, 0.016102186957141384, 0.0387527140264865, 0.04865069295919966, 0.063395602745004, 0.08137771621113643, 0.10474333624006249, 0.11296263869735412, 0.13132567996217404, 0.14863741509907413, 0.16330040493630804, 0.18132006503583398, 0.19836863230739255, 0.21351460854930338, 0.23177490853413474, 0.24803465488366783, 0.26355302560841665, 0.28174437629058957, 0.2985260210261913, 0.3132265574968187, 0.3314960734860506, 0.3486852700152667, 0.36339775314263534, 0.3828745645150775, 0.39970604388508946, 0.41307606371992733, 0.43699088880384807, 0.44798079250904266, 0.4635080378939165, 0.4817301085568033, 0.4984506546607008, 0.5130832658469444, 0.5315456350508612, 0.5486508636386134, 0.5633572027727496, 0.5814485428418266, 0.5983438515249873, 0.6135348837415222, 0.631730330424034, 0.6479364874685416, 0.6635507728060475, 0.6816895581869176, 0.6985548295488115, 0.7130532967858016, 0.7378593427565647, 0.7483317853912013, 0.7630251538794255, 0.7870208749227459, 0.7977994934044546, 0.8134997946908697, 0.8311648096569115, 0.8482362462382298, 0.8629692093672929, 0.8811861600406701, 0.8990825988730649, 0.9134527248534141, 0.9327093763276935, 0.9495353943784721, 0.9629910888179438, 0.9877401321573416, 0.9980777481978294, 1.0143453451892128]
15	花瓶	False	animate	inanimate	right	1.126	[0.0, 0.0, 0.0, 0.0, 0.0, 0.0, 0.0, 0.0, 0.0, 0.0, 0.0, 0.0, 0.0, 0.0, 0.0, 0.0, 0.0, 0.0, 0.0, 0.0, 0.0, 0.0, 0.0, 0.0, 0.0, 0.0, 0.0, 0.0, 0.0, 0.0, 0.0, 0.0, 0.0, 0.0, 0.0, 0.0, 0.0, -1.0, -6.0, -19.0, -65.0, -106.0, -108.0, -114.0, -118.0, -118.0, -101.0, -60.0, -5.0, 60.0, 145.0, 319.0, 383.0, 570.0, 628.0, 790.0, 868.0, 917.0, 939.0, 944.0, 944.0, 944.0, 944.0, 944.0, 944.0, 944.0, 944.0]	[-490.0, -490.0, -490.0, -490.0, -490.0, -490.0, -490.0, -490.0, -490.0, -490.0, -490.0, -490.0, -490.0, -490.0, -490.0, -490.0, -490.0, -490.0, -490.0, -490.0, -490.0, -490.0, -490.0, -490.0, -490.0, -490.0, -490.0, -490.0, -490.0, -490.0, -490.0, -490.0, -490.0, -490.0, -490.0, -490.0, -490.0, -490.0, -489.0, -470.0, -402.0, -307.0, -289.0, -248.0, -218.0, -169.0, -107.0, -28.0, 44.0, 103.0, 164.0, 269.0, 305.0, 385.0, 410.0, 477.0, 507.0, 522.0, 531.0, 534.0, 534.0, 534.0, 534.0, 534.0, 534.0, 534.0, 534.0]	[0.011738140121451579, 0.01819855280336924, 0.023581035391543992, 0.047381855198182166, 0.05634321593970526, 0.07205068523762748, 0.08980103347857948, 0.11420737831213046, 0.12130744935711846, 0.14634969786857255, 0.15678561785898637, 0.17136190905875992, 0.18976079030835535, 0.20650557105545886, 0.22171878993685823, 0.24276163782633375, 0.2564678708149586, 0.27190807624720037, 0.29996600320737343, 0.3103350219025742, 0.32137646691990085, 0.3400719666824443, 0.356953622031142, 0.37196784367552027, 0.39008649039897136, 0.40659302061249036, 0.42183559414115734, 0.4398631049116375, 0.46276553586358204, 0.47154155270254705, 0.49399717853520997, 0.5066398173948983, 0.5218851215904579, 0.5398573363927426, 0.5564761652058223, 0.5718187493621372, 0.6070122460077982, 0.613123474875465, 0.6213758866506396, 0.6399983411101857, 0.6567018205678323, 0.6716798608977115, 0.6919782611657865, 0.706710200291127, 0.7216363579791505, 0.7400673245429061, 0.7580357846745756, 0.7718904975918122, 0.7899685256561497, 0.806511919858167, 0.8246179372508777, 0.8399649587372551, 0.8572060379083268, 0.8718553743965458, 0.8897268959262874, 0.9069365724426461, 0.9217395088635385, 0.9397926196252229, 0.9564039391116239, 0.971546502027195, 0.9897467273694929, 1.00653042011254, 1.0247053868079092, 1.0397196084522875, 1.0579171031422447, 1.071749629394617, 1.090065908007091]
16	桥梁	False	inanimate	animate	left	1.399	[0.0, 0.0, 0.0, 0.0, 0.0, 0.0, 0.0, 0.0, 0.0, 0.0, 0.0, 0.0, 0.0, 0.0, 0.0, 0.0, 0.0, 0.0, 0.0, 0.0, 0.0, 0.0, 0.0, 0.0, 0.0, 0.0, 0.0, 0.0, 0.0, -1.0, 3.0, 9.0, 20.0, 38.0, 66.0, 79.0, 107.0, 139.0, 172.0, 206.0, 295.0, 317.0, 341.0, 410.0, 473.0, 493.0, 550.0, 564.0, 580.0, 587.0, 588.0, 588.0, 590.0, 594.0, 604.0, 617.0, 636.0, 644.0, 656.0, 657.0, 657.0, 634.0, 526.0, 473.0, 301.0, 199.0, 102.0, 1.0, -109.0, -219.0, -336.0, -441.0, -550.0, -645.0, -718.0, -770.0, -807.0, -810.0, -810.0, -810.0, -810.0, -810.0, -810.0, -810.0]	[-490.0, -490.0, -490.0, -490.0, -490.0, -490.0, -490.0, -490.0, -490.0, -490.0, -490.0, -490.0, -490.0, -490.0, -490.0, -490.0, -490.0, -490.0, -490.0, -490.0, -490.0, -490.0, -490.0, -490.0, -490.0, -490.0, -490.0, -490.0, -490.0, -487.0, -469.0, -449.0, -424.0, -393.0, -346.0, -329.0, -292.0, -250.0, -212.0, -172.0, -79.0, -61.0, -35.0, 28.0, 81.0, 96.0, 143.0, 153.0, 167.0, 174.0, 177.0, 178.0, 191.0, 200.0, 213.0, 229.0, 248.0, 255.0, 268.0, 275.0, 285.0, 319.0, 400.0, 428.0, 490.0, 499.0, 499.0, 499.0, 490.0, 479.0, 477.0, 477.0, 475.0, 475.0, 475.0, 475.0, 480.0, 480.0, 480.0, 480.0, 480.0, 480.0, 480.0, 480.0]	[0.010310445926734246, 0.014377089173649438, 0.02106994975474663, 0.03688391498872079, 0.053346413231338374, 0.06858830408600625, 0.08673323346010875, 0.10341657426033635, 0.11871819841326214, 0.13662829058011994, 0.15336180734448135, 0.16881805543380324, 0.18671210494358093, 0.2033852057356853, 0.2184420940320706, 0.23650578611704987, 0.2544745875784429, 0.2684013217804022, 0.2871060375327943, 0.3032319812773494, 0.31856739743670914, 0.3365617988893064, 0.35378820073674433, 0.36834128128248267, 0.3869128771038959, 0.4032439620787045, 0.4187456074723741, 0.43658470234367996, 0.4535694403166417, 0.46855601397692226, 0.4869620632089209, 0.5034221721143695, 0.518801278914907, 0.5405165531265084, 0.5532571546063991, 0.5683737762010423, 0.5868214680813253, 0.6031443610554561, 0.6186204064724734, 0.6448679023596924, 0.6532165700918995, 0.6683536716736853, 0.6867795182333793, 0.7075547609420028, 0.7182883234345354, 0.7367469379969407, 0.7533527961495565, 0.7682864631788107, 0.7867358617222635, 0.8088382077403367, 0.8183808588655666, 0.8424561105348403, 0.8533671662735287, 0.8684257612330839, 0.8868748184613651, 0.9069817308336496, 0.9184464289573953, 0.9395234101684764, 0.9534368323802482, 0.9685729099583114, 0.9867628953215899, 1.0053478031331906, 1.0186010870093014, 1.0380475197307533, 1.0534549571748357, 1.0711029054655228, 1.0868653294019168, 1.104381864424795, 1.1186850891099311, 1.1367238638631534, 1.153375802008668, 1.1683326796774054, 1.1863929584360449, 1.203071861891658, 1.2185001206671586, 1.2364166981569724, 1.253207217567251, 1.2683064311713679, 1.2863305286009563, 1.3043686206947314, 1.3185250721144257, 1.3371662999124965, 1.3538322327076457, 1.3712450024613645]
17	孔雀	True	animate	inanimate	left	1.121	[0.0, 0.0, 0.0, 0.0, 0.0, 0.0, 0.0, 0.0, 0.0, 0.0, 0.0, 0.0, 0.0, 0.0, 0.0, 0.0, 0.0, 0.0, 0.0, 0.0, 0.0, 0.0, 0.0, 0.0, 0.0, 0.0, 0.0, 0.0, 0.0, 0.0, 2.0, 27.0, 67.0, 107.0, 168.0, 251.0, 337.0, 405.0, 450.0, 476.0, 495.0, 499.0, 499.0, 499.0, 499.0, 499.0, 499.0, 499.0, 499.0, 450.0, 360.0, 244.0, 106.0, -58.0, -232.0, -478.0, -611.0, -721.0, -800.0, -832.0, -846.0, -847.0, -847.0, -847.0, -847.0, -847.0, -847.0, -847.0]	[-490.0, -490.0, -490.0, -490.0, -490.0, -490.0, -490.0, -490.0, -490.0, -490.0, -490.0, -490.0, -490.0, -490.0, -490.0, -490.0, -490.0, -490.0, -490.0, -490.0, -490.0, -490.0, -490.0, -490.0, -490.0, -490.0, -490.0, -490.0, -490.0, -490.0, -490.0, -454.0, -387.0, -318.0, -219.0, -97.0, 30.0, 148.0, 237.0, 292.0, 327.0, 337.0, 337.0, 337.0, 337.0, 337.0, 337.0, 337.0, 341.0, 351.0, 364.0, 380.0, 401.0, 416.0, 425.0, 448.0, 455.0, 464.0, 475.0, 482.0, 486.0, 486.0, 486.0, 486.0, 486.0, 486.0, 486.0, 486.0]	[0.013199728724430315, 0.018211523492936976, 0.024269504385301843, 0.04278512157907244, 0.05944388637726661, 0.07459805461985525, 0.092621810734272, 0.10971270331356209, 0.12443645043822471, 0.1431660835223738, 0.15952003780694213, 0.17464997139177285, 0.19279114610981196, 0.20971888143685646, 0.2244624258892145, 0.24308522169303615, 0.2633163793361746, 0.2745308802550426, 0.2955081921827514, 0.30972779024159536, 0.3246768172539305, 0.3432057464233367, 0.3617858755751513, 0.3748558635561494, 0.39445828551833984, 0.40973772303550504, 0.42729692471039016, 0.44298493801034056, 0.46045846506603993, 0.47479309239133727, 0.4935677814501105, 0.5095742585835978, 0.5250881919782842, 0.5429737081431085, 0.5597171235713176, 0.5747832278575515, 0.5929008505772799, 0.6097326713061193, 0.624441058433149, 0.6425986171379918, 0.661883599270368, 0.6745508141175378, 0.694537918549031, 0.7093022843182553, 0.7249111083219759, 0.7426440485869534, 0.7600243916822365, 0.7744877016084502, 0.7934999585413607, 0.8092422438203357, 0.8248418518342078, 0.8428068986395374, 0.859616874018684, 0.8744471170939505, 0.8930958542187, 0.9091576273349347, 0.9247920513298595, 0.9428042021027068, 0.959677324121003, 0.9747301164170494, 0.9929883684089873, 1.0093877200124552, 1.0247999361163238, 1.0428366628912045, 1.0598074061999796, 1.0747096705599688, 1.093129714470706, 1.109226644897717]
18	观众	True	animate	inanimate	left	1.451	[0.0, 0.0, 0.0, 0.0, 0.0, 0.0, 0.0, 0.0, 0.0, 0.0, 0.0, 0.0, 0.0, 0.0, 0.0, 0.0, 0.0, 0.0, 0.0, 0.0, 0.0, 0.0, 0.0, 4.0, 10.0, 53.0, 101.0, 164.0, 256.0, 284.0, 357.0, 426.0, 489.0, 547.0, 603.0, 663.0, 704.0, 728.0, 751.0, 755.0, 757.0, 758.0, 758.0, 758.0, 759.0, 759.0, 759.0, 760.0, 760.0, 761.0, 762.0, 762.0, 762.0, 762.0, 762.0, 762.0, 762.0, 762.0, 762.0, 762.0, 762.0, 762.0, 756.0, 753.0, 748.0, 743.0, 730.0, 695.0, 605.0, 473.0, 216.0, 134.0, -41.0, -319.0, -484.0, -628.0, -736.0, -783.0, -803.0, -803.0, -803.0, -803.0, -803.0, -803.0, -803.0, -803.0, -803.0, -803.0]	[-490.0, -490.0, -490.0, -490.0, -490.0, -490.0, -490.0, -490.0, -490.0, -490.0, -490.0, -490.0, -490.0, -490.0, -490.0, -490.0, -490.0, -490.0, -490.0, -490.0, -490.0, -490.0, -490.0, -481.0, -471.0, -400.0, -332.0, -259.0, -136.0, -100.0, -19.0, 64.0, 137.0, 201.0, 261.0, 320.0, 363.0, 392.0, 419.0, 425.0, 428.0, 429.0, 431.0, 432.0, 434.0, 434.0, 435.0, 438.0, 438.0, 440.0, 440.0, 440.0, 440.0, 440.0, 440.0, 440.0, 440.0, 440.0, 440.0, 440.0, 440.0, 440.0, 441.0, 441.0, 441.0, 441.0, 441.0, 441.0, 441.0, 441.0, 469.0, 480.0, 499.0, 499.0, 496.0, 475.0, 461.0, 454.0, 453.0, 453.0, 453.0, 453.0, 453.0, 453.0, 453.0, 453.0, 453.0, 453.0]	[0.004730672779260203, 0.008893230653484352, 0.015797717787791044, 0.030039502496947534, 0.047741040092660114, 0.062059283431153744, 0.07983762100047898, 0.09683840163052082, 0.11164065537741408, 0.13702662638388574, 0.14716285586473532, 0.16192551497078966, 0.18029538290284108, 0.20331216044723988, 0.21146865759510547, 0.22999485611217096, 0.24646964234125335, 0.26197913840587717, 0.280553464894183, 0.29674801661167294, 0.3143608075915836, 0.33038674072304275, 0.3472629347379552, 0.36194811122550163, 0.3805821710120654, 0.3973153464467032, 0.4118356590188341, 0.4303659535216866, 0.4472069902403746, 0.4618870467238594, 0.4804395278915763, 0.49687881546560675, 0.5120575596956769, 0.5299536571983481, 0.5464127421146259, 0.5620812994166045, 0.5796944317407906, 0.5968037563143298, 0.6118497219431447, 0.6303090191504452, 0.6474279010581085, 0.6619215896353126, 0.6804597348091193, 0.7037308055587346, 0.7116855748172384, 0.730301885298104, 0.7471835406468017, 0.7618909037846606, 0.7802979770349339, 0.7968055312376237, 0.811849448873545, 0.8303456100693438, 0.8472327267518267, 0.8618998125748476, 0.8802990351541666, 0.896796349377837, 0.9119928429281572, 0.9299957777111558, 0.946338468012982, 0.962029211979825, 0.9797235815931344, 1.0029100017127348, 1.0115040879900334, 1.0300831931381254, 1.0471078670816496, 1.0619029528461397, 1.0804810340050608, 1.0972278627596097, 1.1115532740950584, 1.1352800246095285, 1.146261053654598, 1.1620739948848495, 1.1805507000972284, 1.1965776572324103, 1.214505498719518, 1.2315090100019006, 1.2471837113116635, 1.2618852717860136, 1.2802063290728256, 1.2968538298882777, 1.311886483526905, 1.3304198500263738, 1.3472793187393108, 1.3618870125937974, 1.3803835151193198, 1.3968241680267965, 1.4117977710266132, 1.430320556217339]
19	炸弹	False	animate	inanimate	right	1.063	[0.0, 0.0, 0.0, 0.0, 0.0, 0.0, 0.0, 0.0, 0.0, 0.0, 0.0, 0.0, 0.0, 0.0, 0.0, 0.0, 0.0, 0.0, 0.0, 0.0, 0.0, 0.0, 0.0, 0.0, 0.0, 0.0, 0.0, 0.0, 0.0, 0.0, 0.0, 0.0, 0.0, 0.0, 0.0, 0.0, 0.0, 0.0, 3.0, 9.0, 29.0, 57.0, 80.0, 148.0, 214.0, 287.0, 379.0, 465.0, 538.0, 606.0, 666.0, 725.0, 787.0, 805.0, 810.0, 813.0, 813.0, 813.0, 813.0, 813.0, 813.0, 813.0, 813.0, 813.0]	[-490.0, -490.0, -490.0, -490.0, -490.0, -490.0, -490.0, -490.0, -490.0, -490.0, -490.0, -490.0, -490.0, -490.0, -490.0, -490.0, -490.0, -490.0, -490.0, -490.0, -490.0, -490.0, -490.0, -490.0, -490.0, -490.0, -490.0, -490.0, -490.0, -490.0, -490.0, -490.0, -490.0, -490.0, -490.0, -490.0, -490.0, -490.0, -486.0, -470.0, -430.0, -375.0, -338.0, -210.0, -120.0, -37.0, 45.0, 119.0, 188.0, 250.0, 307.0, 357.0, 415.0, 430.0, 435.0, 439.0, 439.0, 439.0, 439.0, 439.0, 439.0, 439.0, 439.0, 439.0]	[0.005522565697901882, 0.013684182864381, 0.020288638144847937, 0.038387487540603615, 0.055401580160832964, 0.07017755127162673, 0.08882662972609978, 0.10524475465354044, 0.12053204281255603, 0.13872783083934337, 0.1554903609212488, 0.17032231065968517, 0.18883690384973306, 0.20698012656066567, 0.22055050893686712, 0.23962932583526708, 0.25543407507939264, 0.27170269608905073, 0.2887485326937167, 0.30580119596561417, 0.32069458566547837, 0.33859238984587137, 0.3555692771478789, 0.37052513082744554, 0.3885307962773368, 0.414055007204297, 0.4201481454219902, 0.4389689144445583, 0.45537133804464247, 0.4702544877654873, 0.48851342241687234, 0.5051145019097021, 0.5202997314772801, 0.5397570868371986, 0.5551979749434395, 0.5708777962427121, 0.5886561338120373, 0.6054227598942816, 0.6202966936107259, 0.6389543053810485, 0.6552990436903201, 0.6708112704072846, 0.688563666655682, 0.7055722979421262, 0.7204537409998011, 0.7390260194806615, 0.7551700538897421, 0.7706235713121714, 0.7885183034813963, 0.8053067748842295, 0.8203807298268657, 0.8387564004224259, 0.8550042001006659, 0.870554656139575, 0.8883647376933368, 0.9053119290183531, 0.9205121772247367, 0.9386557412799448, 0.9652213596709771, 0.9702519277634565, 0.9887887076038169, 1.0054164110915735, 1.0202237848425284, 1.0387404260254698]
20	桥梁	False	animate	inanimate	right	2.248	[0.0, 0.0, 0.0, 0.0, 0.0, 0.0, 0.0, 0.0, 0.0, 0.0, 0.0, 0.0, 0.0, 0.0, 0.0, 0.0, 0.0, 0.0, 0.0, 0.0, 0.0, 0.0, 0.0, 0.0, 0.0, 0.0, 0.0, 0.0, 0.0, 0.0, 0.0, 0.0, 0.0, 0.0, 0.0, 0.0, 0.0, 0.0, 0.0, -6.0, -42.0, -62.0, -108.0, -151.0, -173.0, -181.0, -200.0, -229.0, -279.0, -357.0, -447.0, -547.0, -644.0, -735.0, -812.0, -897.0, -919.0, -928.0, -935.0, -937.0, -939.0, -942.0, -942.0, -942.0, -939.0, -933.0, -930.0, -909.0, -903.0, -903.0, -893.0, -888.0, -885.0, -883.0, -881.0, -879.0, -877.0, -876.0, -875.0, -874.0, -874.0, -874.0, -874.0, -874.0, -874.0, -874.0, -874.0, -874.0, -874.0, -874.0, -874.0, -874.0, -874.0, -874.0, -874.0, -874.0, -874.0, -874.0, -874.0, -874.0, -874.0, -874.0, -874.0, -874.0, -874.0, -874.0, -874.0, -874.0, -874.0, -874.0, -874.0, -873.0, -856.0, -770.0, -720.0, -556.0, -429.0, -283.0, -83.0, 226.0, 324.0, 489.0, 624.0, 722.0, 780.0, 804.0, 812.0, 812.0, 812.0, 812.0, 812.0, 812.0, 812.0, 812.0, 812.0, 812.0]	[-490.0, -490.0, -490.0, -490.0, -490.0, -490.0, -490.0, -490.0, -490.0, -490.0, -490.0, -490.0, -490.0, -490.0, -490.0, -490.0, -490.0, -490.0, -490.0, -490.0, -490.0, -490.0, -490.0, -490.0, -490.0, -490.0, -490.0, -490.0, -490.0, -490.0, -490.0, -490.0, -490.0, -490.0, -490.0, -490.0, -490.0, -490.0, -490.0, -471.0, -407.0, -375.0, -314.0, -264.0, -236.0, -224.0, -198.0, -162.0, -106.0, -35.0, 29.0, 98.0, 156.0, 210.0, 253.0, 303.0, 316.0, 322.0, 327.0, 332.0, 340.0, 352.0, 357.0, 361.0, 370.0, 379.0, 384.0, 399.0, 403.0, 403.0, 410.0, 414.0, 416.0, 418.0, 419.0, 422.0, 423.0, 425.0, 427.0, 428.0, 430.0, 430.0, 430.0, 430.0, 430.0, 430.0, 430.0, 430.0, 430.0, 430.0, 430.0, 430.0, 430.0, 430.0, 430.0, 430.0, 430.0, 430.0, 430.0, 430.0, 430.0, 430.0, 430.0, 430.0, 430.0, 430.0, 430.0, 430.0, 430.0, 430.0, 430.0, 431.0, 435.0, 449.0, 453.0, 479.0, 497.0, 518.0, 540.0, 540.0, 540.0, 540.0, 540.0, 540.0, 540.0, 540.0, 540.0, 540.0, 540.0, 540.0, 540.0, 540.0, 540.0, 540.0, 540.0, 540.0]	[0.01463240638258867, 0.023774332366883755, 0.030508152922266163, 0.045484486588975415, 0.062448744574794546, 0.07739777158712968, 0.09574818352120928, 0.11204888984502759, 0.1275611165619921, 0.14562071264663246, 0.16263514661113732, 0.17723396580549888, 0.1957997589634033, 0.22154174045135733, 0.22710649493092205, 0.2549019366997527, 0.2622849729232257, 0.27723297593183815, 0.29576531844213605, 0.31618625731789507, 0.3272942623007111, 0.3454197356913937, 0.36237580167653505, 0.3771572341065621, 0.3957523819117341, 0.41210633621085435, 0.42758716028765775, 0.45247444354754407, 0.46239392647112254, 0.4771405429200968, 0.49587324798631016, 0.5122418796090642, 0.5274134558421792, 0.5458649023930775, 0.5624444779095938, 0.5773528862773674, 0.5959333567589056, 0.6152388188784244, 0.6273745779908495, 0.648029671414406, 0.6622874987806426, 0.6773938803817146, 0.6957879829715239, 0.7134642619203078, 0.7275149000488454, 0.7467783781903563, 0.7624250901862979, 0.7789763350447174, 0.7957361344597302, 0.8130512829229701, 0.8275053768593352, 0.8458571541268611, 0.8623257963627111, 0.8776106952136615, 0.895586323342286, 0.9120566722413059, 0.927304024429759, 0.9453677165147383, 0.9623073985130759, 0.9771417375741294, 0.9953303576039616, 1.0136097722424893, 1.0271310026582796, 1.0464531900943257, 1.063025597613887, 1.0775186035170918, 1.095777538168477, 1.1193298674479593, 1.1271808714227518, 1.1460053951159352, 1.162145333524677, 1.1775302429741714, 1.1953758231829852, 1.2128182889136951, 1.2274437320884317, 1.246571359632071, 1.2623501675552689, 1.2770865440106718, 1.2953628866525833, 1.3126268351479666, 1.327239648991963, 1.3451951384631684, 1.3621829484327463, 1.3775388445792487, 1.3960032617906108, 1.4286551917321049, 1.4339482450304786, 1.4457590549864108, 1.4625738090398954, 1.4787157954415306, 1.4959981759311631, 1.5131348071445245, 1.5271478986396687, 1.5457048171374481, 1.5737395334581379, 1.5807232098741224, 1.6021940895589069, 1.6122627350705443, 1.6276766578375828, 1.6467353360785637, 1.6701460120966658, 1.6772744137851987, 1.7111629937571706, 1.717127790703671, 1.727026793640107, 1.7457205867394805, 1.762124375673011, 1.7775116744596744, 1.7951968280685833, 1.8123276566329878, 1.8270770037488546, 1.8456390422361437, 1.8647291231318377, 1.8773246580240084, 1.895683944618213, 1.9121618028439116, 1.927341912407428, 1.9457657109742286, 1.9700549785484327, 1.9772690548415994, 1.9970315620594192, 2.012371074204566, 2.0272351092717145, 2.045446257281583, 2.0631467708735727, 2.077563659491716, 2.095790508828941, 2.1123035243799677, 2.1273785033263266, 2.1452431981742848, 2.164479028331698, 2.1772981364338193, 2.197227555559948, 2.2120086466602515, 2.2275649053626694, 2.2452862402860774]
21	蜻蜓	True	inanimate	animate	right	1.733	[0.0, 0.0, 0.0, 0.0, 0.0, 0.0, 0.0, 0.0, 0.0, 0.0, 0.0, 0.0, 0.0, 0.0, 0.0, 0.0, 0.0, 0.0, 0.0, 0.0, 0.0, 0.0, 0.0, 0.0, 0.0, 0.0, 0.0, 0.0, 0.0, 0.0, 0.0, 0.0, 0.0, 0.0, 41.0, 74.0, 124.0, 177.0, 228.0, 290.0, 358.0, 429.0, 491.0, 541.0, 625.0, 658.0, 734.0, 746.0, 749.0, 749.0, 749.0, 749.0, 749.0, 749.0, 733.0, 706.0, 603.0, 544.0, 347.0, 211.0, 63.0, -80.0, -205.0, -307.0, -384.0, -438.0, -460.0, -462.0, -462.0, -463.0, -450.0, -410.0, -321.0, -197.0, -57.0, 79.0, 271.0, 330.0, 425.0, 520.0, 653.0, 685.0, 739.0, 754.0, 756.0, 757.0, 757.0, 757.0, 757.0, 757.0, 757.0, 757.0, 757.0, 757.0, 757.0, 757.0, 757.0, 757.0, 757.0, 757.0, 757.0, 757.0, 757.0, 757.0]	[-490.0, -490.0, -490.0, -490.0, -490.0, -490.0, -490.0, -490.0, -490.0, -490.0, -490.0, -490.0, -490.0, -490.0, -490.0, -490.0, -490.0, -490.0, -490.0, -490.0, -490.0, -490.0, -490.0, -490.0, -490.0, -490.0, -490.0, -490.0, -490.0, -490.0, -490.0, -490.0, -486.0, -470.0, -359.0, -281.0, -188.0, -97.0, -6.0, 86.0, 176.0, 254.0, 309.0, 347.0, 389.0, 401.0, 425.0, 429.0, 430.0, 430.0, 430.0, 430.0, 430.0, 431.0, 439.0, 445.0, 447.0, 447.0, 447.0, 447.0, 447.0, 447.0, 447.0, 447.0, 449.0, 455.0, 459.0, 460.0, 460.0, 461.0, 468.0, 475.0, 486.0, 498.0, 498.0, 500.0, 500.0, 500.0, 500.0, 500.0, 500.0, 500.0, 500.0, 500.0, 500.0, 500.0, 500.0, 500.0, 500.0, 500.0, 500.0, 500.0, 500.0, 500.0, 500.0, 500.0, 500.0, 500.0, 500.0, 500.0, 500.0, 500.0, 500.0, 500.0]	[0.014524101352435537, 0.026095295426785015, 0.033538747622515075, 0.04538232555205468, 0.06284970861452166, 0.07732633053092286, 0.09516235340561252, 0.11197915546654258, 0.12720807566074654, 0.14522568776737899, 0.16186328991898336, 0.1770348661520984, 0.1951705795363523, 0.2118443630024558, 0.2301879482693039, 0.24523937523190398, 0.2636228964838665, 0.27700622829433996, 0.2962679997726809, 0.31183654646156356, 0.3276286663749488, 0.3451544174022274, 0.36252213118132204, 0.3769274144724477, 0.39599906337389257, 0.41207824448065367, 0.42753961255948525, 0.44531453678791877, 0.4625317226455081, 0.47689263262145687, 0.4955191830813419, 0.5120659906096989, 0.5275369160226546, 0.5453193495923188, 0.5622614209132735, 0.5772032799286535, 0.595444123930065, 0.6120492994232336, 0.6274707315315027, 0.6451220931630814, 0.662389113655081, 0.6771237834327621, 0.6953943234111648, 0.7119254296267172, 0.72741649368254, 0.7452306712366408, 0.7620887746015796, 0.7769333536707563, 0.795465013521607, 0.8119172717561014, 0.8273049118870404, 0.8451945240522036, 0.8622768833010923, 0.8771228277037153, 0.8954326209932333, 0.9120040045090718, 0.9274725405994104, 0.9451460888813017, 0.962360885401722, 0.9769696032453794, 0.9955627030722098, 1.0116391534975264, 1.027343209454557, 1.0449471257743426, 1.0621230103133712, 1.0768552907829871, 1.0953156119940104, 1.1117255449207732, 1.127217291665147, 1.1450512665323913, 1.1621814124227967, 1.1769447542028502, 1.1954467180621577, 1.2140039778896607, 1.2274146163545083, 1.2486639708076837, 1.2620169239671668, 1.277008617631509, 1.2954293442016933, 1.3153345286700642, 1.3271572852827376, 1.347442373575177, 1.3622091286815703, 1.3797587730223313, 1.3953962690138724, 1.4131926972331712, 1.4272597193630645, 1.4463399015949108, 1.4622951787605416, 1.478148397320183, 1.4952604525460629, 1.5121072919282597, 1.5274481694068527, 1.5450165870715864, 1.561741911849822, 1.5801820944034262, 1.5950945987715386, 1.6136334266193444, 1.627152950357413, 1.6453552237071563, 1.6616453486931277, 1.6800240912853042, 1.6954001260746736, 1.7147096841945313]
22	雪花	False	inanimate	animate	left	1.801	[0.0, 0.0, 0.0, 0.0, 0.0, 0.0, 0.0, 0.0, 0.0, 0.0, 0.0, 0.0, 0.0, 0.0, 0.0, 0.0, 0.0, 0.0, 0.0, 0.0, 0.0, 0.0, 0.0, 0.0, 0.0, 0.0, 0.0, 0.0, 0.0, 0.0, 1.0, 24.0, 60.0, 107.0, 157.0, 215.0, 270.0, 364.0, 421.0, 447.0, 500.0, 524.0, 539.0, 556.0, 580.0, 589.0, 607.0, 612.0, 623.0, 628.0, 636.0, 638.0, 647.0, 659.0, 668.0, 676.0, 682.0, 682.0, 682.0, 682.0, 682.0, 682.0, 682.0, 682.0, 682.0, 682.0, 680.0, 640.0, 542.0, 383.0, 212.0, 45.0, -117.0, -323.0, -442.0, -496.0, -605.0, -636.0, -646.0, -648.0, -648.0, -648.0, -648.0, -648.0, -648.0, -648.0, -648.0, -648.0, -648.0, -648.0, -648.0, -648.0, -648.0, -648.0, -648.0, -648.0, -648.0, -648.0, -648.0, -649.0, -667.0, -691.0, -698.0, -710.0, -713.0, -713.0, -713.0, -713.0, -713.0]	[-490.0, -490.0, -490.0, -490.0, -490.0, -490.0, -490.0, -490.0, -490.0, -490.0, -490.0, -490.0, -490.0, -490.0, -490.0, -490.0, -490.0, -490.0, -490.0, -490.0, -490.0, -490.0, -490.0, -490.0, -490.0, -490.0, -490.0, -490.0, -490.0, -490.0, -468.0, -412.0, -355.0, -299.0, -233.0, -163.0, -101.0, 10.0, 82.0, 115.0, 192.0, 225.0, 246.0, 270.0, 302.0, 312.0, 336.0, 343.0, 358.0, 366.0, 376.0, 380.0, 391.0, 404.0, 414.0, 421.0, 427.0, 427.0, 427.0, 427.0, 427.0, 427.0, 427.0, 427.0, 427.0, 427.0, 428.0, 433.0, 446.0, 467.0, 496.0, 520.0, 540.0, 540.0, 540.0, 540.0, 540.0, 540.0, 540.0, 540.0, 540.0, 540.0, 540.0, 540.0, 540.0, 540.0, 540.0, 540.0, 540.0, 540.0, 540.0, 540.0, 540.0, 540.0, 540.0, 540.0, 540.0, 540.0, 540.0, 540.0, 528.0, 508.0, 502.0, 495.0, 493.0, 493.0, 493.0, 493.0, 493.0]	[0.014243627927498892, 0.01823859120486304, 0.026424784344271757, 0.044091505973483436, 0.06095199867559131, 0.07582934571837541, 0.094554541472462, 0.11062757857143879, 0.12578379480692092, 0.14381232958112378, 0.16052741435123608, 0.17572868657589424, 0.19380978665139992, 0.2104999541043071, 0.22593094353214838, 0.24403696093941107, 0.26088926164084114, 0.2758529659768101, 0.29369069551466964, 0.3105102282279404, 0.32611700423876755, 0.34366221126401797, 0.3669360126805259, 0.37547446163080167, 0.393699262975133, 0.41048944104113616, 0.42551868135342374, 0.44372095468861517, 0.4609244872262934, 0.47544991978793405, 0.49420993150852155, 0.5102368886437034, 0.5258624379785033, 0.5434933196083875, 0.5606719348143088, 0.575507980553084, 0.5940280350769171, 0.610297680075746, 0.625836872117361, 0.6436066763562849, 0.6606859636085574, 0.675521668017609, 0.6940038345492212, 0.7142964321537875, 0.7255993383732857, 0.7530268230038928, 0.760611245787004, 0.7754131582041737, 0.7939608607121045, 0.8169889022537973, 0.8255116498912685, 0.8434637260215823, 0.860579877262353, 0.8752619817532832, 0.893889556202339, 0.9161024941713549, 0.9255174866848392, 0.9540522560710087, 0.9625917290395591, 0.9753941118106013, 0.9939930142863886, 1.012753026021528, 1.0256960380502278, 1.0448868122330168, 1.0606123721809126, 1.0755515005294, 1.0936704885825748, 1.111923620570451, 1.1258718587632757, 1.1444854385772487, 1.1603451424452942, 1.1756157053023344, 1.1937845279899193, 1.2117758574459003, 1.225769151613349, 1.2443390407715924, 1.2603482485865243, 1.2757601233606692, 1.2939794633566635, 1.3104327456094325, 1.3257302737765713, 1.3436529952596175, 1.3604998346418142, 1.3755239549500402, 1.3934692044276744, 1.4116926404240075, 1.4252811134647345, 1.4450524953426793, 1.460126108955592, 1.4767592737771338, 1.493621131812688, 1.5108089630084578, 1.525665147404652, 1.544198172588949, 1.5604077429452445, 1.575873207038967, 1.5939642057637684, 1.610723322519334, 1.6256993148563197, 1.644039486796828, 1.6647198388818651, 1.675634649291169, 1.6935915040958207, 1.710824049936491, 1.7254109224741114, 1.7439180063229287, 1.7601231393637136, 1.7756831527367467, 1.7934942582796793]
23	绳子	False	animate	inanimate	right	1.072	[0.0, 0.0, 0.0, 0.0, 0.0, 0.0, 0.0, 0.0, 0.0, 0.0, 0.0, 0.0, 0.0, 0.0, 0.0, 0.0, 0.0, 0.0, 0.0, 0.0, 0.0, 0.0, 0.0, 0.0, 0.0, 0.0, 0.0, 0.0, 0.0, 0.0, 0.0, 0.0, 0.0, 0.0, 0.0, 0.0, 6.0, 25.0, 47.0, 69.0, 103.0, 177.0, 199.0, 306.0, 334.0, 397.0, 460.0, 521.0, 570.0, 605.0, 633.0, 660.0, 683.0, 695.0, 704.0, 706.0, 706.0, 706.0, 712.0, 717.0, 719.0, 722.0, 722.0, 722.0, 722.0]	[-490.0, -490.0, -490.0, -490.0, -490.0, -490.0, -490.0, -490.0, -490.0, -490.0, -490.0, -490.0, -490.0, -490.0, -490.0, -490.0, -490.0, -490.0, -490.0, -490.0, -490.0, -490.0, -490.0, -490.0, -490.0, -490.0, -490.0, -490.0, -490.0, -490.0, -490.0, -490.0, -490.0, -490.0, -490.0, -490.0, -473.0, -410.0, -352.0, -303.0, -244.0, -145.0, -117.0, 11.0, 44.0, 110.0, 169.0, 220.0, 259.0, 284.0, 304.0, 322.0, 339.0, 348.0, 355.0, 357.0, 357.0, 357.0, 362.0, 368.0, 371.0, 373.0, 373.0, 373.0, 373.0]	[0.014828911880613305, 0.01977551200252492, 0.026952041662298143, 0.04590388263750356, 0.06204723437258508, 0.07780965829442721, 0.09542791060812306, 0.11245394988509361, 0.12741424089472275, 0.14574690350855235, 0.16204146583913825, 0.1776246898516547, 0.19559349132759962, 0.21256457596609835, 0.22729958708805498, 0.24573635631531943, 0.2658224473707378, 0.27732025481236633, 0.3047361341159558, 0.31240042885474395, 0.3272112159320386, 0.345672219817061, 0.37068750300386455, 0.3771011530625401, 0.4085150676401099, 0.41448225392377935, 0.42717506874760147, 0.44545072873006575, 0.4699792708415771, 0.47888158094428945, 0.5013675854279427, 0.5121912598988274, 0.5273611294542206, 0.545703690731898, 0.565676459169481, 0.5773544905241579, 0.5957236757967621, 0.612403603256098, 0.6273976862430573, 0.6452142531197751, 0.6656850266299443, 0.6772971806931309, 0.7070061361446278, 0.7130484157241881, 0.7299386044032872, 0.7455743937316583, 0.7632202940294519, 0.7775904200098012, 0.7960582505475031, 0.8123637355311075, 0.8282316314143827, 0.8457478251075372, 0.8623840619256953, 0.8774071582301985, 0.8951428291475167, 0.9118742979189847, 0.9271243807743303, 0.9451464302255772, 0.9618604909919668, 0.9772774857701734, 0.9951558339525945, 1.0118815000460017, 1.0276391453226097, 1.045417482877383, 1.0621243756613694]
24	天鹅	True	inanimate	animate	right	1.122	[0.0, 2.0, 2.0, 2.0, 2.0, 2.0, 2.0, 2.0, 2.0, 2.0, 2.0, 2.0, 2.0, 2.0, 2.0, 2.0, 2.0, 2.0, 2.0, 2.0, 2.0, 2.0, 2.0, 2.0, 2.0, 2.0, 2.0, 2.0, 2.0, 2.0, 2.0, 2.0, 2.0, 2.0, 2.0, 2.0, 2.0, 2.0, 2.0, 2.0, 2.0, 3.0, -9.0, -21.0, -7.0, 5.0, 65.0, 124.0, 193.0, 259.0, 379.0, 422.0, 522.0, 612.0, 694.0, 757.0, 820.0, 831.0, 859.0, 871.0, 876.0, 876.0, 876.0, 876.0, 876.0, 876.0, 876.0]	[-490.0, -490.0, -490.0, -490.0, -490.0, -490.0, -490.0, -490.0, -490.0, -490.0, -490.0, -490.0, -490.0, -490.0, -490.0, -490.0, -490.0, -490.0, -490.0, -490.0, -490.0, -490.0, -490.0, -490.0, -490.0, -490.0, -490.0, -490.0, -490.0, -490.0, -490.0, -490.0, -490.0, -490.0, -490.0, -490.0, -490.0, -490.0, -490.0, -490.0, -490.0, -482.0, -421.0, -335.0, -222.0, -189.0, -82.0, 2.0, 85.0, 160.0, 276.0, 309.0, 377.0, 422.0, 450.0, 470.0, 487.0, 488.0, 496.0, 498.0, 500.0, 500.0, 500.0, 500.0, 500.0, 500.0, 500.0]	[0.003354417480295524, 0.010300205933162943, 0.02210760254820343, 0.0409758168971166, 0.05765847502334509, 0.0715449319104664, 0.09021073568146676, 0.10649710601137485, 0.12214108734042384, 0.13989314224454574, 0.15680585891823284, 0.17172996861336287, 0.19025172980036587, 0.20658691076096147, 0.22204452418372966, 0.23991672837291844, 0.2569751942937728, 0.27173956007754896, 0.29024220659630373, 0.3067255261557875, 0.32209644095564727, 0.34003895976638887, 0.3568158258422045, 0.37200958874018397, 0.3901872861024458, 0.40868105796107557, 0.42187768053554464, 0.4398925619752845, 0.4567899186658906, 0.471679895039415, 0.49015660023724195, 0.5065071412100224, 0.5220244879310485, 0.546943856505095, 0.5568268167698989, 0.5716563771857182, 0.5901921330223558, 0.6109209544083569, 0.6217541861988138, 0.6433298551564803, 0.6568725895485841, 0.6718516538821859, 0.6901628125051502, 0.708879816258559, 0.7220945294975536, 0.7401094109372934, 0.756650074472418, 0.7717410960758571, 0.7899942280637333, 0.8121156887355028, 0.8216699451731984, 0.8399865651299478, 0.8566398686089087, 0.8742495875922032, 0.890053312832606, 0.9074708612461109, 0.9220034618047066, 0.9407419695489807, 0.956728308025049, 0.9725374945992371, 0.9900966962741222, 1.006956506316783, 1.0220519652502844, 1.0399535240867408, 1.0566095582180424, 1.0716780518414453, 1.0897175092686666]
25	礼物	False	inanimate	animate	left	1.296	[0.0, 0.0, 0.0, 0.0, 0.0, 0.0, 0.0, 0.0, 0.0, 0.0, 0.0, 0.0, 0.0, 0.0, 0.0, 0.0, 0.0, 0.0, 0.0, 0.0, 0.0, 0.0, 0.0, 0.0, 0.0, 0.0, 0.0, 0.0, 0.0, 0.0, 0.0, 0.0, 0.0, 8.0, 38.0, 38.0, 54.0, 70.0, 81.0, 100.0, 172.0, 172.0, 219.0, 258.0, 362.0, 362.0, 439.0, 461.0, 495.0, 516.0, 525.0, 527.0, 527.0, 527.0, 527.0, 444.0, 352.0, 239.0, 101.0, -45.0, -212.0, -369.0, -504.0, -626.0, -717.0, -776.0, -813.0, -850.0, -867.0, -875.0, -881.0, -881.0, -881.0, -881.0, -881.0, -881.0, -881.0, -881.0]	[-490.0, -490.0, -490.0, -490.0, -490.0, -490.0, -490.0, -490.0, -490.0, -490.0, -490.0, -490.0, -490.0, -490.0, -490.0, -490.0, -490.0, -490.0, -490.0, -490.0, -490.0, -490.0, -490.0, -490.0, -490.0, -490.0, -490.0, -490.0, -490.0, -490.0, -490.0, -490.0, -480.0, -442.0, -336.0, -336.0, -282.0, -219.0, -154.0, -86.0, 54.0, 54.0, 134.0, 189.0, 284.0, 284.0, 339.0, 355.0, 379.0, 394.0, 401.0, 402.0, 402.0, 402.0, 402.0, 415.0, 422.0, 422.0, 422.0, 422.0, 422.0, 422.0, 424.0, 440.0, 449.0, 456.0, 456.0, 456.0, 456.0, 456.0, 456.0, 456.0, 456.0, 456.0, 456.0, 456.0, 456.0, 456.0]	[0.01059238710149657, 0.014764160965569317, 0.0191895453754114, 0.03820214363804553, 0.05430009805422742, 0.07088684156769887, 0.0876889662904432, 0.10468872293131426, 0.11928242212161422, 0.13807520183036104, 0.15422913488873746, 0.1697754949418595, 0.18903419440903235, 0.20427164793363772, 0.21944254150730558, 0.23807284663780592, 0.2679231140209595, 0.2870893122017151, 0.3047027858556248, 0.3337700349657098, 0.3433174647507258, 0.3602588534122333, 0.3712856210913742, 0.3865217092970852, 0.40968355342920404, 0.4289623915683478, 0.43616622788249515, 0.4615474202146288, 0.4711658472951967, 0.48633230352425016, 0.5147994889557594, 0.5209288084733998, 0.5363051846070448, 0.5698981700697914, 0.5756004818249494, 0.5859087432036176, 0.6046677309350343, 0.6209032426268095, 0.6363762160326587, 0.6649273694201838, 0.6710440596216358, 0.6862487451726338, 0.7046425064181676, 0.73448082714458, 0.7427673722268082, 0.7599968460708624, 0.7712024723441573, 0.7859992647572653, 0.8045749565790175, 0.8215422865614528, 0.8364561562630115, 0.8564456500316737, 0.8712758931069402, 0.8861781574669294, 0.904551097395597, 0.9212276115285931, 0.936244563839864, 0.9556705165596213, 0.9713274685345823, 0.9886460303387139, 1.0046818621340208, 1.022330493098707, 1.0365354138193652, 1.0553807588439668, 1.0711773160874145, 1.0871762838942232, 1.104437501722714, 1.121356703719357, 1.1365996185922995, 1.1541745215945411, 1.1708790250413585, 1.1890966583741829, 1.2044389011862222, 1.2225264865992358, 1.2364108954789117, 1.2544138302619103, 1.2708316138596274, 1.2868172696762485]
26	小鸟	True	animate	inanimate	left	1.258	[0.0, 0.0, 0.0, 0.0, 0.0, 0.0, 0.0, 0.0, 0.0, 0.0, 0.0, 0.0, 0.0, 1.0, 2.0, 2.0, 2.0, 2.0, 2.0, 2.0, 2.0, 2.0, 2.0, 2.0, 2.0, 2.0, 2.0, 2.0, 2.0, 2.0, 2.0, 7.0, 15.0, 46.0, 144.0, 222.0, 257.0, 397.0, 429.0, 488.0, 545.0, 626.0, 646.0, 677.0, 684.0, 697.0, 703.0, 706.0, 706.0, 706.0, 706.0, 706.0, 691.0, 611.0, 479.0, 237.0, 153.0, -17.0, -268.0, -438.0, -506.0, -643.0, -681.0, -697.0, -700.0, -700.0, -700.0, -700.0, -700.0, -701.0, -712.0, -726.0, -728.0, -730.0, -730.0, -730.0]	[-490.0, -490.0, -490.0, -490.0, -490.0, -490.0, -490.0, -490.0, -490.0, -490.0, -490.0, -490.0, -490.0, -490.0, -490.0, -490.0, -490.0, -490.0, -490.0, -490.0, -490.0, -490.0, -490.0, -490.0, -490.0, -490.0, -490.0, -490.0, -490.0, -490.0, -490.0, -485.0, -476.0, -435.0, -296.0, -198.0, -146.0, 62.0, 106.0, 187.0, 254.0, 330.0, 345.0, 366.0, 371.0, 383.0, 390.0, 393.0, 395.0, 395.0, 395.0, 395.0, 397.0, 404.0, 415.0, 434.0, 434.0, 434.0, 434.0, 436.0, 441.0, 457.0, 464.0, 468.0, 468.0, 468.0, 468.0, 468.0, 468.0, 468.0, 473.0, 478.0, 479.0, 479.0, 479.0, 479.0]	[0.013144774071406573, 0.01750393984548282, 0.02455758956784848, 0.043250358663499355, 0.059518638328881934, 0.0749434837634908, 0.09281705328612588, 0.11025132703070994, 0.12453304771042895, 0.14312307552609127, 0.15941320052661467, 0.17502850985329133, 0.19293996735359542, 0.20990832133975346, 0.22476143372477964, 0.24313812832406256, 0.25960301588929724, 0.27488006406929344, 0.2929785721353255, 0.3098196088394616, 0.3247771691821981, 0.34317809843923897, 0.35940849012695253, 0.374891703526373, 0.3929577849485213, 0.40980667232361156, 0.4248140673007583, 0.44317676723585464, 0.4690109086805023, 0.4745033005310688, 0.5022864542988827, 0.5094660559552722, 0.5244649176165694, 0.5430385614308761, 0.5652132700779475, 0.5745572652958799, 0.5998838443338173, 0.6095872633595718, 0.6244598317571217, 0.6429952462640358, 0.6592802512604976, 0.6746282967360457, 0.6988851376372622, 0.7093637242796831, 0.724481369878049, 0.7430536483589094, 0.7594096506509231, 0.7748867200716631, 0.7955254294938641, 0.8096979235706385, 0.8246592385839904, 0.8432182050746633, 0.8618942488537868, 0.8748857301980024, 0.8948062746640062, 0.9096665550605394, 0.9271530527767027, 0.9430666872940492, 0.9605555743328296, 0.9748765483382158, 0.9939386399055365, 1.0095583865768276, 1.0252405972132692, 1.0430807160882978, 1.0594380837137578, 1.0748025131761096, 1.0928518692671787, 1.10955159405421, 1.124569229024928, 1.1425868411315605, 1.1608594291174086, 1.1745796567556681, 1.1940066334791481, 1.2093181562959217, 1.2254499027039856, 1.242578341945773]
27	厨师	True	animate	inanimate	left	1.219	[0.0, 0.0, 0.0, 0.0, 0.0, 0.0, 0.0, 0.0, 0.0, 0.0, 0.0, 0.0, 0.0, 0.0, 0.0, 0.0, 0.0, 0.0, 0.0, 0.0, 0.0, 0.0, 0.0, 0.0, 0.0, 0.0, 0.0, 0.0, 0.0, 0.0, 0.0, 0.0, 0.0, 0.0, 0.0, 0.0, 0.0, 4.0, 24.0, 60.0, 106.0, 162.0, 227.0, 294.0, 374.0, 450.0, 518.0, 596.0, 615.0, 657.0, 674.0, 683.0, 685.0, 685.0, 685.0, 686.0, 653.0, 609.0, 413.0, 247.0, 165.0, -86.0, -259.0, -423.0, -577.0, -704.0, -794.0, -834.0, -848.0, -848.0, -848.0, -848.0, -848.0, -848.0]	[-490.0, -490.0, -490.0, -490.0, -490.0, -490.0, -490.0, -490.0, -490.0, -490.0, -490.0, -490.0, -490.0, -490.0, -490.0, -490.0, -490.0, -490.0, -490.0, -490.0, -490.0, -490.0, -490.0, -490.0, -490.0, -490.0, -490.0, -490.0, -490.0, -490.0, -490.0, -490.0, -490.0, -490.0, -490.0, -490.0, -490.0, -451.0, -393.0, -329.0, -261.0, -180.0, -92.0, 0.0, 99.0, 183.0, 261.0, 351.0, 374.0, 415.0, 431.0, 437.0, 439.0, 439.0, 439.0, 440.0, 440.0, 442.0, 466.0, 484.0, 488.0, 488.0, 488.0, 488.0, 488.0, 488.0, 488.0, 488.0, 491.0, 491.0, 491.0, 491.0, 491.0, 491.0]	[0.000533981597982347, 0.005682992297806777, 0.015019136844784953, 0.03315792222565506, 0.05388571962248534, 0.06517975116730668, 0.08327689389989246, 0.10004522664530668, 0.115157752239611, 0.13323543898877688, 0.15032291824172717, 0.16500809472927358, 0.18372202647151425, 0.20425287462421693, 0.21512911439640447, 0.2443130994506646, 0.2544431849382818, 0.2648565769341076, 0.28353842336218804, 0.3003941374045098, 0.31618523331417236, 0.33322902192594483, 0.35017041058745235, 0.364952184347203, 0.38356576416117605, 0.39988626779813785, 0.4152049586264184, 0.4332171093992656, 0.45019911670533475, 0.4649849864654243, 0.48365181424014736, 0.49991292592312675, 0.515352790011093, 0.5358409715263406, 0.5502534228144214, 0.5651966471632477, 0.5836852990323678, 0.601864361713524, 0.6153425841475837, 0.6338520573481219, 0.650171536981361, 0.6678143652825383, 0.6836054612067528, 0.6999764821521239, 0.7154668635484995, 0.7337848488386953, 0.7499899818794802, 0.7658254511043197, 0.7834918313892558, 0.7997389484080486, 0.8152634631260298, 0.8332561579154572, 0.8500173226639163, 0.8652107442176202, 0.8831222017179243, 0.9013196963933297, 0.9151870386267547, 0.9343068155139918, 0.9498879915336147, 0.9653654022695264, 0.9832355584512698, 1.0008695120923221, 1.0153034673712682, 1.0335357780422783, 1.0500617642392172, 1.0654971910116728, 1.0832840618968476, 1.1001838079100708, 1.11523591754667, 1.1335641428158851, 1.1496969132276718, 1.1653938011877472, 1.1833953706372995, 1.2001654100604355]
28	帽子	False	inanimate	animate	left	1.297	[0.0, 0.0, 0.0, 0.0, 0.0, 0.0, 0.0, 0.0, 0.0, 0.0, 0.0, 0.0, 0.0, 0.0, 0.0, 0.0, 0.0, 0.0, 0.0, 0.0, 0.0, 0.0, 0.0, 0.0, 0.0, 0.0, 0.0, 0.0, 0.0, 0.0, 0.0, 0.0, 0.0, 0.0, 0.0, 0.0, 0.0, 0.0, 0.0, 0.0, 0.0, 8.0, 21.0, 43.0, 66.0, 105.0, 186.0, 248.0, 282.0, 343.0, 455.0, 502.0, 631.0, 701.0, 749.0, 765.0, 767.0, 753.0, 694.0, 512.0, 446.0, 197.0, 111.0, -50.0, -311.0, -482.0, -560.0, -760.0, -850.0, -888.0, -905.0, -908.0, -908.0, -908.0, -908.0, -908.0]	[-490.0, -490.0, -490.0, -490.0, -490.0, -490.0, -490.0, -490.0, -490.0, -490.0, -490.0, -490.0, -490.0, -490.0, -490.0, -490.0, -490.0, -490.0, -490.0, -490.0, -490.0, -490.0, -490.0, -490.0, -490.0, -490.0, -490.0, -490.0, -490.0, -490.0, -490.0, -490.0, -490.0, -490.0, -490.0, -490.0, -490.0, -490.0, -490.0, -490.0, -490.0, -483.0, -469.0, -444.0, -415.0, -371.0, -276.0, -194.0, -152.0, -66.0, 80.0, 135.0, 274.0, 350.0, 406.0, 441.0, 468.0, 489.0, 524.0, 540.0, 540.0, 540.0, 540.0, 530.0, 491.0, 482.0, 482.0, 482.0, 482.0, 482.0, 482.0, 482.0, 482.0, 482.0, 482.0, 482.0]	[0.009007918590214103, 0.01361591623572167, 0.018646825657924637, 0.03494582531857304, 0.051597763449535705, 0.06649490783456713, 0.08794291818048805, 0.10143445260473527, 0.11680946340493392, 0.13611390152073, 0.15686866422765888, 0.1665000619541388, 0.18477538060687948, 0.20136110011662822, 0.21897354975226335, 0.2349656909063924, 0.26256213543820195, 0.2677466447930783, 0.28659164847340435, 0.3016000674542738, 0.3192886344040744, 0.33485308509261813, 0.35134732731967233, 0.3669302100024652, 0.394294206664199, 0.4003658408910269, 0.4176854266843293, 0.4348002125916537, 0.4515576226694975, 0.46670871891546994, 0.4847655843332177, 0.5013499385095201, 0.5163754241511924, 0.5345015802158741, 0.5528642801364185, 0.5663919958751649, 0.5883731686335523, 0.6016209911758779, 0.6171997778728837, 0.6344347130361712, 0.6529370182397543, 0.6665831765858456, 0.6873918699275237, 0.7011499855580041, 0.71725920397148, 0.7351406241505174, 0.7521427701140055, 0.7662268589047017, 0.7850285132735735, 0.8017507660406409, 0.8166943317191908, 0.8344586746243294, 0.851594281863072, 0.8667262634407962, 0.8856361204234418, 0.9010162512131501, 0.9168076884670882, 0.9352499190281378, 0.951942475818214, 0.9665703083301196, 0.9877162388293073, 1.0009910266962834, 1.016631253354717, 1.0358042782027042, 1.0519633312651422, 1.0662764546141261, 1.0847961677936837, 1.1016767991532106, 1.1169347326649586, 1.1344795983604854, 1.151503248300287, 1.1666208938986529, 1.1857618334324798, 1.2143245921324706, 1.2212871059018653, 1.2502229417586932]
29	牙齿	False	animate	inanimate	right	1.091	[0.0, 0.0, 0.0, 0.0, 0.0, 0.0, 0.0, 0.0, 0.0, 0.0, 0.0, 0.0, 0.0, 0.0, 0.0, 0.0, 0.0, 0.0, 0.0, 0.0, 0.0, 0.0, 0.0, 0.0, 0.0, 0.0, 0.0, 0.0, 0.0, 0.0, 0.0, 0.0, 8.0, 34.0, 77.0, 138.0, 206.0, 261.0, 309.0, 363.0, 463.0, 530.0, 560.0, 628.0, 654.0, 670.0, 678.0, 683.0, 685.0, 686.0, 687.0, 688.0, 691.0, 696.0, 700.0, 713.0, 715.0, 716.0, 716.0, 716.0, 717.0, 717.0, 717.0, 717.0, 717.0]	[-490.0, -490.0, -490.0, -490.0, -490.0, -490.0, -490.0, -490.0, -490.0, -490.0, -490.0, -490.0, -490.0, -490.0, -490.0, -490.0, -490.0, -490.0, -490.0, -490.0, -490.0, -490.0, -490.0, -490.0, -490.0, -490.0, -490.0, -490.0, -490.0, -490.0, -490.0, -490.0, -466.0, -423.0, -372.0, -309.0, -242.0, -183.0, -124.0, -53.0, 81.0, 155.0, 186.0, 245.0, 267.0, 285.0, 297.0, 312.0, 315.0, 326.0, 332.0, 335.0, 352.0, 365.0, 372.0, 391.0, 394.0, 396.0, 396.0, 397.0, 397.0, 399.0, 399.0, 399.0, 399.0]	[0.004542939554085024, 0.011065816215705127, 0.02398391092719976, 0.05139091557066422, 0.058949738362571225, 0.07506441810983233, 0.0912794498144649, 0.11013913081842475, 0.12427749157359358, 0.14219304507423658, 0.15891256717441138, 0.1739964207954472, 0.19203246489632875, 0.2190554697153857, 0.224957461367012, 0.2424497617466841, 0.25904469724628143, 0.2739278469525743, 0.29207584833784495, 0.3100644471269334, 0.32447758107446134, 0.3425156731827883, 0.35889932345889974, 0.37422688893275335, 0.3926148475293303, 0.4093466576305218, 0.42387209019216243, 0.44247645400173496, 0.4598864930885611, 0.47628994067781605, 0.49218104721512645, 0.5091442811972229, 0.5237468550476478, 0.5425389520969475, 0.5586843518249225, 0.5742204718699213, 0.5921394386969041, 0.6090733180317329, 0.6239646597387036, 0.6424191782862181, 0.658751628594473, 0.674226308678044, 0.69200567023654, 0.7089941628655652, 0.7240036058501573, 0.7423898577690125, 0.7759862565726507, 0.7808069047750905, 0.8039919595612446, 0.8121423127304297, 0.8242268718749983, 0.8432794061227469, 0.8585704489523778, 0.874190878297668, 0.8925662075489527, 0.9096809934562771, 0.9238268635381246, 0.9423827580467332, 0.9741100164683303, 0.9810366902529495, 0.9991130116686691, 1.0089440892916173, 1.0239743536076276, 1.0421158696408384, 1.0697498608351452]
30	乌鸦	True	animate	inanimate	left	1.547	[0.0, 0.0, 0.0, 0.0, 0.0, 0.0, 0.0, 0.0, 0.0, 0.0, 0.0, 0.0, 0.0, 0.0, 0.0, 0.0, 0.0, 0.0, 0.0, 0.0, 0.0, 0.0, 0.0, 0.0, 0.0, 0.0, 0.0, 0.0, 0.0, 0.0, 0.0, 0.0, 0.0, 0.0, 0.0, 0.0, -3.0, -10.0, -18.0, -25.0, -37.0, -45.0, -56.0, -62.0, -62.0, -62.0, -62.0, -62.0, -61.0, -61.0, -61.0, -61.0, -71.0, -88.0, -112.0, -169.0, -209.0, -272.0, -345.0, -432.0, -514.0, -589.0, -648.0, -661.0, -693.0, -698.0, -701.0, -705.0, -706.0, -706.0, -706.0, -706.0, -696.0, -687.0, -674.0, -670.0, -663.0, -663.0, -663.0, -663.0, -663.0, -663.0, -663.0, -663.0, -663.0, -663.0, -663.0, -663.0, -663.0, -663.0, -663.0, -663.0, -663.0, -663.0]	[-490.0, -490.0, -490.0, -490.0, -490.0, -490.0, -490.0, -490.0, -490.0, -490.0, -490.0, -490.0, -490.0, -490.0, -490.0, -490.0, -490.0, -490.0, -490.0, -490.0, -490.0, -490.0, -490.0, -490.0, -490.0, -490.0, -490.0, -490.0, -490.0, -490.0, -490.0, -490.0, -490.0, -490.0, -490.0, -488.0, -448.0, -409.0, -388.0, -371.0, -345.0, -324.0, -294.0, -258.0, -234.0, -215.0, -199.0, -184.0, -174.0, -173.0, -173.0, -169.0, -161.0, -152.0, -141.0, -124.0, -100.0, -55.0, -4.0, 57.0, 99.0, 128.0, 148.0, 154.0, 178.0, 185.0, 197.0, 215.0, 230.0, 245.0, 258.0, 274.0, 293.0, 313.0, 345.0, 356.0, 379.0, 385.0, 396.0, 409.0, 410.0, 410.0, 411.0, 411.0, 411.0, 411.0, 411.0, 411.0, 411.0, 411.0, 411.0, 411.0, 411.0, 411.0]	[0.012918265390908346, 0.01767576695419848, 0.02278108701284509, 0.041501845422317274, 0.057537335887900554, 0.07531976944301277, 0.09086408148868941, 0.1071774171286961, 0.12233363337873016, 0.1487009372067405, 0.15751893802371342, 0.17247888770361897, 0.19046987581532449, 0.20778741361573339, 0.2226517900126055, 0.2544650643831119, 0.2607752904877998, 0.2723280525824521, 0.2907528751384234, 0.30715461607906036, 0.3223572536226129, 0.3499816874827957, 0.35730294240056537, 0.3724799799674656, 0.3904136241180822, 0.408697817416396, 0.422529661009321, 0.44099237155751325, 0.4577613869623747, 0.47260664870555047, 0.4916803455998888, 0.5077230040478753, 0.5222125966392923, 0.5407476698164828, 0.5579996716405731, 0.5751014868874336, 0.5904925403447123, 0.6074161796714179, 0.6226536332105752, 0.6423618684493704, 0.6572665221610805, 0.6722537784808083, 0.6907482330134371, 0.7079486935399473, 0.7223986914759735, 0.7403842182684457, 0.7570641457277816, 0.7722019299690146, 0.7906834138411796, 0.8077340291201835, 0.8225171682133805, 0.840352508414071, 0.8571539504773682, 0.8726532065484207, 0.890839437226532, 0.9070722182514146, 0.922430503720534, 0.9403938438626938, 0.9570826459821546, 0.9722023395734141, 0.9903657009417657, 1.0084153983625583, 1.0226278284244472, 1.045695464606979, 1.057480674571707, 1.0726983307831688, 1.0908285828336375, 1.1070582918619039, 1.1226244492281694, 1.141092621095595, 1.1571455195517046, 1.173326076605008, 1.1906954970327206, 1.20848339193617, 1.2224599607725395, 1.2444544455211144, 1.257262972285389, 1.2722253113024635, 1.2904023259907262, 1.3077051864675013, 1.3225323575315997, 1.3417944703396643, 1.3588112936267862, 1.3726117345649982, 1.3908846638805699, 1.4069481436454225, 1.422600658304873, 1.4407442223455291, 1.4576210990344407, 1.4722178702359088, 1.4963924498588312, 1.507719932051259, 1.5224218338553328, 1.5402366940688808]
31	老虎	True	animate	inanimate	left	1.417	[0.0, 0.0, 0.0, 0.0, 0.0, 0.0, 0.0, 0.0, 0.0, 0.0, 0.0, 0.0, 0.0, 0.0, 0.0, 0.0, 0.0, 0.0, 0.0, 0.0, 0.0, 0.0, 0.0, 0.0, 0.0, 0.0, 0.0, 0.0, 0.0, 0.0, 0.0, 0.0, 0.0, 0.0, 0.0, 1.0, 8.0, 84.0, 111.0, 159.0, 199.0, 260.0, 282.0, 367.0, 420.0, 465.0, 505.0, 545.0, 552.0, 554.0, 525.0, 499.0, 352.0, 200.0, 110.0, -132.0, -250.0, -346.0, -422.0, -474.0, -503.0, -513.0, -515.0, -515.0, -515.0, -515.0, -516.0, -523.0, -531.0, -541.0, -555.0, -573.0, -593.0, -623.0, -631.0, -651.0, -674.0, -698.0, -722.0, -746.0, -750.0, -750.0, -750.0, -750.0, -750.0, -750.0]	[-490.0, -490.0, -490.0, -490.0, -490.0, -490.0, -490.0, -490.0, -490.0, -490.0, -490.0, -490.0, -490.0, -490.0, -490.0, -490.0, -490.0, -490.0, -490.0, -490.0, -490.0, -490.0, -490.0, -490.0, -490.0, -490.0, -490.0, -490.0, -490.0, -490.0, -490.0, -490.0, -490.0, -490.0, -490.0, -491.0, -491.0, -430.0, -411.0, -384.0, -361.0, -327.0, -313.0, -252.0, -209.0, -170.0, -125.0, -60.0, -40.0, 8.0, 47.0, 71.0, 153.0, 232.0, 271.0, 332.0, 342.0, 350.0, 360.0, 368.0, 373.0, 374.0, 375.0, 375.0, 375.0, 375.0, 375.0, 376.0, 378.0, 381.0, 385.0, 391.0, 396.0, 404.0, 406.0, 409.0, 412.0, 417.0, 419.0, 424.0, 425.0, 425.0, 425.0, 425.0, 425.0, 425.0]	[0.013336364369024523, 0.018484351065126248, 0.02454847596527543, 0.04299923985672649, 0.059885673865210265, 0.0748060289042769, 0.09308646754652727, 0.10961450175091159, 0.12502466984733474, 0.1430497912951978, 0.15987580934597645, 0.1748651136731496, 0.19897108532313723, 0.2096797305130167, 0.22505849596927874, 0.24300101478002034, 0.26601984033186454, 0.27456306795647833, 0.2930008611874655, 0.3097551992686931, 0.3250667221000185, 0.3429788622597698, 0.3657358852797188, 0.37463580605981406, 0.3930961272708373, 0.40948421487701125, 0.42511522554559633, 0.44287854444701225, 0.4598550904192962, 0.47464642151317094, 0.4930804600735428, 0.5095340836560354, 0.5250841983506689, 0.5429052025720011, 0.565862246818142, 0.574656012977357, 0.5931668514967896, 0.6095815630978905, 0.625025181856472, 0.6428680313838413, 0.6650123613799224, 0.6745652524841717, 0.6933409655466676, 0.7094832932780264, 0.7249975680024363, 0.7427557669143425, 0.7660142083332175, 0.7743543427350232, 0.7986763782828348, 0.8103970762749668, 0.8249365035007941, 0.8443266162357759, 0.8614024901617086, 0.8745178754470544, 0.8928621433879016, 0.9093765242723748, 0.9250140202639159, 0.9427114618592896, 0.9598105464392575, 0.9746865281631472, 0.9931652813684195, 1.0095421049772995, 1.0250963156868238, 1.0427108133299043, 1.0598529058916029, 1.074623074324336, 1.098978560519754, 1.10960938174685, 1.1250547071686015, 1.1430474019580288, 1.1597856973967282, 1.1745381165092112, 1.19505770066462, 1.2097046478302218, 1.2251134506077506, 1.2427576442423742, 1.2597959715203615, 1.2745558999595232, 1.2929892558604479, 1.309552106045885, 1.3249786581436638, 1.3430211875675013, 1.3596987257042201, 1.374767219313071, 1.392914196694619, 1.4095879801607225]
32	足球	False	inanimate	animate	left	1.352	[0.0, 0.0, 0.0, 0.0, 0.0, 0.0, 0.0, 0.0, 0.0, 0.0, 0.0, 0.0, 0.0, 0.0, 0.0, 0.0, 0.0, 1.0, 1.0, 1.0, 1.0, 1.0, 1.0, 1.0, 1.0, 1.0, 1.0, 1.0, 1.0, 1.0, 1.0, 1.0, 1.0, 1.0, 9.0, 32.0, 46.0, 85.0, 99.0, 132.0, 182.0, 213.0, 229.0, 280.0, 314.0, 341.0, 381.0, 448.0, 473.0, 528.0, 553.0, 563.0, 593.0, 612.0, 624.0, 631.0, 635.0, 639.0, 640.0, 642.0, 644.0, 644.0, 644.0, 644.0, 621.0, 536.0, 413.0, 255.0, 75.0, -144.0, -354.0, -524.0, -678.0, -789.0, -841.0, -852.0, -852.0, -852.0, -852.0, -852.0, -852.0]	[-490.0, -490.0, -490.0, -490.0, -490.0, -490.0, -490.0, -490.0, -490.0, -490.0, -490.0, -490.0, -490.0, -490.0, -490.0, -490.0, -490.0, -492.0, -492.0, -493.0, -493.0, -493.0, -493.0, -493.0, -493.0, -493.0, -493.0, -493.0, -493.0, -493.0, -493.0, -493.0, -493.0, -487.0, -462.0, -412.0, -388.0, -319.0, -295.0, -246.0, -168.0, -126.0, -104.0, -44.0, -3.0, 33.0, 79.0, 145.0, 161.0, 210.0, 233.0, 243.0, 272.0, 288.0, 300.0, 311.0, 316.0, 321.0, 325.0, 328.0, 330.0, 332.0, 334.0, 336.0, 343.0, 360.0, 372.0, 376.0, 376.0, 376.0, 376.0, 376.0, 376.0, 376.0, 376.0, 377.0, 377.0, 377.0, 377.0, 377.0, 377.0]	[0.0015187277749646455, 0.006735663759172894, 0.017511210244265385, 0.0362937499594409, 0.05265453092579264, 0.06801315772463568, 0.08604271648800932, 0.10929467258392833, 0.11765426296915393, 0.13600228558061644, 0.15249277313705534, 0.1680985251441598, 0.18586867071280722, 0.20933396003965754, 0.21786012100346852, 0.23603645303228404, 0.25251840725832153, 0.26800332733546384, 0.28636022459249943, 0.30286880281346384, 0.31751848064595833, 0.34304985956987366, 0.35275498527335003, 0.36805797477427404, 0.38604316022247076, 0.4024517278303392, 0.4178717945906101, 0.43614404124673456, 0.4527963207074208, 0.46794093163043726, 0.48604490103025455, 0.5025224179262295, 0.5180018766695866, 0.5357959155517165, 0.5582614400482271, 0.5673903953720583, 0.5919834494561655, 0.6023480308067519, 0.6180278521205764, 0.6363745093840407, 0.652733242342947, 0.6674955601192778, 0.6916046037804335, 0.7022886729682796, 0.7178708729916252, 0.7356434078974416, 0.7528640070813708, 0.767401044970029, 0.7893620790564455, 0.8030119920731522, 0.8178227791504469, 0.8366329668497201, 0.8533180143131176, 0.8680632654286455, 0.8858941682992736, 0.902447119820863, 0.9180525304982439, 0.9363933851127513, 0.9527702087216312, 0.9675355984945782, 0.9862976582226111, 1.00229150603991, 1.0180167246580822, 1.0364893338701222, 1.0525596403022064, 1.070444815151859, 1.0872534252121113, 1.1027902279165573, 1.1182154146808898, 1.135612483107252, 1.152789732979727, 1.1678572025994072, 1.185856041382067, 1.2023516489425674, 1.2179768569476437, 1.2363706181931775, 1.2527675804594764, 1.267522047579405, 1.2895335989742307, 1.3026981362345396, 1.3181984162947629]
