trialIndex	stimulus	left_option	right_option	response	response_time	xTrajectory	yTrajectory	tTrajectory
0	inanimate/n57.jpg	animate	inanimate	right	1.772	[0.0, 0.0, 0.0, 0.0, 0.0, 0.0, 0.0, 0.0, 0.0, 0.0, 0.0, 0.0, 0.0, 0.0, 0.0, 0.0, 0.0, -1.0, -2.0, -4.0, -11.0, -27.0, -42.0, -43.0, -43.0, -43.0, -43.0, -43.0, -43.0, -43.0, -43.0, -43.0, -43.0, -43.0, -43.0, -43.0, -43.0, -43.0, -41.0, -41.0, -47.0, -53.0, -71.0, -79.0, -99.0, -113.0, -126.0, -133.0, -133.0, -135.0, -136.0, -138.0, -142.0, -152.0, -175.0, -198.0, -224.0, -248.0, -277.0, -295.0, -299.0, -299.0, -294.0, -232.0, -138.0, -48.0, 63.0, 91.0, 125.0, 125.0, 104.0, 82.0, 39.0, 13.0, 7.0, 25.0, 76.0, 167.0, 272.0, 394.0, 589.0, 704.0, 809.0, 895.0, 955.0, 959.0, 959.0, 959.0, 959.0, 959.0, 959.0, 959.0, 959.0, 959.0, 959.0, 959.0, 959.0, 959.0, 949.0, 938.0, 929.0, 923.0, 919.0, 919.0, 919.0, 919.0]	[-490.0, -490.0, -490.0, -490.0, -490.0, -490.0, -490.0, -490.0, -490.0, -490.0, -490.0, -490.0, -490.0, -490.0, -490.0, -490.0, -490.0, -491.0, -492.0, -495.0, -495.0, -495.0, -495.0, -495.0, -495.0, -495.0, -495.0, -495.0, -495.0, -495.0, -495.0, -495.0, -495.0, -495.0, -495.0, -495.0, -495.0, -508.0, -510.0, -511.0, -511.0, -508.0, -500.0, -496.0, -481.0, -474.0, -465.0, -461.0, -461.0, -461.0, -461.0, -461.0, -461.0, -461.0, -459.0, -456.0, -454.0, -454.0, -452.0, -452.0, -452.0, -452.0, -445.0, -421.0, -378.0, -318.0, -210.0, -174.0, -98.0, -70.0, -39.0, -6.0, 54.0, 106.0, 142.0, 174.0, 209.0, 241.0, 269.0, 304.0, 344.0, 370.0, 400.0, 422.0, 439.0, 448.0, 453.0, 454.0, 454.0, 454.0, 454.0, 454.0, 454.0, 454.0, 454.0, 454.0, 454.0, 454.0, 453.0, 452.0, 451.0, 451.0, 451.0, 451.0, 451.0, 451.0]	[0.00040342152351513505, 0.005623769073281437, 0.015984933532308787, 0.03297342039877549, 0.049092531960923225, 0.0661503094015643, 0.08253736741608009, 0.09941765171242878, 0.11585215502418578, 0.13271298329345882, 0.149191859876737, 0.16629742394434288, 0.1826824339805171, 0.19956408359576017, 0.2157746723969467, 0.23286794847808778, 0.2494038277072832, 0.26643873582361266, 0.28273977793287486, 0.29966409417102113, 0.3160497868084349, 0.33287204446969554, 0.3494468356948346, 0.3662506613181904, 0.3825588714098558, 0.39968423277605325, 0.41597947222180665, 0.4329665937111713, 0.4493529690662399, 0.46639948250958696, 0.48280326585518196, 0.499609139515087, 0.5160590028390288, 0.5330775269540027, 0.5493580891052261, 0.5665046130889095, 0.5826124607119709, 0.5997292887768708, 0.615890042972751, 0.6332290788413957, 0.6492171185091138, 0.6692229894688353, 0.682553410064429, 0.7023613078636117, 0.715884923003614, 0.7354617382516153, 0.7493154224357568, 0.7688731231028214, 0.7824926528264768, 0.800322184280958, 0.8160327202058397, 0.8333618573960848, 0.8492986971396022, 0.8663970932248048, 0.8824482795316726, 0.8994920622790232, 0.9160951841040514, 0.9332430735230446, 0.9492328198393807, 0.9662933279760182, 0.9824673941475339, 0.9995838808827102, 1.0161201014416292, 1.0329771750839427, 1.04929835582152, 1.0662496373406611, 1.082685164641589, 1.099758984753862, 1.1160415948252194, 1.1330024336930364, 1.1494004143751226, 1.1661653280607425, 1.182671169983223, 1.1995647662552074, 1.216006096219644, 1.232833132497035, 1.249453320982866, 1.2662489546928555, 1.2827544552274048, 1.2996282542007975, 1.3160344268544577, 1.3331048336112872, 1.349456392985303, 1.366123344108928, 1.3826414740178734, 1.3995698862127028, 1.4160788001609035, 1.4328587324707769, 1.4494389850297011, 1.4663820745772682, 1.4824697835138068, 1.4995255129178986, 1.5157811577082612, 1.5328181138611399, 1.5490785373258404, 1.5663124425918795, 1.5824376982054673, 1.5995681795757264, 1.615737467072904, 1.6328037778730504, 1.6490491826552898, 1.666133242775686, 1.6823946902295575, 1.6995920728659257, 1.7157395150861703, 1.7329321191064082]
1	inanimate/n45.jpg	inanimate	animate	left	1.152	[0.0, 0.0, 0.0, 0.0, 0.0, 0.0, -3.0, -4.0, -4.0, -4.0, -4.0, -4.0, -4.0, -4.0, -4.0, -4.0, -4.0, -4.0, -4.0, -4.0, -4.0, -4.0, -4.0, -4.0, -4.0, -4.0, -4.0, -4.0, -4.0, -4.0, -4.0, -4.0, -4.0, -7.0, -8.0, -22.0, -38.0, -57.0, -82.0, -107.0, -117.0, -121.0, -121.0, -91.0, -24.0, 77.0, 273.0, 412.0, 529.0, 655.0, 748.0, 778.0, 782.0, 757.0, 643.0, 470.0, 248.0, -87.0, -297.0, -390.0, -613.0, -700.0, -739.0, -755.0, -759.0, -760.0, -760.0, -760.0, -760.0]	[-490.0, -490.0, -490.0, -490.0, -490.0, -489.0, -484.0, -483.0, -483.0, -482.0, -482.0, -482.0, -482.0, -482.0, -482.0, -481.0, -480.0, -480.0, -480.0, -478.0, -478.0, -477.0, -473.0, -465.0, -457.0, -452.0, -443.0, -435.0, -425.0, -422.0, -416.0, -410.0, -401.0, -392.0, -388.0, -365.0, -341.0, -315.0, -282.0, -244.0, -221.0, -198.0, -169.0, -120.0, -50.0, 29.0, 152.0, 223.0, 293.0, 360.0, 410.0, 428.0, 433.0, 433.0, 440.0, 442.0, 451.0, 487.0, 517.0, 528.0, 540.0, 540.0, 540.0, 540.0, 540.0, 540.0, 540.0, 540.0, 540.0]	[0.004439684737008065, 0.011433257430326194, 0.021343520958907902, 0.03828285587951541, 0.05753540474688634, 0.07122047041775659, 0.08830316516105086, 0.10447347670560703, 0.12173605395946652, 0.13854773028288037, 0.15496619092300534, 0.17137099825777113, 0.18848099966999143, 0.2052186067448929, 0.2216937287012115, 0.23799954942660406, 0.25506859086453915, 0.27105628920253366, 0.2883188665146008, 0.30522440938511863, 0.32159679010510445, 0.337991357431747, 0.3549723349278793, 0.3718212165404111, 0.39140246919123456, 0.40467452188022435, 0.42144045955501497, 0.44135348789859563, 0.4549235243466683, 0.47134266764624044, 0.4883553890977055, 0.505133273487445, 0.524737736734096, 0.5379302588407882, 0.5547480791574344, 0.5717990299453959, 0.59105874679517, 0.6046540418756194, 0.6216408220352605, 0.6382589625427499, 0.654976089601405, 0.6712969290092587, 0.6881335226353258, 0.7049161856411956, 0.7215623154770583, 0.7383630691329017, 0.7547945004189387, 0.7726438291720115, 0.7884437943575904, 0.8044458287185989, 0.8214100809418596, 0.8411705333855934, 0.8552300413721241, 0.8715658994624391, 0.8880727653740905, 0.9054428625386208, 0.9213906249497086, 0.9411715574096888, 0.954514607321471, 0.9717611419619061, 0.9880577467265539, 1.0050684201996773, 1.02123839041451, 1.0383767224266194, 1.0547050711466, 1.0717423686292022, 1.0880498960614204, 1.105131566815544, 1.1213954035774805]
2	animate/a8.jpg	inanimate	animate	right	1.281	[0.0, 0.0, 0.0, 0.0, 0.0, 0.0, -1.0, -1.0, -1.0, -1.0, -1.0, -1.0, -1.0, -1.0, -1.0, -1.0, -1.0, -1.0, -1.0, -1.0, -1.0, -1.0, -1.0, -1.0, -1.0, -1.0, -1.0, -1.0, -1.0, -5.0, -16.0, -50.0, -80.0, -114.0, -137.0, -157.0, -180.0, -210.0, -246.0, -276.0, -298.0, -319.0, -342.0, -396.0, -426.0, -527.0, -600.0, -667.0, -729.0, -790.0, -822.0, -839.0, -848.0, -853.0, -857.0, -859.0, -859.0, -859.0, -859.0, -859.0, -859.0, -859.0, -859.0, -849.0, -729.0, -664.0, -410.0, -175.0, 64.0, 283.0, 456.0, 588.0, 672.0, 713.0, 733.0, 737.0, 737.0]	[-490.0, -490.0, -490.0, -490.0, -490.0, -490.0, -490.0, -490.0, -490.0, -490.0, -490.0, -490.0, -490.0, -490.0, -490.0, -490.0, -490.0, -490.0, -490.0, -490.0, -490.0, -490.0, -490.0, -490.0, -490.0, -490.0, -490.0, -490.0, -490.0, -488.0, -467.0, -418.0, -365.0, -307.0, -253.0, -205.0, -151.0, -95.0, -50.0, -20.0, -1.0, 13.0, 29.0, 68.0, 87.0, 147.0, 189.0, 233.0, 274.0, 316.0, 345.0, 365.0, 382.0, 396.0, 407.0, 417.0, 417.0, 417.0, 417.0, 417.0, 417.0, 417.0, 417.0, 417.0, 401.0, 397.0, 397.0, 397.0, 397.0, 397.0, 397.0, 412.0, 423.0, 436.0, 444.0, 447.0, 447.0]	[0.003420020511839539, 0.009028463740833104, 0.02179500216152519, 0.03859951050253585, 0.05515996570466086, 0.07200202066451311, 0.0883276387467049, 0.10512873373227194, 0.12324088893365115, 0.13851485989289358, 0.15535042952978984, 0.17201191931962967, 0.1889946034643799, 0.20501916581997648, 0.22208342858357355, 0.23864832113031298, 0.25557980535086244, 0.2718958660843782, 0.2885419958620332, 0.30497479252517223, 0.3220390552887693, 0.3386008758097887, 0.355512221402023, 0.37186685274355114, 0.3886966197169386, 0.4052024616394192, 0.4220462233060971, 0.43849608657183126, 0.4553794428356923, 0.4716098289936781, 0.48877649166388437, 0.505258098943159, 0.5219861486693844, 0.5383407800691202, 0.5555224613635801, 0.5716077809920534, 0.5885433612274937, 0.6049792298581451, 0.622060559282545, 0.6382243855041452, 0.6553722748649307, 0.6715313224121928, 0.6886966197635047, 0.7048583979485556, 0.7220390553120524, 0.7382199481362477, 0.7554111868375912, 0.7715357597335242, 0.7886723850970156, 0.8048730752780102, 0.8220144793158397, 0.8382312121102586, 0.8554603387601674, 0.8715726236696355, 0.8886232331278734, 0.9050253098248504, 0.9220015086466447, 0.9384220173233189, 0.955400605511386, 0.9717316848691553, 0.988744406378828, 1.0051570643554442, 1.0221226818975993, 1.0384906252729706, 1.0552586109261028, 1.0742824667249806, 1.0885938784922473, 1.1077307154773735, 1.1219513327232562, 1.1411236683488823, 1.155493106751237, 1.1729338598670438, 1.1886921824188903, 1.207487003703136, 1.2219049113919027, 1.2394624004373327, 1.2553569148294628]
3	animate/a37.jpg	inanimate	animate	right	1.085	[0.0, 0.0, 0.0, 0.0, 0.0, 0.0, 0.0, 0.0, 0.0, 0.0, 0.0, 0.0, 0.0, 0.0, 0.0, 0.0, 0.0, 0.0, 0.0, 0.0, 0.0, 0.0, 0.0, -7.0, -10.0, -13.0, -15.0, -21.0, -29.0, -40.0, -56.0, -63.0, -75.0, -101.0, -185.0, -251.0, -303.0, -351.0, -389.0, -424.0, -456.0, -494.0, -527.0, -552.0, -567.0, -580.0, -600.0, -637.0, -664.0, -678.0, -688.0, -696.0, -701.0, -701.0, -701.0, -663.0, -536.0, -337.0, -108.0, 262.0, 492.0, 694.0, 853.0, 943.0, 959.0, 959.0]	[-490.0, -490.0, -490.0, -490.0, -490.0, -490.0, -490.0, -490.0, -490.0, -490.0, -490.0, -490.0, -490.0, -490.0, -490.0, -490.0, -490.0, -490.0, -490.0, -490.0, -490.0, -490.0, -491.0, -491.0, -491.0, -491.0, -491.0, -488.0, -484.0, -480.0, -475.0, -470.0, -451.0, -415.0, -293.0, -200.0, -132.0, -66.0, -9.0, 43.0, 89.0, 140.0, 184.0, 215.0, 235.0, 253.0, 281.0, 329.0, 357.0, 375.0, 386.0, 397.0, 401.0, 402.0, 406.0, 419.0, 435.0, 462.0, 483.0, 503.0, 506.0, 508.0, 525.0, 538.0, 540.0, 540.0]	[0.013903382234275341, 0.018780690093990415, 0.02649481681874022, 0.04308496799785644, 0.06256962334737182, 0.0763533342978917, 0.09443852416006848, 0.11015656945528463, 0.1264661448658444, 0.1429491174640134, 0.1609844727208838, 0.17632875830167904, 0.19360908487578854, 0.2095752792665735, 0.22648287017364055, 0.24296413612319157, 0.2601222654338926, 0.276448224845808, 0.2934906423324719, 0.30960736458655447, 0.32670234731631353, 0.3430194320390001, 0.3600403455202468, 0.3763034996227361, 0.39336707978509367, 0.4097650604089722, 0.42661769670667127, 0.44289074948756024, 0.4600946175050922, 0.47656871541403234, 0.493366738432087, 0.509901252342388, 0.5267088326509111, 0.5431955598760396, 0.5601304574520327, 0.5764605128788389, 0.593365031760186, 0.6099067136528902, 0.6265975580899976, 0.6430822373367846, 0.659992900211364, 0.6764181875623763, 0.6932977891410701, 0.7098278657067567, 0.7266702619963326, 0.7431378746405244, 0.7599771989043802, 0.7764953288133256, 0.7933346531353891, 0.8100155988940969, 0.8265228061354719, 0.8430829200078733, 0.8602608466753736, 0.8764676808496006, 0.8933933624066412, 0.9095943939173594, 0.9265688860905357, 0.9428986001294106, 0.9600106495781802, 0.9762434250442311, 0.9934705036575906, 1.00961555656977, 1.0265525021241046, 1.0428402321995236, 1.06011339079123, 1.0761785717331804]
4	animate/a8.jpg	animate	inanimate	left	0.913	[0.0, 0.0, 0.0, 0.0, 0.0, 0.0, 0.0, 0.0, 0.0, 0.0, 0.0, 0.0, 0.0, 0.0, 0.0, 0.0, 0.0, 0.0, 0.0, 0.0, 0.0, 0.0, 0.0, 0.0, 0.0, 0.0, 0.0, 0.0, 0.0, 0.0, 1.0, 5.0, 13.0, 33.0, 74.0, 125.0, 202.0, 275.0, 341.0, 348.0, 333.0, 292.0, 204.0, 75.0, -98.0, -269.0, -449.0, -597.0, -692.0, -731.0, -734.0, -734.0, -734.0, -734.0, -734.0]	[-490.0, -493.0, -493.0, -493.0, -493.0, -493.0, -493.0, -493.0, -493.0, -493.0, -493.0, -493.0, -493.0, -493.0, -493.0, -493.0, -493.0, -493.0, -493.0, -493.0, -493.0, -493.0, -493.0, -493.0, -493.0, -493.0, -493.0, -493.0, -493.0, -493.0, -489.0, -482.0, -465.0, -425.0, -355.0, -262.0, -159.0, -43.0, 99.0, 152.0, 188.0, 213.0, 244.0, 279.0, 330.0, 399.0, 474.0, 539.0, 540.0, 540.0, 540.0, 540.0, 540.0, 540.0, 540.0]	[0.005244104249868542, 0.014880618720781058, 0.02707030432065949, 0.042524840449914336, 0.05933719943277538, 0.07575361209455878, 0.0923499072669074, 0.1092776368604973, 0.12561588420066983, 0.14274465892231092, 0.15962801518617198, 0.17588331864681095, 0.19228778465185314, 0.20944420737214386, 0.2260630305390805, 0.2425821844371967, 0.2616620187764056, 0.2760130251990631, 0.29271172027802095, 0.30915817024651915, 0.32688700850121677, 0.34282248286763206, 0.3589238451095298, 0.3759003853192553, 0.3922024514176883, 0.40938140207435936, 0.42627397435717285, 0.4426654696580954, 0.45891360513633117, 0.4762775583076291, 0.4921737794065848, 0.5092448688810691, 0.5262736330041662, 0.5425033365027048, 0.5589009757968597, 0.5759935692185536, 0.5925574377761222, 0.6095759618910961, 0.6255660495953634, 0.6425879870657809, 0.6593843034352176, 0.6758959479629993, 0.6948003371944651, 0.7092179035535082, 0.7260254838620313, 0.7424476991873235, 0.7588402185356244, 0.7759986892342567, 0.7926670056767762, 0.8091899142600596, 0.8258094200864434, 0.8427490962785669, 0.8593788420548663, 0.8757208441384137, 0.8924017898971215]
5	inanimate/n47.jpg	animate	inanimate	right	1.328	[0.0, 0.0, 0.0, 0.0, 0.0, 0.0, 0.0, 0.0, 2.0, 3.0, 3.0, 3.0, 3.0, 4.0, 5.0, 7.0, 8.0, 8.0, 8.0, 8.0, 8.0, 8.0, 8.0, 8.0, 8.0, 8.0, 10.0, 10.0, 10.0, 10.0, 10.0, 10.0, 10.0, 10.0, 10.0, 10.0, 10.0, 10.0, 10.0, 10.0, 10.0, 10.0, 10.0, 10.0, 10.0, 9.0, 5.0, -2.0, -15.0, -48.0, -73.0, -93.0, -105.0, -102.0, -44.0, 80.0, 247.0, 466.0, 682.0, 892.0, 959.0, 959.0, 959.0, 959.0, 959.0, 959.0, 959.0, 959.0, 959.0, 959.0, 959.0, 959.0, 958.0, 892.0, 825.0, 779.0, 760.0, 757.0, 755.0, 755.0]	[-490.0, -490.0, -490.0, -490.0, -488.0, -486.0, -486.0, -484.0, -483.0, -483.0, -483.0, -483.0, -483.0, -483.0, -483.0, -483.0, -483.0, -483.0, -483.0, -483.0, -483.0, -483.0, -483.0, -483.0, -483.0, -483.0, -482.0, -481.0, -481.0, -481.0, -481.0, -481.0, -481.0, -481.0, -481.0, -481.0, -481.0, -481.0, -481.0, -481.0, -481.0, -481.0, -481.0, -480.0, -480.0, -478.0, -471.0, -454.0, -428.0, -370.0, -337.0, -306.0, -282.0, -262.0, -204.0, -125.0, -47.0, 24.0, 84.0, 141.0, 224.0, 272.0, 296.0, 310.0, 320.0, 331.0, 335.0, 335.0, 335.0, 335.0, 335.0, 335.0, 335.0, 351.0, 366.0, 380.0, 388.0, 391.0, 393.0, 393.0]	[0.012435069947969168, 0.01773836137726903, 0.02280715707456693, 0.0398348972084932, 0.05670050415210426, 0.07299540226813406, 0.09005283837905154, 0.10625318723032251, 0.12328843667637557, 0.13958606543019414, 0.1566929948166944, 0.1736285750521347, 0.18995624111266807, 0.2064368244027719, 0.22333929530577734, 0.24003901437390596, 0.25649331498425454, 0.2729776529595256, 0.29005966504337266, 0.3066798535292037, 0.3232607886893675, 0.3424447296420112, 0.3566469148499891, 0.37335721525596455, 0.3898859265027568, 0.4074843754642643, 0.42341609520372003, 0.43986800650600344, 0.45699985325336456, 0.47293635160895064, 0.48996170243481174, 0.5069856879417785, 0.5232160740415566, 0.539758438593708, 0.5568592240451835, 0.57296331692487, 0.5900501076830551, 0.6069611119455658, 0.6232136847102083, 0.6396260014153086, 0.6566298482357524, 0.6734162658685818, 0.6898330198600888, 0.7073335062596016, 0.7233874232624657, 0.7398601558525115, 0.7569428505958058, 0.7729759462526999, 0.7900890196906403, 0.8063531977823004, 0.8233403192716651, 0.8400482303695753, 0.8566148295649327, 0.8754055548342876, 0.8899893503985368, 0.9062081312295049, 0.9232700046850368, 0.9396239533671178, 0.9567274694563821, 0.9733947619097307, 0.9899002625024877, 1.0064218057086691, 1.0234601271804422, 1.0401100116432644, 1.0564305097213946, 1.0731042874976993, 1.0901535316370428, 1.1069935385603458, 1.1232215354102664, 1.1396311213611625, 1.1568377200164832, 1.1729472742881626, 1.1900282623828389, 1.2063572937622666, 1.2233618233003654, 1.239656380028464, 1.2568087067338638, 1.2730138342594728, 1.2901525076013058, 1.3063467124593444]
6	animate/a78.jpg	animate	inanimate	left	1.015	[0.0, 2.0, 2.0, 2.0, 2.0, 2.0, 2.0, 2.0, 2.0, 2.0, 2.0, 2.0, 2.0, 2.0, 2.0, 2.0, 2.0, 2.0, 2.0, 2.0, 2.0, 2.0, 2.0, 2.0, 3.0, 3.0, -1.0, -5.0, -10.0, -14.0, -14.0, -14.0, -14.0, -14.0, -14.0, -14.0, -14.0, -14.0, -14.0, -14.0, -14.0, -11.0, -23.0, -114.0, -225.0, -321.0, -399.0, -440.0, -458.0, -477.0, -488.0, -501.0, -527.0, -554.0, -610.0, -662.0, -692.0, -715.0, -737.0, -753.0, -761.0]	[-490.0, -489.0, -489.0, -489.0, -489.0, -489.0, -489.0, -489.0, -489.0, -489.0, -489.0, -489.0, -489.0, -489.0, -489.0, -489.0, -489.0, -489.0, -489.0, -489.0, -489.0, -489.0, -489.0, -489.0, -488.0, -487.0, -484.0, -481.0, -479.0, -476.0, -476.0, -476.0, -476.0, -476.0, -476.0, -476.0, -476.0, -476.0, -476.0, -476.0, -476.0, -462.0, -386.0, -274.0, -150.0, -22.0, 94.0, 159.0, 192.0, 224.0, 241.0, 256.0, 277.0, 285.0, 296.0, 303.0, 310.0, 320.0, 337.0, 351.0, 360.0]	[0.00940881110727787, 0.015806074952706695, 0.020869750645942986, 0.03425137122394517, 0.05119514343095943, 0.0672985537094064, 0.08441811241209507, 0.10122466873144731, 0.11759022279875353, 0.13390355283627287, 0.15094153297832236, 0.1672224364010617, 0.18434301915112883, 0.20128440205007792, 0.21760763076599687, 0.23390696616843343, 0.25099682895233855, 0.2672575937467627, 0.2838634462095797, 0.30311906710267067, 0.31767623871564865, 0.3343742511351593, 0.3508019277942367, 0.3685997152351774, 0.38437476311810315, 0.40101474890252575, 0.4174407189129852, 0.4346838401979767, 0.4509053516667336, 0.467231311078649, 0.4842812378774397, 0.5005491706542671, 0.5175574548193254, 0.5338861448690295, 0.5509050103719346, 0.5672613484202884, 0.5844819417106919, 0.600552242656704, 0.6176837480161339, 0.6339813767699525, 0.6510179915931076, 0.6672910443739966, 0.68440821376862, 0.7005105999996886, 0.7177567933104001, 0.7339114035130478, 0.7511360928183421, 0.7672978710033931, 0.7843426777981222, 0.8006037839222699, 0.8176328894332983, 0.8339315421762876, 0.8510394955519587, 0.8672804630477913, 0.8843300485168584, 0.9005092346924357, 0.9176120680640452, 0.933918230177369, 0.9510118475882336, 0.9672483777394518, 0.9844665817217901]
7	inanimate/n35.jpg	animate	inanimate	right	1.036	[0.0, 0.0, 0.0, 0.0, 0.0, 0.0, 0.0, 0.0, 0.0, 0.0, 0.0, 0.0, 0.0, 0.0, 0.0, 0.0, 0.0, 0.0, 0.0, 0.0, 0.0, 0.0, 0.0, 0.0, 0.0, 0.0, 0.0, 0.0, 0.0, 0.0, 0.0, 0.0, 0.0, 0.0, 0.0, 0.0, 0.0, 1.0, 6.0, 17.0, 37.0, 74.0, 125.0, 166.0, 181.0, 182.0, 153.0, 73.0, 22.0, -2.0, -3.0, 17.0, 79.0, 178.0, 291.0, 415.0, 532.0, 626.0, 714.0, 731.0, 739.0, 739.0]	[-490.0, -490.0, -490.0, -490.0, -490.0, -490.0, -490.0, -490.0, -490.0, -490.0, -490.0, -490.0, -490.0, -490.0, -490.0, -490.0, -490.0, -490.0, -490.0, -490.0, -490.0, -490.0, -490.0, -490.0, -490.0, -490.0, -490.0, -490.0, -490.0, -490.0, -490.0, -490.0, -490.0, -490.0, -490.0, -488.0, -486.0, -483.0, -474.0, -458.0, -427.0, -377.0, -316.0, -263.0, -230.0, -196.0, -157.0, -97.0, -42.0, 14.0, 66.0, 121.0, 189.0, 247.0, 301.0, 351.0, 392.0, 430.0, 470.0, 483.0, 492.0, 492.0]	[0.004887752584181726, 0.010633070371113718, 0.024856759584508836, 0.04148377472301945, 0.06079878757009283, 0.07490642351331189, 0.09125354560092092, 0.10833419230766594, 0.12447173590771854, 0.1416223559062928, 0.1579046247061342, 0.17510712734656408, 0.19125593488570303, 0.20838539226679131, 0.22448402387090027, 0.24163566791685298, 0.2585033228388056, 0.27481426362646744, 0.2911323723383248, 0.3082727523869835, 0.3249410688295029, 0.34146329475333914, 0.3585009335074574, 0.3751313620014116, 0.39160068129422143, 0.40818366449093446, 0.42742051207460463, 0.4415653533069417, 0.45825483242515475, 0.47483542625559494, 0.49388283398002386, 0.5082864057039842, 0.5246147544239648, 0.541673214524053, 0.557942854007706, 0.575148428673856, 0.5912815348710865, 0.608438981580548, 0.6244809518684633, 0.6417175878304988, 0.6579698193236254, 0.6750453460845165, 0.6912600309005938, 0.7083690083236434, 0.7245557038113475, 0.7416670705424622, 0.7579418300301768, 0.7749900501221418, 0.7912641268922016, 0.8084222562611103, 0.824576866463758, 0.8416459079016931, 0.8580926991999149, 0.8750354474177584, 0.8911985909799114, 0.908342384325806, 0.924754359642975, 0.9416718492284417, 0.9581087418482639, 0.9750709460349753, 0.9914156787563115, 1.0083109816769138]
8	inanimate/n12.jpg	inanimate	animate	left	1.297	[0.0, 0.0, 0.0, 0.0, 0.0, 0.0, 1.0, 4.0, 6.0, 6.0, 6.0, 6.0, 6.0, 7.0, 7.0, 7.0, 7.0, 7.0, 7.0, 7.0, 7.0, 7.0, 7.0, 7.0, 7.0, 7.0, 7.0, 7.0, 7.0, 7.0, 7.0, 7.0, 7.0, 7.0, 4.0, 0.0, -2.0, -2.0, -2.0, -2.0, -2.0, -2.0, 4.0, 14.0, 53.0, 129.0, 234.0, 353.0, 477.0, 584.0, 670.0, 737.0, 776.0, 781.0, 781.0, 781.0, 781.0, 781.0, 781.0, 780.0, 780.0, 780.0, 780.0, 780.0, 777.0, 739.0, 623.0, 451.0, 245.0, 62.0, -115.0, -285.0, -456.0, -604.0, -707.0, -759.0, -773.0, -773.0]	[-490.0, -490.0, -490.0, -490.0, -490.0, -490.0, -490.0, -490.0, -489.0, -489.0, -489.0, -489.0, -489.0, -488.0, -488.0, -488.0, -488.0, -488.0, -488.0, -488.0, -488.0, -488.0, -488.0, -488.0, -488.0, -488.0, -488.0, -488.0, -488.0, -488.0, -488.0, -488.0, -488.0, -487.0, -484.0, -482.0, -481.0, -481.0, -481.0, -481.0, -480.0, -479.0, -475.0, -465.0, -422.0, -338.0, -219.0, -92.0, 30.0, 139.0, 243.0, 329.0, 399.0, 416.0, 423.0, 429.0, 432.0, 433.0, 434.0, 436.0, 436.0, 436.0, 436.0, 436.0, 437.0, 437.0, 423.0, 403.0, 401.0, 401.0, 415.0, 439.0, 465.0, 484.0, 500.0, 502.0, 502.0, 502.0]	[0.0036524683237075806, 0.008274117717519403, 0.022250681824516505, 0.03934976056916639, 0.05573989055119455, 0.07192214875249192, 0.08906321146059781, 0.10606023162836209, 0.12232850573491305, 0.13873979839263484, 0.15572316525503993, 0.17248432425549254, 0.1889502302510664, 0.2065753031638451, 0.22256504953838885, 0.23939140315633267, 0.2556310053332709, 0.2721371885854751, 0.28905092348577455, 0.30581276514567435, 0.322428175015375, 0.3386530998395756, 0.3556921039125882, 0.37244950828608125, 0.38897924352204427, 0.4055301414337009, 0.4225827988702804, 0.4391333553940058, 0.4555726373801008, 0.4721600578632206, 0.4891956486972049, 0.5059107277775183, 0.5224759615957737, 0.5414622707758099, 0.5556897146161646, 0.5723713430343196, 0.589298048580531, 0.605369032244198, 0.6221796845202334, 0.6394132485147566, 0.6556327120051719, 0.6720419566845521, 0.6890925660845824, 0.7058120825095102, 0.7224636736209504, 0.7386408118181862, 0.7556996132479981, 0.7725850175484084, 0.7890348808141425, 0.8054072615341283, 0.8225005376152694, 0.839155200694222, 0.8554934480926022, 0.8723443777416833, 0.8891645873663947, 0.9057963811792433, 0.9223093910841271, 0.9414387187571265, 0.9558259064797312, 0.9723375510657206, 0.9891860913485289, 1.0066961350967176, 1.022177636565175, 1.0393961818190292, 1.0556432933080941, 1.0720197699847631, 1.089052630122751, 1.1058305145124905, 1.1224131563212723, 1.1386520758387633, 1.1557736825197935, 1.1724566763150506, 1.1889529608888552, 1.205486792139709, 1.2224759616074152, 1.2391074140905403, 1.2556337359710597, 1.2749374848790467]
9	animate/a76.jpg	inanimate	animate	right	1.324	[0.0, 0.0, 0.0, 0.0, 0.0, 0.0, 2.0, 2.0, 2.0, 2.0, 2.0, 2.0, 2.0, 2.0, 3.0, 3.0, 3.0, 3.0, 3.0, 3.0, 3.0, 3.0, 3.0, 3.0, 3.0, 3.0, 3.0, 3.0, 3.0, 3.0, 3.0, 3.0, 3.0, 3.0, 3.0, 3.0, 3.0, 3.0, 3.0, 3.0, 3.0, 14.0, 26.0, 19.0, 3.0, -36.0, -78.0, -124.0, -147.0, -149.0, -118.0, -54.0, 82.0, 258.0, 514.0, 663.0, 735.0, 745.0, 737.0, 667.0, 528.0, 313.0, 68.0, -132.0, -245.0, -274.0, -274.0, -216.0, -79.0, 140.0, 407.0, 668.0, 889.0, 959.0, 959.0, 959.0, 959.0, 959.0, 959.0, 959.0]	[-490.0, -490.0, -490.0, -490.0, -490.0, -490.0, -488.0, -488.0, -488.0, -488.0, -488.0, -488.0, -488.0, -488.0, -488.0, -486.0, -485.0, -485.0, -485.0, -485.0, -485.0, -485.0, -485.0, -485.0, -485.0, -485.0, -485.0, -485.0, -485.0, -485.0, -485.0, -485.0, -485.0, -485.0, -485.0, -485.0, -485.0, -485.0, -485.0, -485.0, -484.0, -466.0, -383.0, -315.0, -290.0, -244.0, -202.0, -151.0, -106.0, -62.0, 6.0, 77.0, 150.0, 208.0, 283.0, 328.0, 355.0, 360.0, 363.0, 372.0, 381.0, 401.0, 429.0, 431.0, 431.0, 431.0, 431.0, 444.0, 462.0, 462.0, 462.0, 462.0, 462.0, 477.0, 492.0, 498.0, 498.0, 500.0, 500.0, 500.0]	[0.004279155808035284, 0.01110922999214381, 0.02319276100024581, 0.040247466473374516, 0.056621212512254715, 0.07372984854737297, 0.09000631468370557, 0.10711358539992943, 0.12398772564483806, 0.14018739183666185, 0.15656625787960365, 0.17379436048213392, 0.18995477340649813, 0.20705965475644916, 0.22408910159720108, 0.2402225491241552, 0.256614385813009, 0.2737776351859793, 0.2904432209325023, 0.3069364335387945, 0.3245929091353901, 0.34043076232774183, 0.35704719612840563, 0.37359911802923307, 0.3927915922831744, 0.4071374787017703, 0.42375664319843054, 0.44040959962876514, 0.4566645617596805, 0.47363256866810843, 0.49043980764690787, 0.5069466735585593, 0.523372643510811, 0.5404758182703517, 0.5573506411747076, 0.5736230112961493, 0.5899742293404415, 0.607076721440535, 0.6237921418505721, 0.6403058344149031, 0.6567280497401953, 0.6737540832255036, 0.6904118183301762, 0.706949062878266, 0.7256694735842757, 0.7404881062684581, 0.756570695200935, 0.7738059658440761, 0.7900581972789951, 0.8071081240777858, 0.8233845901559107, 0.8404239356168546, 0.8567314630490728, 0.8737428192398511, 0.8900247466517612, 0.9071422573761083, 0.9232729742652737, 0.9404416849720292, 0.9566949404543266, 0.9738151818164624, 0.9901974611566402, 1.0071449880488217, 1.0235173687105998, 1.0404188156244345, 1.0568912069429643, 1.0738643337972462, 1.0902165758307092, 1.1071617133566178, 1.1235607180278748, 1.1406113274861127, 1.1567536497022957, 1.173829859122634, 1.1902670931303874, 1.2071873133536428, 1.2235296567087062, 1.2404887889279053, 1.2569335322477855, 1.2738462431007065, 1.2899820799939334, 1.3071142680710182]
10	animate/a64.jpg	animate	inanimate	left	0.978	[0.0, 0.0, 0.0, 0.0, 0.0, 0.0, 0.0, 0.0, 0.0, 0.0, 0.0, 0.0, 0.0, 0.0, 0.0, 0.0, 0.0, 0.0, 0.0, 0.0, 0.0, 0.0, 0.0, 0.0, 0.0, 0.0, 0.0, 0.0, 0.0, 0.0, 0.0, 0.0, 0.0, 0.0, 0.0, 0.0, -3.0, -20.0, -57.0, -113.0, -187.0, -269.0, -353.0, -434.0, -498.0, -551.0, -599.0, -639.0, -657.0, -663.0, -667.0, -673.0, -680.0, -689.0, -692.0, -694.0, -694.0, -694.0]	[-490.0, -490.0, -490.0, -490.0, -490.0, -490.0, -490.0, -490.0, -490.0, -490.0, -490.0, -490.0, -490.0, -490.0, -490.0, -490.0, -490.0, -490.0, -490.0, -490.0, -490.0, -490.0, -490.0, -490.0, -490.0, -490.0, -490.0, -490.0, -490.0, -490.0, -490.0, -490.0, -490.0, -490.0, -490.0, -490.0, -482.0, -465.0, -426.0, -356.0, -268.0, -171.0, -62.0, 52.0, 144.0, 218.0, 288.0, 353.0, 378.0, 392.0, 403.0, 414.0, 425.0, 433.0, 436.0, 438.0, 438.0, 438.0]	[0.013466237112879753, 0.021146913233678788, 0.028881861304398626, 0.042238905909471214, 0.061193471075966954, 0.07559772545937449, 0.09189228218747303, 0.1089992115739733, 0.1259334264905192, 0.14217541797552258, 0.15851468936307356, 0.17560933076310903, 0.19186292757513002, 0.20892992097651586, 0.22527260571951047, 0.2418255516095087, 0.2614706335007213, 0.27565916540334, 0.29192948748823255, 0.30892002233304083, 0.32528796570841223, 0.3422778178937733, 0.35928507801145315, 0.37556768814101815, 0.3918967195204459, 0.4090091102407314, 0.42523505905410275, 0.44205970608163625, 0.4585344866500236, 0.4754591442178935, 0.4918786289053969, 0.5089589342824183, 0.5256436347262934, 0.5421907779527828, 0.5615194441052154, 0.5756642853957601, 0.5919021808658727, 0.6089213876402937, 0.6252354003954679, 0.6423911404563114, 0.6592816647025757, 0.6755912401131354, 0.6918956955196336, 0.7089954569237307, 0.7252159444033168, 0.7423774871276692, 0.7592567473766394, 0.7755799760925584, 0.791883748897817, 0.8090439262450673, 0.8252398377517238, 0.8423259458504617, 0.8592830300331116, 0.8755898748058826, 0.8918875035597011, 0.9089449396706186, 0.9252220884081908, 0.9422795245191082]
11	inanimate/n14.jpg	inanimate	animate	left	0.992	[0.0, 0.0, 0.0, 0.0, 0.0, 1.0, 1.0, 0.0, 0.0, 4.0, 6.0, 6.0, 6.0, 6.0, 6.0, 6.0, 6.0, 6.0, 6.0, 6.0, 6.0, 6.0, 6.0, 6.0, 6.0, 6.0, -4.0, -13.0, -43.0, -107.0, -173.0, -205.0, -221.0, -257.0, -350.0, -387.0, -470.0, -491.0, -500.0, -506.0, -516.0, -528.0, -542.0, -550.0, -557.0, -565.0, -575.0, -595.0, -664.0, -704.0, -740.0, -760.0, -773.0, -779.0, -783.0, -785.0, -786.0, -786.0, -786.0]	[-490.0, -490.0, -490.0, -490.0, -490.0, -490.0, -490.0, -490.0, -490.0, -488.0, -488.0, -488.0, -488.0, -488.0, -488.0, -488.0, -488.0, -488.0, -488.0, -488.0, -488.0, -488.0, -488.0, -488.0, -488.0, -487.0, -474.0, -465.0, -421.0, -366.0, -316.0, -287.0, -267.0, -211.0, -95.0, -55.0, 29.0, 52.0, 69.0, 87.0, 108.0, 129.0, 145.0, 154.0, 162.0, 168.0, 182.0, 209.0, 295.0, 334.0, 360.0, 378.0, 390.0, 400.0, 409.0, 414.0, 416.0, 416.0, 416.0]	[0.007963948359247297, 0.01462130801519379, 0.018979448301251978, 0.03085647284751758, 0.04813953005941585, 0.06436035892693326, 0.0813734217081219, 0.09777174371993169, 0.11473121726885438, 0.1314432243234478, 0.147938143578358, 0.16579976031789556, 0.1814386163605377, 0.19834757258649915, 0.2146844546077773, 0.2311537739005871, 0.24817707668989897, 0.264745382592082, 0.2813744457089342, 0.3004546214360744, 0.31480835849652067, 0.33147838164586574, 0.3479405328980647, 0.36547481128945947, 0.381417112366762, 0.39816905540646985, 0.4145417773979716, 0.4315667868941091, 0.4481422607204877, 0.4650624810019508, 0.48131846712203696, 0.49774955707835034, 0.5147605718811974, 0.5315046642790549, 0.5479497489286587, 0.5669817966991104, 0.5813563550473191, 0.5981461860937998, 0.6145428013987839, 0.6314299123478122, 0.6481484047253616, 0.6650798889459111, 0.6813095924444497, 0.6977082557859831, 0.7148114305455238, 0.7310186060494743, 0.7480886714765802, 0.7650542889605276, 0.7813102751388215, 0.797696991765406, 0.8149291904410347, 0.8314493683283217, 0.8479473595507443, 0.8667616368620656, 0.8814096029964276, 0.8976812904584222, 0.9147288279491477, 0.9310124620096758, 0.9479415569221601]
12	inanimate/n30.jpg	animate	inanimate	right	1.045	[0.0, 0.0, 0.0, 0.0, 0.0, 0.0, 0.0, 0.0, 0.0, -1.0, -1.0, -1.0, -1.0, -1.0, -1.0, -1.0, -1.0, -1.0, 0.0, 2.0, 4.0, 5.0, 5.0, 6.0, 6.0, 6.0, 6.0, 6.0, 6.0, 6.0, 6.0, 6.0, 5.0, -3.0, -15.0, -20.0, -33.0, -38.0, -62.0, -84.0, -119.0, -188.0, -266.0, -351.0, -450.0, -553.0, -621.0, -643.0, -646.0, -633.0, -527.0, -462.0, -207.0, 17.0, 246.0, 459.0, 624.0, 745.0, 819.0, 844.0, 848.0, 848.0]	[-490.0, -490.0, -490.0, -490.0, -490.0, -490.0, -490.0, -488.0, -488.0, -488.0, -488.0, -488.0, -488.0, -488.0, -488.0, -488.0, -488.0, -491.0, -492.0, -494.0, -494.0, -494.0, -494.0, -494.0, -494.0, -493.0, -493.0, -493.0, -493.0, -493.0, -493.0, -493.0, -493.0, -500.0, -506.0, -508.0, -509.0, -509.0, -495.0, -467.0, -412.0, -320.0, -218.0, -99.0, 42.0, 172.0, 251.0, 282.0, 293.0, 303.0, 317.0, 319.0, 328.0, 356.0, 388.0, 422.0, 446.0, 474.0, 497.0, 508.0, 512.0, 512.0]	[0.015323430066928267, 0.023158388736192137, 0.029031706391833723, 0.04623967036604881, 0.06267826969269663, 0.079098095651716, 0.0962067317450419, 0.11253610445419326, 0.12961879919748753, 0.14652707282220945, 0.16285405622329563, 0.1791701169568114, 0.19627260899869725, 0.21297164540737867, 0.22934470878681168, 0.24579696141881868, 0.26285473885945976, 0.2791895729023963, 0.2963657929212786, 0.3125070911482908, 0.32954165793489665, 0.34648645418928936, 0.36284347489709035, 0.3791731889359653, 0.3961999050807208, 0.4129699387704022, 0.42934880481334403, 0.445796278771013, 0.46278647222789004, 0.4796380845364183, 0.49612583580892533, 0.5140444551943801, 0.5295467779505998, 0.5462632223498076, 0.5627820349182002, 0.5819833838613704, 0.5961893237545155, 0.6129586747847497, 0.6294433540315367, 0.6486672309692949, 0.6629438268137164, 0.6795906392508186, 0.6964562461944297, 0.7124425792135298, 0.7294812420150265, 0.746556427446194, 0.762840744224377, 0.7791755782673135, 0.7962586143403314, 0.8129586747963913, 0.8292952154879458, 0.84583689738065, 0.8628700988483615, 0.8795745965908282, 0.8961234464659356, 0.9151473022648133, 0.9295897859265096, 0.9462987210135907, 0.9627042110078037, 0.9800012629129924, 0.9962831903249025, 1.0131914638914168]
13	animate/a5.jpg	animate	inanimate	left	1.102	[0.0, 0.0, 0.0, 0.0, 0.0, 0.0, 0.0, -1.0, -1.0, -1.0, -1.0, -1.0, -1.0, -1.0, -1.0, -1.0, -1.0, -1.0, -1.0, -1.0, -1.0, -1.0, -1.0, -1.0, -1.0, -1.0, -1.0, -6.0, -16.0, -28.0, -40.0, -52.0, -64.0, -78.0, -92.0, -109.0, -132.0, -156.0, -190.0, -212.0, -231.0, -244.0, -254.0, -282.0, -295.0, -363.0, -413.0, -447.0, -478.0, -513.0, -545.0, -568.0, -583.0, -600.0, -609.0, -620.0, -634.0, -644.0, -654.0, -663.0, -670.0, -674.0, -676.0, -677.0, -677.0, -677.0]	[-490.0, -490.0, -490.0, -490.0, -490.0, -490.0, -489.0, -489.0, -488.0, -488.0, -488.0, -486.0, -486.0, -486.0, -486.0, -486.0, -486.0, -486.0, -486.0, -486.0, -486.0, -486.0, -486.0, -486.0, -486.0, -486.0, -486.0, -481.0, -473.0, -465.0, -456.0, -446.0, -439.0, -430.0, -421.0, -409.0, -396.0, -382.0, -362.0, -349.0, -336.0, -324.0, -311.0, -269.0, -250.0, -157.0, -93.0, -44.0, 4.0, 66.0, 119.0, 166.0, 203.0, 239.0, 262.0, 287.0, 319.0, 338.0, 355.0, 369.0, 381.0, 385.0, 388.0, 388.0, 389.0, 389.0]	[0.0018901658477261662, 0.00818639510544017, 0.018989927251823246, 0.035537753137759864, 0.052712266449816525, 0.06891466333763674, 0.0859550327877514, 0.10227109352126718, 0.11936948960646987, 0.13560260640224442, 0.15256651723757386, 0.16909761785063893, 0.18592806748347357, 0.20241718407487497, 0.21942649222910404, 0.23575927829369903, 0.25268222915474325, 0.26912185247056186, 0.28553451044717804, 0.3022523202234879, 0.319436049554497, 0.3357698596082628, 0.3527535677421838, 0.3690081885433756, 0.3860338806989603, 0.40232092811493203, 0.41940601222449914, 0.4357995555619709, 0.4527788264094852, 0.46915018308209255, 0.4860448033432476, 0.5024359573726542, 0.5194142042309977, 0.5358282275265083, 0.5526439998648129, 0.5691856817575172, 0.5859703927417286, 0.6024444907088764, 0.6193534469348378, 0.6357592782587744, 0.6526102079078555, 0.6691573510761373, 0.6871804184047505, 0.7021478723036125, 0.7193032709765248, 0.735780440911185, 0.7526818878250197, 0.7688750686938874, 0.7860352460411377, 0.8024342507123947, 0.8193640282843262, 0.8357821475947276, 0.8527207997976802, 0.8690897671622224, 0.8859495714423247, 0.9022325229016133, 0.9193155589746311, 0.9357497209566645, 0.9526480958447792, 0.9691167324781418, 0.9860523127135821, 1.0023943147389218, 1.0193851909134537, 1.0357152462820522, 1.0526562878512777, 1.069118780491408]
14	animate/a39.jpg	animate	inanimate	left	0.811	[0.0, 0.0, 0.0, 0.0, 0.0, 0.0, 0.0, 0.0, 0.0, 0.0, 0.0, 0.0, 0.0, 0.0, 0.0, 0.0, 0.0, 0.0, -11.0, -22.0, -36.0, -49.0, -60.0, -66.0, -73.0, -81.0, -92.0, -113.0, -139.0, -161.0, -205.0, -241.0, -281.0, -327.0, -383.0, -448.0, -520.0, -578.0, -637.0, -710.0, -742.0, -756.0, -793.0, -807.0, -820.0, -825.0, -825.0, -825.0]	[-490.0, -490.0, -490.0, -490.0, -490.0, -490.0, -490.0, -490.0, -490.0, -490.0, -490.0, -490.0, -489.0, -489.0, -489.0, -489.0, -489.0, -489.0, -494.0, -500.0, -509.0, -512.0, -512.0, -512.0, -512.0, -509.0, -505.0, -499.0, -492.0, -482.0, -450.0, -406.0, -342.0, -259.0, -161.0, -43.0, 80.0, 194.0, 291.0, 416.0, 475.0, 496.0, 540.0, 540.0, 540.0, 540.0, 540.0, 540.0]	[0.0018799258978106081, 0.010499267838895321, 0.018187111942097545, 0.03500049497233704, 0.05172683799173683, 0.06893207132816315, 0.08500817493768409, 0.10223491222131997, 0.11883564473828301, 0.1352998440270312, 0.15190330718178302, 0.16898804996162653, 0.18580109160393476, 0.20204752043355256, 0.21838201314676553, 0.2355626704520546, 0.2518131952965632, 0.26887984736822546, 0.2855607931269333, 0.3022591468761675, 0.3184530104044825, 0.33549815852893516, 0.35181968059623614, 0.3688644873909652, 0.38555669714696705, 0.4022437868989073, 0.4184287757379934, 0.43547563056927174, 0.4517575579811819, 0.46877881279215217, 0.48554543318459764, 0.5020881390664726, 0.518664636882022, 0.5356865743524395, 0.5522668269113638, 0.5686968928785063, 0.5850167082971893, 0.6021980482619256, 0.6191704924567603, 0.6354531025863253, 0.651764384645503, 0.6688310367753729, 0.6855420198407955, 0.7020321604213677, 0.71882403944619, 0.7352981373551302, 0.7526088426238857, 0.7688573193736374]
15	animate/a18.jpg	inanimate	animate	right	1.091	[0.0, 0.0, 0.0, 0.0, 0.0, 0.0, 0.0, 0.0, 0.0, 0.0, 0.0, 0.0, 0.0, 0.0, 0.0, 0.0, 0.0, 0.0, 0.0, 0.0, 0.0, 0.0, 0.0, 0.0, 0.0, 0.0, 4.0, 12.0, 21.0, 42.0, 79.0, 85.0, 65.0, 13.0, -73.0, -173.0, -284.0, -393.0, -500.0, -586.0, -646.0, -682.0, -698.0, -701.0, -701.0, -701.0, -701.0, -708.0, -718.0, -731.0, -738.0, -745.0, -745.0, -745.0, -737.0, -661.0, -351.0, -44.0, 262.0, 527.0, 730.0, 865.0, 920.0, 924.0, 924.0, 924.0]	[-490.0, -490.0, -490.0, -490.0, -490.0, -490.0, -490.0, -490.0, -490.0, -490.0, -490.0, -490.0, -490.0, -490.0, -490.0, -490.0, -490.0, -490.0, -490.0, -490.0, -490.0, -490.0, -490.0, -490.0, -490.0, -482.0, -464.0, -435.0, -394.0, -326.0, -228.0, -156.0, -78.0, 2.0, 76.0, 144.0, 224.0, 301.0, 367.0, 422.0, 464.0, 489.0, 499.0, 502.0, 502.0, 502.0, 502.0, 501.0, 500.0, 498.0, 496.0, 495.0, 495.0, 493.0, 486.0, 478.0, 478.0, 478.0, 498.0, 512.0, 519.0, 523.0, 526.0, 527.0, 527.0, 527.0]	[0.012070526194293052, 0.018047267745714635, 0.024587550200521946, 0.039178172417450696, 0.055437571834772825, 0.07247179734986275, 0.08949475880945101, 0.10586065414827317, 0.12216749892104417, 0.13929559098323807, 0.15558741707354784, 0.17275339708430693, 0.18921896169194952, 0.20587874483317137, 0.22215350426267833, 0.23956934007583186, 0.2555607930989936, 0.2727571517461911, 0.28888001799350604, 0.3059579340624623, 0.3222033389029093, 0.33925121766515076, 0.3557205369579606, 0.37266840517986566, 0.3889004979864694, 0.4059941153973341, 0.42218866158509627, 0.43930480699054897, 0.45576081424951553, 0.4727155091241002, 0.4891820977209136, 0.5059265314484946, 0.5223740054061636, 0.5394218841684051, 0.5557737849303521, 0.5726994664873928, 0.589100860466715, 0.6059879714157432, 0.6223746881005354, 0.639329724246636, 0.6557181476382539, 0.6725714665954001, 0.6887902474263683, 0.7059053687844425, 0.722405749373138, 0.7393290416221134, 0.7558290808810852, 0.7727148264530115, 0.7890278152190149, 0.8059579340624623, 0.8223975573782809, 0.8394232495338656, 0.8557635449105874, 0.87268751981901, 0.8891646897536702, 0.9060442913323641, 0.9224828906590119, 0.9393672709120438, 0.9557481849333271, 0.9726530451443978, 0.9890192818711512, 1.005992408725433, 1.0223436267697252, 1.0393331376253627, 1.055750574276317, 1.0726294931955636]
16	inanimate/n70.jpg	animate	inanimate	right	1.131	[0.0, 0.0, 0.0, 0.0, 0.0, 0.0, 0.0, 0.0, 0.0, 0.0, 0.0, 0.0, 0.0, 0.0, 0.0, 0.0, 0.0, 0.0, 0.0, 0.0, 0.0, 0.0, 0.0, 0.0, 0.0, 0.0, 0.0, -8.0, -47.0, -97.0, -147.0, -194.0, -229.0, -269.0, -308.0, -361.0, -440.0, -494.0, -548.0, -592.0, -632.0, -667.0, -699.0, -731.0, -752.0, -770.0, -773.0, -777.0, -779.0, -780.0, -780.0, -780.0, -780.0, -774.0, -701.0, -532.0, -293.0, -39.0, 203.0, 411.0, 624.0, 676.0, 692.0, 693.0, 693.0, 693.0, 693.0]	[-490.0, -490.0, -490.0, -490.0, -490.0, -490.0, -490.0, -490.0, -490.0, -490.0, -490.0, -490.0, -490.0, -490.0, -490.0, -490.0, -490.0, -490.0, -490.0, -490.0, -490.0, -490.0, -490.0, -490.0, -490.0, -490.0, -490.0, -487.0, -452.0, -395.0, -336.0, -282.0, -231.0, -171.0, -109.0, -35.0, 72.0, 131.0, 178.0, 212.0, 242.0, 273.0, 301.0, 327.0, 344.0, 358.0, 359.0, 363.0, 363.0, 364.0, 364.0, 364.0, 364.0, 366.0, 377.0, 387.0, 387.0, 387.0, 387.0, 390.0, 404.0, 411.0, 416.0, 417.0, 417.0, 417.0, 417.0]	[0.003568500396795571, 0.009049285086803138, 0.02171820227522403, 0.03899579815333709, 0.055267826945055276, 0.07221057516289875, 0.0891065607429482, 0.10557041870197281, 0.121848932816647, 0.13895791018148884, 0.15522311232052743, 0.1721900951815769, 0.18895193689968437, 0.20561854663537815, 0.22192163672298193, 0.23903163813520223, 0.25526543764863163, 0.27218804717995226, 0.2890437554451637, 0.30557178403250873, 0.3221175618818961, 0.3390063794795424, 0.35532073356444016, 0.3724341483321041, 0.38905365410028026, 0.4056185466470197, 0.42192846338730305, 0.4391022940981202, 0.45526885095750913, 0.4723498390521854, 0.48903556348523125, 0.5056113786413334, 0.5218857967993245, 0.5391674886923283, 0.5552408616640605, 0.5722679191385396, 0.589068672794383, 0.6056089893099852, 0.6219380207476206, 0.6390370994922705, 0.655249394942075, 0.6723180950502865, 0.6890352221671492, 0.7056076239678077, 0.7220868419390172, 0.7388930569286458, 0.7557122425641865, 0.7721832685056143, 0.7889577395399101, 0.8055495973676443, 0.8246355757582933, 0.8389876061701216, 0.8553098108968697, 0.872289081744384, 0.8890942727448419, 0.9056161573389545, 0.9219021807657555, 0.9389971634955145, 0.9552627069642767, 0.972367929702159, 0.9891195314121433, 1.0055772453779355, 1.0219649860518984, 1.03899818751961, 1.055242909642402, 1.0722395884804428, 1.0893468591966666]
17	inanimate/n28.jpg	inanimate	animate	right	1.459	[0.0, 0.0, 0.0, 0.0, 0.0, 0.0, 0.0, 0.0, 0.0, 0.0, 0.0, 0.0, 0.0, 0.0, 0.0, 0.0, 0.0, 0.0, 0.0, 1.0, -1.0, -8.0, -24.0, -44.0, -82.0, -100.0, -149.0, -178.0, -223.0, -272.0, -337.0, -397.0, -446.0, -487.0, -524.0, -558.0, -597.0, -623.0, -639.0, -644.0, -645.0, -644.0, -634.0, -591.0, -480.0, -348.0, -273.0, -259.0, -259.0, -259.0, -267.0, -270.0, -268.0, -181.0, 13.0, 296.0, 622.0, 943.0, 959.0, 959.0, 959.0, 959.0, 959.0, 959.0, 959.0, 959.0, 957.0, 943.0, 916.0, 879.0, 852.0, 837.0, 834.0, 834.0, 834.0, 834.0, 834.0, 834.0, 834.0, 834.0, 834.0, 834.0, 834.0, 834.0, 834.0, 834.0, 834.0, 834.0]	[-490.0, -490.0, -490.0, -490.0, -490.0, -490.0, -490.0, -490.0, -490.0, -490.0, -490.0, -490.0, -490.0, -490.0, -490.0, -490.0, -490.0, -490.0, -490.0, -489.0, -486.0, -482.0, -471.0, -457.0, -424.0, -407.0, -354.0, -310.0, -247.0, -160.0, -62.0, 17.0, 78.0, 131.0, 183.0, 230.0, 286.0, 318.0, 335.0, 342.0, 344.0, 346.0, 349.0, 350.0, 352.0, 371.0, 386.0, 391.0, 391.0, 391.0, 391.0, 392.0, 405.0, 438.0, 465.0, 465.0, 465.0, 465.0, 457.0, 452.0, 452.0, 452.0, 452.0, 452.0, 452.0, 452.0, 452.0, 452.0, 452.0, 456.0, 460.0, 463.0, 464.0, 464.0, 464.0, 464.0, 464.0, 464.0, 464.0, 464.0, 464.0, 464.0, 464.0, 464.0, 464.0, 464.0, 464.0, 464.0]	[0.012345640687271953, 0.018005625228397548, 0.024005236104130745, 0.03894709004089236, 0.05566148640355095, 0.07189255522098392, 0.089005287270993, 0.10577224899316207, 0.12204325379570946, 0.1384890210465528, 0.15557820117101073, 0.17228816024726257, 0.18871242355089635, 0.20539234532043338, 0.2222122136154212, 0.23894470068626106, 0.25550617987755686, 0.2746894381707534, 0.28892917005578056, 0.30560089979553595, 0.3224484160891734, 0.33854124502977356, 0.35572121967561543, 0.3723499415209517, 0.38869842886924744, 0.4055019132210873, 0.42238083214033395, 0.4385630903416313, 0.4556457850849256, 0.4725922879879363, 0.4888755807187408, 0.5052209960995242, 0.5222818455658853, 0.5385695756413043, 0.5555840037995949, 0.572583413333632, 0.5888837727252394, 0.6052370388060808, 0.6222920855507255, 0.6389979486120865, 0.6556058491114527, 0.6720048537827097, 0.6889912926708348, 0.7050865109195001, 0.7223057388910092, 0.7389348020078614, 0.7554850172600709, 0.7745761155965738, 0.7888766047544777, 0.8055821264861152, 0.8221316590206698, 0.8399888384738006, 0.8556785530527122, 0.8723557441844605, 0.8887011595652439, 0.9054858705494553, 0.9222262082621455, 0.9389829299761914, 0.9554850172135048, 0.9745665582595393, 0.9889134687255137, 1.0056476624449715, 1.0221176643972285, 1.0397751639829949, 1.055732483684551, 1.0723188801785, 1.0886861408944242, 1.1055469691636972, 1.1223323628655635, 1.1389761033351533, 1.155422894633375, 1.1718338459613733, 1.1889510153559968, 1.2055838331580162, 1.222532725369092, 1.2385275916894898, 1.2555799077963457, 1.2725987732992508, 1.2888533941004425, 1.3052158761420287, 1.3223968747770414, 1.3389846366480924, 1.355490478570573, 1.3746450648759492, 1.3889718366554007, 1.405679747753311, 1.4221190296811983, 1.4398707372019999]
18	inanimate/n76.jpg	inanimate	animate	left	0.958	[0.0, 0.0, 0.0, 0.0, 0.0, 0.0, 0.0, 0.0, 0.0, 0.0, -1.0, -1.0, -1.0, -1.0, -1.0, -1.0, -1.0, -1.0, -1.0, -1.0, -1.0, -1.0, -1.0, -1.0, -3.0, -3.0, -2.0, 0.0, -1.0, -17.0, -43.0, -72.0, -112.0, -189.0, -256.0, -332.0, -408.0, -496.0, -579.0, -639.0, -686.0, -717.0, -734.0, -740.0, -747.0, -760.0, -764.0, -776.0, -781.0, -793.0, -798.0, -800.0, -800.0, -800.0, -800.0, -799.0, -798.0]	[-490.0, -490.0, -490.0, -490.0, -490.0, -490.0, -490.0, -490.0, -490.0, -490.0, -485.0, -485.0, -485.0, -485.0, -485.0, -485.0, -485.0, -485.0, -485.0, -485.0, -485.0, -485.0, -485.0, -485.0, -484.0, -479.0, -475.0, -461.0, -446.0, -423.0, -382.0, -334.0, -284.0, -196.0, -136.0, -70.0, -12.0, 53.0, 101.0, 142.0, 178.0, 202.0, 223.0, 234.0, 251.0, 275.0, 285.0, 300.0, 311.0, 326.0, 341.0, 364.0, 388.0, 404.0, 412.0, 417.0, 418.0]	[0.0003510952228680253, 0.007955312728881836, 0.015223317197524011, 0.03245961182983592, 0.049739938403945416, 0.06594165257411078, 0.08287040615687147, 0.09906461095670238, 0.1154431356699206, 0.13244800647953525, 0.15075506287394091, 0.16611368441954255, 0.1821037721238099, 0.19912127224961296, 0.21616232441738248, 0.2324821397778578, 0.248813901853282, 0.2659597432357259, 0.28260757972020656, 0.2991980722290464, 0.31548921565990895, 0.3325514303869568, 0.3487961525679566, 0.36589932726928964, 0.3828082834952511, 0.3990888456464745, 0.4156571514904499, 0.43248077447060496, 0.44925422151573, 0.4657375354436226, 0.4835083576035686, 0.4992980827810243, 0.5159237326006405, 0.5323176172678359, 0.549351160065271, 0.5658764579566196, 0.5826990569476038, 0.5991748615633696, 0.6183239865349606, 0.6324753131484613, 0.6492743601556867, 0.6657221754430793, 0.6834547683247365, 0.6992127495468594, 0.7161957750213332, 0.7324138731928542, 0.7490142643800937, 0.7659146872465499, 0.7825911957188509, 0.7991267336183228, 0.8154929702868685, 0.8325545024126768, 0.849230328167323, 0.8657378767384216, 0.8822232387028635, 0.8993090054136701, 0.9159083726117387]
19	animate/a79.jpg	animate	inanimate	left	1.012	[0.0, 0.0, 0.0, 0.0, 0.0, 0.0, 0.0, 0.0, 0.0, 0.0, 0.0, 0.0, 0.0, 0.0, 0.0, 0.0, 1.0, 2.0, 2.0, 2.0, 2.0, 2.0, -4.0, -20.0, -46.0, -84.0, -125.0, -165.0, -198.0, -256.0, -286.0, -328.0, -377.0, -413.0, -434.0, -450.0, -461.0, -475.0, -489.0, -508.0, -523.0, -524.0, -509.0, -469.0, -402.0, -310.0, -213.0, -154.0, -145.0, -145.0, -166.0, -229.0, -360.0, -462.0, -558.0, -637.0, -685.0, -705.0, -713.0, -714.0, -715.0]	[-490.0, -490.0, -490.0, -490.0, -490.0, -490.0, -490.0, -490.0, -490.0, -490.0, -490.0, -490.0, -490.0, -490.0, -490.0, -490.0, -489.0, -489.0, -489.0, -489.0, -489.0, -485.0, -473.0, -455.0, -425.0, -380.0, -331.0, -286.0, -248.0, -182.0, -155.0, -106.0, -62.0, -27.0, -1.0, 24.0, 46.0, 70.0, 100.0, 135.0, 168.0, 183.0, 201.0, 225.0, 251.0, 280.0, 307.0, 329.0, 334.0, 334.0, 334.0, 334.0, 334.0, 348.0, 363.0, 376.0, 388.0, 395.0, 401.0, 403.0, 404.0]	[0.008960640814621001, 0.014876966422889382, 0.020005154074169695, 0.03251501003978774, 0.04966051009250805, 0.06589260289911181, 0.08301011362345889, 0.0992125105112791, 0.11627335991943255, 0.1331632015062496, 0.14954752888297662, 0.1658813389367424, 0.1829790523624979, 0.1996668247738853, 0.21610064542619511, 0.23292187904007733, 0.24972468073247, 0.266346575866919, 0.28303195897024125, 0.2993244677199982, 0.31631807453231886, 0.3330734309274703, 0.34980864863609895, 0.3659216162050143, 0.3830432229442522, 0.3997057367232628, 0.41618700267281383, 0.43276315921684727, 0.44971921941032633, 0.46637115185149014, 0.48283057246590033, 0.5020001774537377, 0.5162463946035132, 0.5330696762539446, 0.5495253422413953, 0.565933562873397, 0.5829019110533409, 0.5999357951804996, 0.6161914399708621, 0.6327177619095892, 0.6496482221409678, 0.6663568158401176, 0.6827363645425066, 0.6991684785461985, 0.7164334451081231, 0.7330420282669365, 0.749787827313412, 0.7658984055742621, 0.782965057704132, 0.7997852673288435, 0.8162416159757413, 0.8346224002889358, 0.8496301314444281, 0.8659455095184967, 0.8830869135563262, 0.899302622419782, 0.9163996531278826, 0.9326785085722804, 0.9496349101536907, 0.9659752055304125, 0.9830937402439304]
20	inanimate/n13.jpg	animate	inanimate	right	1.047	[0.0, 0.0, 0.0, 0.0, 0.0, 0.0, 0.0, 0.0, -1.0, -1.0, -1.0, -1.0, -1.0, -1.0, -1.0, -1.0, -1.0, -1.0, -1.0, -1.0, -1.0, -1.0, -1.0, -1.0, -1.0, -1.0, -1.0, -1.0, 16.0, 42.0, 47.0, 42.0, 15.0, -68.0, -129.0, -151.0, -198.0, -225.0, -272.0, -335.0, -413.0, -509.0, -590.0, -660.0, -695.0, -705.0, -707.0, -645.0, -515.0, -347.0, -180.0, 9.0, 206.0, 381.0, 535.0, 654.0, 728.0, 767.0, 781.0, 785.0, 785.0, 785.0, 785.0]	[-490.0, -490.0, -490.0, -490.0, -490.0, -490.0, -490.0, -490.0, -490.0, -490.0, -490.0, -490.0, -490.0, -490.0, -490.0, -490.0, -490.0, -490.0, -490.0, -490.0, -490.0, -490.0, -490.0, -490.0, -490.0, -490.0, -490.0, -490.0, -491.0, -499.0, -501.0, -501.0, -497.0, -444.0, -397.0, -371.0, -305.0, -248.0, -163.0, -78.0, 6.0, 83.0, 142.0, 184.0, 205.0, 216.0, 227.0, 266.0, 306.0, 339.0, 360.0, 387.0, 416.0, 434.0, 453.0, 471.0, 481.0, 488.0, 491.0, 493.0, 493.0, 493.0, 493.0]	[0.0018771952018141747, 0.006995142844971269, 0.018140349304303527, 0.03501517226686701, 0.05188828852260485, 0.06878802872961387, 0.08508531615370885, 0.10227826150367036, 0.11888684466248378, 0.13537357194582, 0.15389259613584727, 0.16880509542534128, 0.1855392891447991, 0.20203318441053852, 0.2184338957304135, 0.23544081451836973, 0.2522128962446004, 0.2687078154995106, 0.285182596067898, 0.30228679481660947, 0.3188564660376869, 0.3353169106412679, 0.35225522151449695, 0.368897937994916, 0.38581133156549186, 0.4020458136801608, 0.42127617594087496, 0.43541145988274366, 0.45174970728112385, 0.46884230070281774, 0.4855140305007808, 0.5020441070664674, 0.5211638773907907, 0.5354462758987211, 0.5516913393512368, 0.5687631114269607, 0.5855512357666157, 0.6020444483729079, 0.6214410398388281, 0.6354735824861564, 0.6517408326617442, 0.6687907594023272, 0.6853256146423519, 0.7021458242670633, 0.7184690530411899, 0.7355357051128522, 0.751819339231588, 0.7689440179383382, 0.7851604094612412, 0.8022038508788683, 0.8185321996570565, 0.8355558437760919, 0.8518377711880021, 0.8689255859935656, 0.8851491454406641, 0.9022478828555904, 0.918468029005453, 0.9355783717473969, 0.9518176325946115, 0.968960743281059, 0.9850569855188951, 1.002097696356941, 1.0186093408847228]
21	animate/a63.jpg	animate	inanimate	left	1.152	[0.0, 1.0, 1.0, 1.0, 1.0, 1.0, 1.0, 2.0, 3.0, 3.0, 4.0, 7.0, 10.0, 16.0, 16.0, 17.0, 17.0, 17.0, 17.0, 17.0, 17.0, 17.0, 17.0, 17.0, 17.0, 18.0, 16.0, 14.0, 9.0, -21.0, -64.0, -153.0, -212.0, -289.0, -383.0, -477.0, -558.0, -608.0, -631.0, -639.0, -645.0, -660.0, -675.0, -681.0, -698.0, -703.0, -707.0, -708.0, -709.0, -711.0, -711.0, -712.0, -712.0, -712.0, -712.0, -712.0, -712.0, -712.0, -712.0, -712.0, -712.0, -712.0, -712.0, -711.0, -711.0, -712.0, -718.0, -725.0, -725.0]	[-490.0, -489.0, -489.0, -489.0, -489.0, -489.0, -489.0, -489.0, -490.0, -490.0, -490.0, -490.0, -490.0, -484.0, -484.0, -483.0, -483.0, -483.0, -483.0, -483.0, -483.0, -483.0, -483.0, -483.0, -483.0, -483.0, -483.0, -481.0, -475.0, -445.0, -410.0, -337.0, -285.0, -213.0, -129.0, -49.0, 38.0, 97.0, 134.0, 154.0, 172.0, 204.0, 226.0, 235.0, 258.0, 272.0, 289.0, 304.0, 313.0, 319.0, 324.0, 331.0, 334.0, 335.0, 335.0, 335.0, 335.0, 335.0, 335.0, 335.0, 338.0, 338.0, 341.0, 344.0, 357.0, 374.0, 394.0, 410.0, 410.0]	[0.0010317132691852748, 0.006507719226647168, 0.017248446063604206, 0.033865903911646456, 0.0507444815011695, 0.06745307525852695, 0.08366537076653913, 0.10080540942726657, 0.11777136829914525, 0.13408674637321383, 0.15041031647706404, 0.16744283522712067, 0.1841521116439253, 0.2006105082691647, 0.21695353434188291, 0.23406865575816482, 0.25079090282088146, 0.26731551805278286, 0.28374592534964904, 0.3008337400970049, 0.31776078697293997, 0.3339754717890173, 0.35054446035064757, 0.36751246720086783, 0.3836670774035156, 0.40080336143728346, 0.4177583976415917, 0.4340430557494983, 0.4503830097964965, 0.467448296607472, 0.48441630345769227, 0.5006507855723612, 0.5170149742625654, 0.5341731036314741, 0.5503823271719739, 0.5673728619585745, 0.5843999194330536, 0.6006429349072278, 0.617019752971828, 0.6340952797327191, 0.6508124067913741, 0.6675984830944799, 0.6836203148122877, 0.7007600121432915, 0.7174812352168374, 0.733984005113598, 0.7504304550820962, 0.7674694592133164, 0.7841258289990947, 0.8006371322553605, 0.8198176599107683, 0.8340635357308201, 0.8508093347772956, 0.8672714860877022, 0.886232536577154, 0.9007545508211479, 0.9174546112190001, 0.9341778823290952, 0.9504516177694313, 0.96748242987087, 0.9843944581225514, 1.000640545564238, 1.0170163396396674, 1.0341898289625533, 1.0503601405071095, 1.0673523820005357, 1.0843924101209268, 1.1006518095964566, 1.1170081476448104]
22	inanimate/n52.jpg	inanimate	animate	left	1.511	[0.0, 0.0, 0.0, 0.0, 0.0, 0.0, 0.0, 0.0, 0.0, 0.0, 0.0, 0.0, 0.0, 0.0, 0.0, 0.0, 0.0, 0.0, 0.0, 0.0, 0.0, 0.0, 0.0, 0.0, 0.0, 0.0, 0.0, 0.0, 0.0, 0.0, 0.0, 0.0, 0.0, 0.0, -8.0, -32.0, -66.0, -104.0, -145.0, -182.0, -196.0, -188.0, -146.0, -67.0, -39.0, -40.0, -63.0, -131.0, -258.0, -410.0, -581.0, -749.0, -889.0, -960.0, -960.0, -960.0, -960.0, -960.0, -960.0, -960.0, -960.0, -960.0, -960.0, -960.0, -960.0, -960.0, -950.0, -895.0, -825.0, -735.0, -652.0, -569.0, -493.0, -433.0, -384.0, -347.0, -323.0, -294.0, -268.0, -244.0, -230.0, -230.0, -244.0, -302.0, -382.0, -483.0, -607.0, -720.0, -748.0, -754.0, -755.0]	[-490.0, -490.0, -490.0, -490.0, -490.0, -490.0, -490.0, -490.0, -490.0, -490.0, -490.0, -490.0, -490.0, -490.0, -490.0, -490.0, -490.0, -490.0, -490.0, -487.0, -482.0, -482.0, -482.0, -482.0, -482.0, -482.0, -482.0, -482.0, -482.0, -482.0, -482.0, -482.0, -482.0, -482.0, -474.0, -456.0, -426.0, -354.0, -292.0, -228.0, -169.0, -107.0, -28.0, 111.0, 191.0, 217.0, 232.0, 251.0, 272.0, 297.0, 332.0, 381.0, 421.0, 454.0, 484.0, 499.0, 506.0, 506.0, 506.0, 506.0, 506.0, 506.0, 506.0, 506.0, 506.0, 506.0, 495.0, 430.0, 370.0, 304.0, 253.0, 205.0, 156.0, 114.0, 68.0, 25.0, -19.0, -75.0, -129.0, -172.0, -190.0, -190.0, -173.0, -88.0, 23.0, 159.0, 299.0, 390.0, 419.0, 428.0, 429.0]	[0.008536705223377794, 0.014388177543878555, 0.019622861058451235, 0.031997549172956496, 0.048533087072428316, 0.06520174484467134, 0.08212333038682118, 0.09834518324350938, 0.1155562192434445, 0.1323545835330151, 0.14870204695034772, 0.1650583849987015, 0.18218408769462258, 0.19880666548851877, 0.21530295012053102, 0.23462171759456396, 0.24873720423784107, 0.2649761236971244, 0.2821240130579099, 0.2990790492622182, 0.31528690742561594, 0.33164256281452253, 0.34884950279956684, 0.3650010410347022, 0.3821062637725845, 0.3990664199809544, 0.41528588347136974, 0.43166645616292953, 0.44878908683313057, 0.4654860752634704, 0.4819270638981834, 0.5009236130281352, 0.5153916967101395, 0.5324132928508334, 0.5486535776290111, 0.5651362088974565, 0.5821301570977084, 0.5988087134901434, 0.6152165928506292, 0.6316074054921046, 0.6485849696910009, 0.6649433557176962, 0.6819953304948285, 0.698787892179098, 0.7152749607921578, 0.7346084056189284, 0.7488737374660559, 0.7655140645802021, 0.7822417729767039, 0.7983516685781069, 0.8155005819280632, 0.8317053681239486, 0.8488020575023256, 0.8650010410347022, 0.8820656451280229, 0.8990824625943787, 0.9152831527753733, 0.9316784028196707, 0.9488409694749862, 0.9654533073189668, 0.9819168239482678, 0.9996354221366346, 1.0154708859627135, 1.0317176560638472, 1.0488194655044936, 1.0649945557233877, 1.0821267437422648, 1.0990435506682843, 1.115275643474888, 1.1317480347352102, 1.1488559881108813, 1.1655403472250327, 1.182233922299929, 1.1983332365634851, 1.2153872593771666, 1.2316937627620064, 1.2487931828363799, 1.2650450729997829, 1.282124695717357, 1.298378292529378, 1.3154091046890244, 1.331714925414417, 1.348782260203734, 1.3652153981965967, 1.3822134423535317, 1.398426420520991, 1.4154855632805265, 1.431940887880046, 1.4488890974316746, 1.4652727421489544, 1.4821028504520655]
23	inanimate/n2.jpg	inanimate	animate	left	1.003	[0.0, 0.0, 0.0, 0.0, 0.0, 0.0, 0.0, 0.0, 0.0, 0.0, 0.0, 0.0, 0.0, 0.0, 0.0, -1.0, -4.0, -17.0, -20.0, -20.0, -20.0, -20.0, -20.0, -20.0, -20.0, -20.0, -20.0, -20.0, -21.0, -24.0, -25.0, -44.0, -65.0, -78.0, -100.0, -150.0, -224.0, -295.0, -357.0, -408.0, -440.0, -463.0, -480.0, -488.0, -482.0, -470.0, -462.0, -451.0, -444.0, -443.0, -442.0, -456.0, -493.0, -615.0, -712.0, -799.0, -872.0, -904.0, -906.0, -906.0]	[-490.0, -490.0, -490.0, -490.0, -490.0, -490.0, -490.0, -490.0, -490.0, -490.0, -490.0, -490.0, -490.0, -490.0, -490.0, -494.0, -495.0, -495.0, -495.0, -495.0, -495.0, -495.0, -495.0, -495.0, -495.0, -495.0, -495.0, -495.0, -495.0, -491.0, -484.0, -476.0, -469.0, -458.0, -438.0, -400.0, -347.0, -292.0, -242.0, -187.0, -131.0, -68.0, -3.0, 82.0, 133.0, 162.0, 206.0, 237.0, 260.0, 272.0, 275.0, 281.0, 296.0, 348.0, 390.0, 418.0, 438.0, 449.0, 449.0, 449.0]	[0.012945021502673626, 0.017977635841816664, 0.030841795552987605, 0.040510395308956504, 0.05727189563913271, 0.07439145440002903, 0.09120108268689364, 0.10748232749756426, 0.12386631348636001, 0.14097290154313669, 0.15768251928966492, 0.17455597693333402, 0.19056347256992012, 0.20763729268219322, 0.22433735308004543, 0.24077526974724606, 0.2576982206082903, 0.2743545903940685, 0.29122122132685035, 0.3074884714442305, 0.3238629001425579, 0.34104731219122186, 0.35765691933920607, 0.37456928892061114, 0.39056244859239087, 0.40763319667894393, 0.4245291822589934, 0.4408786936546676, 0.45718997571384534, 0.474332062411122, 0.4910143735469319, 0.5073993835248984, 0.5240605319850147, 0.5410162508487701, 0.5577231379575096, 0.5741712945746258, 0.5920769433141686, 0.6076744979945943, 0.6243086811155081, 0.640757861721795, 0.658102358924225, 0.6743371824268252, 0.691339322598651, 0.7075417194282636, 0.723922633449547, 0.7409073656308465, 0.7577821885352023, 0.7745952301775105, 0.7905644965940155, 0.8076567486859858, 0.8243001477676444, 0.8409568588831462, 0.8573961408692412, 0.8744955609436147, 0.8909672695444897, 0.9074120128643699, 0.9238625588477589, 0.9409094136208296, 0.957140141108539, 0.9743525424273685]
24	animate/a73.jpg	inanimate	animate	right	1.116	[0.0, 0.0, 0.0, 0.0, 0.0, 0.0, -2.0, -4.0, -4.0, -4.0, -4.0, -4.0, -4.0, -4.0, -4.0, -4.0, -4.0, -4.0, -4.0, -4.0, -4.0, -4.0, -4.0, -4.0, -4.0, -10.0, -25.0, -51.0, -91.0, -127.0, -143.0, -160.0, -164.0, -164.0, -164.0, -164.0, -164.0, -164.0, -164.0, -164.0, -164.0, -164.0, -164.0, -164.0, -165.0, -162.0, -136.0, -94.0, -8.0, 109.0, 239.0, 361.0, 488.0, 652.0, 731.0, 785.0, 802.0, 805.0, 806.0, 807.0, 809.0, 811.0, 816.0, 818.0, 819.0, 819.0, 819.0]	[-490.0, -490.0, -490.0, -490.0, -490.0, -490.0, -489.0, -488.0, -487.0, -485.0, -484.0, -484.0, -484.0, -484.0, -484.0, -484.0, -484.0, -484.0, -484.0, -484.0, -484.0, -484.0, -484.0, -482.0, -477.0, -472.0, -461.0, -447.0, -425.0, -405.0, -393.0, -379.0, -372.0, -372.0, -372.0, -372.0, -372.0, -372.0, -372.0, -372.0, -372.0, -372.0, -372.0, -367.0, -350.0, -336.0, -307.0, -267.0, -193.0, -111.0, -20.0, 66.0, 152.0, 260.0, 318.0, 361.0, 381.0, 393.0, 400.0, 407.0, 422.0, 442.0, 462.0, 479.0, 487.0, 489.0, 489.0]	[0.005932334112003446, 0.014630182646214962, 0.02694957482162863, 0.043394659471232444, 0.06045960489427671, 0.07683300960343331, 0.0939324296778068, 0.11017919977894053, 0.12732572382083163, 0.14361993927741423, 0.1606292474316433, 0.17679102561669424, 0.1938986376626417, 0.21019831445300952, 0.2272065986180678, 0.2435328993597068, 0.2605217274976894, 0.2768599748960696, 0.2940017202636227, 0.31033621297683567, 0.32732231047702953, 0.3436612405348569, 0.360625151428394, 0.3770183534361422, 0.39397680293768644, 0.41036932228598744, 0.4272499479120597, 0.4435301686753519, 0.46063129539834335, 0.47705555870197713, 0.493968952272553, 0.5104003836167976, 0.5272922731819563, 0.5436479285708629, 0.5606046714237891, 0.5770623853895813, 0.5939665629412048, 0.6101252691587433, 0.6271209240076132, 0.6436585098854266, 0.6606927353423089, 0.6768838682328351, 0.693869965733029, 0.7100699731963687, 0.727302513201721, 0.7438342964160256, 0.7605940900975838, 0.7770364440511912, 0.7939593949704431, 0.8103372369660065, 0.8273513237945735, 0.8436438325443305, 0.8605391354649328, 0.8770320067415014, 0.8939583709579892, 0.9103075410239398, 0.9272728172363713, 0.9436438325792551, 0.9606384633807465, 0.977020742779132, 0.9938911283388734, 1.0101068372023292, 1.0272304919199087, 1.0437489631585777, 1.0605374288279563, 1.0770490734139457, 1.0938744030427188]
25	inanimate/n51.jpg	inanimate	animate	left	1.017	[0.0, 0.0, 0.0, 0.0, 0.0, -1.0, -1.0, -1.0, 0.0, 4.0, 8.0, 11.0, 15.0, 18.0, 19.0, 19.0, 19.0, 19.0, 19.0, 19.0, 19.0, 19.0, 19.0, 19.0, 19.0, 19.0, 19.0, 19.0, 19.0, 19.0, 13.0, 10.0, 9.0, 5.0, -8.0, -25.0, -47.0, -81.0, -126.0, -214.0, -291.0, -365.0, -447.0, -512.0, -561.0, -600.0, -619.0, -637.0, -652.0, -668.0, -681.0, -702.0, -706.0, -726.0, -746.0, -766.0, -775.0, -775.0, -775.0, -775.0, -775.0]	[-490.0, -490.0, -490.0, -490.0, -490.0, -490.0, -490.0, -491.0, -495.0, -498.0, -501.0, -502.0, -504.0, -506.0, -509.0, -511.0, -511.0, -513.0, -513.0, -513.0, -513.0, -513.0, -513.0, -513.0, -513.0, -513.0, -513.0, -513.0, -513.0, -508.0, -507.0, -505.0, -493.0, -477.0, -455.0, -431.0, -397.0, -350.0, -287.0, -176.0, -88.0, 3.0, 93.0, 165.0, 215.0, 254.0, 278.0, 301.0, 318.0, 336.0, 353.0, 374.0, 380.0, 403.0, 418.0, 429.0, 434.0, 434.0, 434.0, 434.0, 434.0]	[0.004051828000228852, 0.008804890618193895, 0.023578808642923832, 0.03988155740080401, 0.05687550560105592, 0.07324379030615091, 0.090506708889734, 0.10673675371799618, 0.12383617379236966, 0.1400102399638854, 0.1571253613801673, 0.17333560885163024, 0.19043741829227656, 0.20654663117602468, 0.2236914485692978, 0.23998156801098958, 0.25697927083820105, 0.2733690594905056, 0.2903288743691519, 0.30710948939668015, 0.32376790716079995, 0.34014813852263615, 0.357110001379624, 0.3734796514036134, 0.39042410627007484, 0.4068613402778283, 0.42379965115105733, 0.4399535786942579, 0.4570280814659782, 0.47347589675337076, 0.4904930555494502, 0.5070405401056632, 0.5238836190546863, 0.5399631360196508, 0.5569970201468095, 0.5732762169209309, 0.5903623250196688, 0.6068173082894646, 0.6237798538058996, 0.640212309139315, 0.6571233134018257, 0.6734939874149859, 0.6904217169503681, 0.7068599749472924, 0.723818083119113, 0.740221866464708, 0.7571407213690691, 0.7735537206754088, 0.7904565329081379, 0.8068825029185973, 0.8237873631296679, 0.8401751038618386, 0.857132529374212, 0.8734806753927842, 0.8904374183039181, 0.9067046684212983, 0.9237245578551665, 0.9399604053469375, 0.9570441241376102, 0.9734834060654975, 0.9905493755359203]
26	animate/a75.jpg	animate	inanimate	left	1.089	[0.0, 0.0, 0.0, 0.0, 0.0, -2.0, -5.0, -5.0, -5.0, -5.0, -5.0, -7.0, -12.0, -12.0, -12.0, -12.0, -12.0, -12.0, -12.0, -12.0, -12.0, -12.0, -12.0, -12.0, -12.0, -12.0, -12.0, -13.0, -19.0, -21.0, -25.0, -35.0, -53.0, -87.0, -128.0, -171.0, -226.0, -289.0, -353.0, -422.0, -488.0, -502.0, -501.0, -459.0, -392.0, -272.0, -126.0, 11.0, 87.0, 114.0, 115.0, 96.0, -53.0, -123.0, -367.0, -538.0, -687.0, -806.0, -875.0, -901.0, -913.0, -913.0, -913.0, -913.0, -913.0]	[-490.0, -490.0, -490.0, -490.0, -490.0, -490.0, -491.0, -491.0, -491.0, -491.0, -491.0, -491.0, -491.0, -491.0, -490.0, -490.0, -490.0, -490.0, -490.0, -490.0, -490.0, -490.0, -490.0, -490.0, -490.0, -490.0, -490.0, -488.0, -485.0, -482.0, -478.0, -456.0, -427.0, -387.0, -341.0, -287.0, -223.0, -150.0, -75.0, 23.0, 137.0, 168.0, 230.0, 281.0, 323.0, 365.0, 407.0, 443.0, 463.0, 472.0, 472.0, 473.0, 473.0, 473.0, 501.0, 534.0, 540.0, 540.0, 540.0, 540.0, 540.0, 540.0, 540.0, 540.0, 540.0]	[0.015189388708677143, 0.02148732461500913, 0.028444716066587716, 0.04521474975626916, 0.061821284878533334, 0.07882103574229404, 0.09551358682801947, 0.1125935508753173, 0.12884305167244747, 0.14517344842897728, 0.1623790230951272, 0.17902208090526983, 0.19545521883992478, 0.213415480859112, 0.22898436355171725, 0.24592062644660473, 0.26216056995326653, 0.27874628378776833, 0.295720434631221, 0.31232458044542, 0.32879799575312063, 0.3451478484785184, 0.36219879920827225, 0.3785445559769869, 0.39566547999856994, 0.4125764842610806, 0.4289113183040172, 0.44809525925666094, 0.46225716720800847, 0.4784756066510454, 0.49553270143223926, 0.5125706815742888, 0.5288392970105633, 0.5452813096926548, 0.5622547778766602, 0.5790063795866445, 0.5954408828984015, 0.6143995440215804, 0.6288594356738031, 0.6456468773540109, 0.6622261058655567, 0.6788316170568578, 0.695639880024828, 0.7123819243861362, 0.7288843530113809, 0.7482734351069666, 0.7622346392017789, 0.7789671262726188, 0.7954528295085765, 0.8132946489495225, 0.8289184863097034, 0.8459271118044853, 0.8621605699299835, 0.8787630090955645, 0.8956897146417759, 0.9123314071330242, 0.9288355423486792, 0.9452010964159854, 0.9623308951267973, 0.9785237346659414, 0.9954808188485913, 1.0122689431882463, 1.0290307848481461, 1.0452297683805227, 1.062451385660097]
27	animate/a55.jpg	animate	inanimate	left	0.964	[0.0, 0.0, 0.0, 0.0, 0.0, 1.0, 1.0, 1.0, 1.0, 1.0, 1.0, 1.0, 1.0, 1.0, 0.0, -3.0, -4.0, -4.0, -4.0, -4.0, -4.0, -4.0, -4.0, -4.0, -4.0, -4.0, -4.0, -4.0, -4.0, -11.0, -13.0, -13.0, -14.0, -35.0, -56.0, -95.0, -148.0, -220.0, -314.0, -417.0, -530.0, -617.0, -709.0, -808.0, -831.0, -876.0, -883.0, -885.0, -885.0, -885.0, -873.0, -858.0, -849.0, -845.0, -845.0, -845.0, -845.0, -845.0]	[-490.0, -490.0, -490.0, -490.0, -490.0, -489.0, -489.0, -488.0, -488.0, -488.0, -488.0, -488.0, -488.0, -488.0, -487.0, -485.0, -485.0, -485.0, -485.0, -485.0, -485.0, -485.0, -485.0, -485.0, -485.0, -485.0, -485.0, -485.0, -485.0, -479.0, -472.0, -462.0, -447.0, -419.0, -387.0, -337.0, -275.0, -212.0, -139.0, -58.0, 38.0, 118.0, 200.0, 305.0, 328.0, 373.0, 385.0, 390.0, 394.0, 398.0, 407.0, 417.0, 426.0, 429.0, 429.0, 429.0, 429.0, 429.0]	[0.008367642934899777, 0.016001556476112455, 0.03162300447002053, 0.04794657451566309, 0.06514122651424259, 0.08133577270200476, 0.09855568333296105, 0.11472701886668801, 0.13184179895324633, 0.14803736913017929, 0.16504633595468476, 0.18138082866789773, 0.19849731540307403, 0.2148847147473134, 0.23181517497869208, 0.24800596648128703, 0.26509207458002493, 0.28140506328782067, 0.2985437366878614, 0.31473248021211475, 0.331905628205277, 0.34810119838221, 0.36511733318911865, 0.3814091592794284, 0.3984471394214779, 0.4147338455077261, 0.431813468283508, 0.44807389174820855, 0.4651924264617264, 0.4814071112778038, 0.4984713740996085, 0.5147430615033954, 0.5319175748736598, 0.5480878864182159, 0.5652275837492198, 0.581460700603202, 0.5984594274195842, 0.6147666135220788, 0.6318592069437727, 0.6480636517517269, 0.6651760424720123, 0.6814030153327622, 0.6985966432839632, 0.7147584215272218, 0.7319080175366253, 0.7480646757758223, 0.7651910611311905, 0.7813675166689791, 0.798461816739291, 0.8153441490139812, 0.8316980976960622, 0.8480998330633156, 0.8651449811877683, 0.8813006153795868, 0.8983133368892595, 0.9153188903583214, 0.931716529710684, 0.9480028944672085]
28	inanimate/n12.jpg	animate	inanimate	right	0.951	[0.0, 0.0, 0.0, 0.0, 0.0, 0.0, 0.0, 1.0, 3.0, 6.0, 8.0, 9.0, 9.0, 8.0, 8.0, 8.0, 8.0, 8.0, 8.0, 8.0, 8.0, 8.0, 8.0, 8.0, 8.0, 5.0, -9.0, -16.0, -30.0, -68.0, -128.0, -188.0, -224.0, -238.0, -244.0, -252.0, -270.0, -302.0, -340.0, -345.0, -346.0, -309.0, -248.0, -157.0, -64.0, 66.0, 230.0, 446.0, 670.0, 862.0, 959.0, 959.0, 959.0, 959.0, 959.0, 959.0, 959.0, 959.0]	[-490.0, -490.0, -490.0, -490.0, -490.0, -490.0, -490.0, -490.0, -491.0, -493.0, -496.0, -497.0, -497.0, -497.0, -497.0, -497.0, -497.0, -497.0, -497.0, -497.0, -497.0, -497.0, -497.0, -497.0, -497.0, -497.0, -496.0, -478.0, -452.0, -402.0, -332.0, -267.0, -226.0, -197.0, -157.0, -97.0, -20.0, 55.0, 138.0, 155.0, 190.0, 241.0, 302.0, 358.0, 389.0, 407.0, 422.0, 424.0, 433.0, 456.0, 476.0, 487.0, 496.0, 496.0, 496.0, 496.0, 496.0, 496.0]	[0.011256344499997795, 0.01725322473794222, 0.02315931033808738, 0.03712597576668486, 0.054336329048965126, 0.07052950991783291, 0.08776375657180324, 0.10613020486198366, 0.12076281104236841, 0.1371683010365814, 0.1542711344663985, 0.17106915748445317, 0.18751082877861336, 0.20543661614647135, 0.22107103478629142, 0.23800320166628808, 0.2542059398256242, 0.2706718458211981, 0.28783475380623713, 0.30439896369352937, 0.32086998963495716, 0.3400593919213861, 0.35444999299943447, 0.3706005071871914, 0.38754939939826727, 0.40437677706358954, 0.42087852297117934, 0.44028774375328794, 0.4543103877804242, 0.47104321612278, 0.4878204178530723, 0.5039791240706109, 0.5209904802031815, 0.5371686423895881, 0.5543465690570883, 0.5705868538934737, 0.5876924179610796, 0.6043498117360286, 0.6208628216409124, 0.6402030931203626, 0.6543636356946081, 0.6710664267884567, 0.6877951591741294, 0.7040057480335236, 0.721040656149853, 0.7379482470569201, 0.7542902491404675, 0.7706117712077685, 0.7875951380119659, 0.8043938436894678, 0.8207477924297564, 0.8373601302155294, 0.8543452037265524, 0.8705680805724114, 0.8876091326819733, 0.9043781423824839, 0.9208802296197973, 0.9401761278277263]
29	animate/a1.jpg	animate	inanimate	left	0.856	[0.0, 0.0, 0.0, 0.0, 0.0, 0.0, 0.0, 0.0, 0.0, 0.0, 0.0, 0.0, 0.0, 0.0, 0.0, 0.0, 0.0, 0.0, 0.0, 0.0, 0.0, 0.0, 0.0, 0.0, 0.0, 0.0, 0.0, 0.0, 0.0, -2.0, -17.0, -41.0, -59.0, -93.0, -160.0, -241.0, -322.0, -406.0, -492.0, -571.0, -671.0, -697.0, -748.0, -764.0, -775.0, -781.0, -784.0, -785.0, -785.0, -785.0, -785.0, -785.0]	[-490.0, -490.0, -490.0, -490.0, -490.0, -490.0, -490.0, -490.0, -490.0, -490.0, -490.0, -490.0, -490.0, -490.0, -490.0, -487.0, -478.0, -478.0, -478.0, -478.0, -478.0, -478.0, -478.0, -478.0, -478.0, -478.0, -478.0, -478.0, -476.0, -472.0, -460.0, -445.0, -418.0, -364.0, -281.0, -192.0, -100.0, -8.0, 84.0, 175.0, 307.0, 342.0, 409.0, 433.0, 447.0, 459.0, 466.0, 467.0, 468.0, 468.0, 468.0, 468.0]	[0.016675109043717384, 0.025331997603643686, 0.03081926761660725, 0.04755277867661789, 0.06413985783001408, 0.08045899058924988, 0.09751676802989095, 0.11447931354632601, 0.1307158436975442, 0.14725513628218323, 0.16422553244046867, 0.18116077134618536, 0.1973775041406043, 0.21384238608879969, 0.2309028942254372, 0.247567797312513, 0.2640364339458756, 0.283290006860625, 0.2975474880076945, 0.3141990791191347, 0.3306847824133001, 0.34972195012960583, 0.3642142684548162, 0.38113551266724244, 0.39739252283470705, 0.4138536500977352, 0.43099266482749954, 0.44711518968688324, 0.4641599964816123, 0.4811706699547358, 0.49735873081954196, 0.513778556836769, 0.5309288355056196, 0.5476323092589155, 0.5639224287006073, 0.5804221266298555, 0.597516768029891, 0.6142045404412784, 0.6306526971166022, 0.6497308248071931, 0.6641323484946042, 0.6808610809384845, 0.6973095788853243, 0.7148039212916046, 0.7308639822294936, 0.7478726077242754, 0.7640552072552964, 0.7803975506685674, 0.7976256532710977, 0.8142321884515695, 0.8308998222346418, 0.8471049497020431]
30	inanimate/n41.jpg	animate	inanimate	right	1.334	[0.0, 0.0, 0.0, 0.0, 1.0, 2.0, 2.0, 3.0, 3.0, 3.0, 3.0, 3.0, 3.0, 3.0, 3.0, 3.0, 3.0, 4.0, 6.0, 7.0, 7.0, 3.0, -4.0, -4.0, -4.0, -4.0, -4.0, -4.0, -4.0, -4.0, -4.0, -4.0, -5.0, -5.0, -5.0, -33.0, -71.0, -110.0, -156.0, -197.0, -220.0, -235.0, -251.0, -272.0, -298.0, -324.0, -349.0, -369.0, -410.0, -444.0, -487.0, -538.0, -589.0, -606.0, -607.0, -588.0, -500.0, -348.0, -161.0, 150.0, 326.0, 472.0, 553.0, 585.0, 588.0, 588.0, 588.0, 588.0, 588.0, 588.0, 588.0, 588.0, 588.0, 588.0, 588.0, 588.0, 601.0, 683.0, 794.0, 896.0, 945.0]	[-490.0, -490.0, -490.0, -490.0, -489.0, -488.0, -486.0, -482.0, -476.0, -471.0, -471.0, -470.0, -470.0, -470.0, -470.0, -470.0, -470.0, -470.0, -473.0, -476.0, -476.0, -478.0, -478.0, -478.0, -478.0, -478.0, -478.0, -478.0, -478.0, -478.0, -478.0, -478.0, -478.0, -477.0, -473.0, -451.0, -417.0, -374.0, -323.0, -281.0, -250.0, -220.0, -180.0, -124.0, -62.0, 2.0, 62.0, 105.0, 177.0, 215.0, 251.0, 286.0, 317.0, 325.0, 327.0, 340.0, 370.0, 403.0, 432.0, 474.0, 499.0, 520.0, 532.0, 536.0, 538.0, 538.0, 538.0, 538.0, 538.0, 538.0, 538.0, 538.0, 538.0, 538.0, 538.0, 538.0, 538.0, 493.0, 432.0, 390.0, 376.0]	[0.008482330944389105, 0.01312582561513409, 0.019741542637348175, 0.030813703895546496, 0.04750113497721031, 0.06432578194653615, 0.08060634403955191, 0.0989601630717516, 0.11390577163547277, 0.13099153840448707, 0.14794896391686052, 0.1641919793910347, 0.18056879739742726, 0.197802702721674, 0.2139358089189045, 0.23096969304606318, 0.24794077192200348, 0.2644967897795141, 0.2809964877087623, 0.2974180203746073, 0.3144983258098364, 0.3305809147423133, 0.3476352788275108, 0.3640257501974702, 0.38112517027184367, 0.39742040971759707, 0.4144932057824917, 0.4307611385593191, 0.4477683987352066, 0.4641592114348896, 0.48113506892696023, 0.4974610283388756, 0.5144938884768635, 0.5307061839848757, 0.5478274493361823, 0.5642029020236805, 0.5811756875482388, 0.5976211135275662, 0.6144461018266156, 0.6306092453887686, 0.6476857961388305, 0.6643339739530347, 0.6811483809142374, 0.6975313429138623, 0.7145027631195262, 0.7305945680709556, 0.7476963774533942, 0.7641882247407921, 0.7811545248841867, 0.7975999508635141, 0.814474432496354, 0.8308570531662554, 0.84780867601512, 0.8642247473471798, 0.8812736501567997, 0.8975654762471095, 0.9145126617513597, 0.9309219064307399, 0.9478578279959038, 0.9641872007050551, 0.9811545248958282, 0.9975279296049848, 1.0144553178106435, 1.0308509091846645, 1.047777614730876, 1.0642421553493477, 1.0811429196037352, 1.0973698924062774, 1.1144969604793005, 1.1309263437869959, 1.1477639614022337, 1.1642274780315347, 1.1811651062453166, 1.1974050496937707, 1.2145546457613818, 1.2305761360912584, 1.247713444114197, 1.2641831047367305, 1.281156572920736, 1.2975409002392553, 1.3145768324029632]
31	animate/a45.jpg	inanimate	animate	left	0.82	[0.0, 0.0, 0.0, 0.0, 0.0, 0.0, 0.0, 0.0, 0.0, 0.0, 9.0, 24.0, 40.0, 61.0, 67.0, 67.0, 67.0, 67.0, 67.0, 67.0, 67.0, 67.0, 67.0, 67.0, 67.0, 67.0, 67.0, 67.0, 59.0, 47.0, 30.0, 4.0, -52.0, -125.0, -214.0, -309.0, -453.0, -551.0, -625.0, -677.0, -716.0, -737.0, -748.0, -757.0, -758.0, -758.0, -758.0, -758.0, -758.0]	[-490.0, -490.0, -490.0, -490.0, -490.0, -490.0, -490.0, -490.0, -490.0, -491.0, -493.0, -495.0, -495.0, -493.0, -490.0, -490.0, -490.0, -490.0, -490.0, -490.0, -490.0, -490.0, -490.0, -490.0, -490.0, -486.0, -484.0, -473.0, -460.0, -443.0, -418.0, -382.0, -324.0, -259.0, -178.0, -89.0, 38.0, 132.0, 215.0, 277.0, 323.0, 347.0, 362.0, 375.0, 379.0, 379.0, 379.0, 379.0, 379.0]	[0.002213408297393471, 0.008654362813103944, 0.019696828036103398, 0.036657325574196875, 0.05352122581098229, 0.06953759613679722, 0.08685137337306514, 0.10291860235156491, 0.1200722943758592, 0.13622997660422698, 0.15333485801238567, 0.1695683161378838, 0.1866800241987221, 0.2029810663079843, 0.22002655576216057, 0.2363395444699563, 0.2533406606526114, 0.2697290839860216, 0.2869776666047983, 0.30302202625898644, 0.3201398783130571, 0.33657335763564333, 0.35345500719267875, 0.36984001722885296, 0.38681212009396404, 0.40325106075033545, 0.4201426089857705, 0.4364934857003391, 0.45347343920730054, 0.46988439053529873, 0.4867971014464274, 0.5031862074392848, 0.5201569449855015, 0.5364928030176088, 0.5534543245448731, 0.5698628865648061, 0.5867107441881672, 0.6031722127809189, 0.6201074516866356, 0.6363549045054242, 0.6535676471539773, 0.6695683161378838, 0.6866865095216781, 0.7029571729945019, 0.7200740010594018, 0.7365467336494476, 0.7534335032687522, 0.769872443866916, 0.7867854961077683]
32	animate/a17.jpg	inanimate	animate	right	1.074	[0.0, 0.0, 0.0, 0.0, 0.0, 0.0, 0.0, 0.0, 2.0, 2.0, 4.0, 5.0, 5.0, 5.0, 5.0, 5.0, 5.0, 5.0, 5.0, 5.0, 5.0, 5.0, 5.0, 5.0, 5.0, 5.0, 5.0, 5.0, 4.0, -2.0, -14.0, -51.0, -90.0, -130.0, -174.0, -218.0, -252.0, -274.0, -300.0, -332.0, -405.0, -464.0, -532.0, -589.0, -646.0, -704.0, -748.0, -755.0, -748.0, -700.0, -607.0, -484.0, -349.0, -75.0, 149.0, 370.0, 533.0, 657.0, 734.0, 758.0, 763.0, 763.0, 763.0, 763.0]	[-490.0, -490.0, -490.0, -490.0, -490.0, -490.0, -490.0, -490.0, -490.0, -490.0, -489.0, -488.0, -487.0, -486.0, -486.0, -486.0, -486.0, -486.0, -486.0, -486.0, -486.0, -486.0, -486.0, -486.0, -486.0, -486.0, -486.0, -485.0, -477.0, -466.0, -449.0, -417.0, -374.0, -334.0, -303.0, -269.0, -242.0, -217.0, -184.0, -137.0, -48.0, 13.0, 75.0, 142.0, 212.0, 281.0, 332.0, 347.0, 358.0, 373.0, 388.0, 398.0, 413.0, 432.0, 432.0, 432.0, 441.0, 458.0, 481.0, 488.0, 491.0, 491.0, 491.0, 491.0]	[0.00404397735837847, 0.009401882125530392, 0.023394830175675452, 0.03977642685640603, 0.05683318030787632, 0.07324959296965972, 0.09037119970889762, 0.10658929782221094, 0.12370202993042767, 0.13991432538023219, 0.15695879084523767, 0.1732516409829259, 0.19031249039107934, 0.2066220658016391, 0.22368598723551258, 0.23995221336372197, 0.25703320145839825, 0.2732239929609932, 0.2902285224990919, 0.3065442419028841, 0.32364980597049, 0.3399013547459617, 0.35708986275130883, 0.3732799715944566, 0.39028586639324203, 0.406558919174131, 0.4236641419120133, 0.4400846505886875, 0.4568215750041418, 0.47311271843500435, 0.490316245064605, 0.5069760282058269, 0.5237443551886827, 0.539800661499612, 0.5569891695049591, 0.5735066167544574, 0.5905118288937956, 0.6064694899250753, 0.6236091873142868, 0.640278527745977, 0.65687618823722, 0.6761242998181842, 0.6903022503829561, 0.7069268762134016, 0.7237542538787238, 0.7403867303510197, 0.7567567217047326, 0.7732629049569368, 0.7902647037990391, 0.8066282098297961, 0.8237699551973492, 0.8399419733905233, 0.857017841481138, 0.8732734862715006, 0.8903592530405149, 0.9066067058010958, 0.9237829258199781, 0.9398982827551663, 0.9570734787848778, 0.973293966264464, 0.9903609596658498, 1.006626503134612, 1.0235975820105523, 1.0401856851531193]
33	animate/a21.jpg	inanimate	animate	right	1.021	[0.0, 0.0, 0.0, 0.0, 0.0, 0.0, 0.0, 0.0, 0.0, 0.0, 0.0, 0.0, 0.0, 0.0, 0.0, 0.0, 0.0, 0.0, 0.0, 0.0, 0.0, 0.0, 0.0, -3.0, -6.0, -9.0, -15.0, -31.0, -85.0, -139.0, -197.0, -255.0, -317.0, -377.0, -430.0, -462.0, -493.0, -518.0, -531.0, -538.0, -547.0, -554.0, -565.0, -579.0, -594.0, -613.0, -637.0, -660.0, -679.0, -685.0, -685.0, -647.0, -415.0, -205.0, 35.0, 267.0, 494.0, 677.0, 820.0, 911.0, 942.0, 946.0]	[-490.0, -490.0, -490.0, -490.0, -490.0, -490.0, -490.0, -490.0, -490.0, -490.0, -490.0, -490.0, -490.0, -490.0, -490.0, -490.0, -490.0, -490.0, -490.0, -490.0, -490.0, -490.0, -489.0, -480.0, -475.0, -463.0, -446.0, -425.0, -375.0, -331.0, -287.0, -241.0, -188.0, -134.0, -76.0, -43.0, -8.0, 22.0, 41.0, 57.0, 85.0, 100.0, 120.0, 140.0, 158.0, 180.0, 209.0, 243.0, 269.0, 280.0, 284.0, 300.0, 334.0, 368.0, 401.0, 430.0, 465.0, 487.0, 508.0, 525.0, 533.0, 534.0]	[0.016622202354483306, 0.024881096673198044, 0.03112032334320247, 0.04793746100040153, 0.06485768122365698, 0.08174240280641243, 0.09805436758324504, 0.11517563293455169, 0.13131181115750223, 0.14837914594681934, 0.1647208066424355, 0.1818355867289938, 0.19809020753018558, 0.21510839031543583, 0.23141250445041806, 0.2483835832681507, 0.2647498199949041, 0.28181578940711915, 0.29808815952856094, 0.31505309441126883, 0.3314244510838762, 0.3485218231799081, 0.36471193202305585, 0.38188269070815295, 0.39820318878628314, 0.4152630142052658, 0.43144151772139594, 0.44848564185667783, 0.4646525400457904, 0.48185401869704947, 0.4982632633764297, 0.5151585662970319, 0.5313520884956233, 0.5484310285537504, 0.5649921664153226, 0.5818512880359776, 0.5983028580085374, 0.6151483263238333, 0.6315715656382963, 0.6485228471574374, 0.6649505238165148, 0.6818898586789146, 0.6982294713961892, 0.7151930409600027, 0.7316398322582245, 0.7485607351409271, 0.7649430144811049, 0.7818335387273692, 0.7982622393756174, 0.8152043049340136, 0.8314186484203674, 0.8485006605042145, 0.8647593773202971, 0.8818758640554734, 0.8981001061620191, 0.9152401448809542, 0.9313179551973008, 0.9484416099148802, 0.964762449322734, 0.9818093040958047, 0.9980557328672148, 1.0151046356768347]
34	animate/a23.jpg	inanimate	animate	right	0.983	[0.0, 0.0, 0.0, 0.0, 0.0, 0.0, 0.0, 0.0, 0.0, 0.0, 1.0, 3.0, 6.0, 8.0, 9.0, 9.0, 11.0, 13.0, 16.0, 17.0, 17.0, 17.0, 17.0, 17.0, 17.0, 17.0, 17.0, 17.0, 17.0, 17.0, 17.0, 18.0, 14.0, -4.0, -79.0, -160.0, -248.0, -322.0, -397.0, -461.0, -517.0, -551.0, -567.0, -571.0, -568.0, -559.0, -447.0, -311.0, -146.0, 58.0, 283.0, 513.0, 695.0, 825.0, 893.0, 914.0, 915.0, 915.0, 915.0]	[-490.0, -490.0, -490.0, -490.0, -490.0, -490.0, -490.0, -490.0, -490.0, -490.0, -495.0, -499.0, -504.0, -506.0, -507.0, -508.0, -510.0, -513.0, -515.0, -515.0, -515.0, -515.0, -515.0, -515.0, -515.0, -515.0, -515.0, -515.0, -515.0, -515.0, -516.0, -514.0, -510.0, -490.0, -411.0, -343.0, -268.0, -201.0, -137.0, -82.0, -34.0, -3.0, 14.0, 25.0, 45.0, 56.0, 119.0, 166.0, 214.0, 267.0, 310.0, 351.0, 391.0, 429.0, 450.0, 459.0, 460.0, 460.0, 460.0]	[0.005836317199282348, 0.012153367802966386, 0.026684256736189127, 0.04338534112321213, 0.0625365141313523, 0.07646017160732299, 0.09309298940934241, 0.11008727888111025, 0.1268457072437741, 0.1432430052664131, 0.1596778499078937, 0.17690970719559118, 0.19380978879053146, 0.21005143894581124, 0.226344971684739, 0.24351061036577448, 0.260535619861912, 0.2766195741132833, 0.29306943743722513, 0.3102835454046726, 0.3271129710483365, 0.3433532558265142, 0.35973690054379404, 0.3769288218463771, 0.3938094474724494, 0.41003164160065353, 0.4263893449679017, 0.443583314307034, 0.45976966846501455, 0.47686874720966443, 0.4935380876995623, 0.5102002601488493, 0.5264603422256187, 0.5436044769594446, 0.5601973587763496, 0.5768185712513514, 0.5936254689586349, 0.6100927402148955, 0.6263948063133284, 0.6436153996037319, 0.6597522604861297, 0.6767902406281792, 0.693550375639461, 0.7102087934617884, 0.7264251849264838, 0.7434628237388097, 0.7601837054826319, 0.7768315419089049, 0.7929803495062515, 0.8101135615142994, 0.8268108912743628, 0.8433498425292782, 0.8598993750638328, 0.8768373446073383, 0.8930499814450741, 0.9101012735627592, 0.9268651632592082, 0.943342674523592, 0.959712665877305]
35	inanimate/n15.jpg	inanimate	animate	left	0.946	[0.0, 0.0, 0.0, 0.0, 0.0, 0.0, -1.0, -6.0, -10.0, -12.0, -13.0, -13.0, -11.0, -8.0, -3.0, 6.0, 6.0, 6.0, 6.0, 6.0, 6.0, 6.0, 6.0, 6.0, 6.0, 6.0, 6.0, 6.0, 6.0, 6.0, 7.0, 7.0, 7.0, 6.0, 5.0, 1.0, -13.0, -33.0, -91.0, -161.0, -238.0, -352.0, -428.0, -497.0, -560.0, -618.0, -663.0, -691.0, -707.0, -725.0, -744.0, -765.0, -779.0, -785.0, -787.0, -787.0, -787.0, -787.0]	[-490.0, -490.0, -490.0, -490.0, -490.0, -490.0, -490.0, -490.0, -490.0, -490.0, -491.0, -493.0, -498.0, -504.0, -509.0, -514.0, -516.0, -526.0, -526.0, -526.0, -526.0, -526.0, -526.0, -526.0, -526.0, -526.0, -526.0, -526.0, -526.0, -526.0, -526.0, -527.0, -529.0, -529.0, -529.0, -513.0, -476.0, -451.0, -395.0, -333.0, -269.0, -172.0, -88.0, 4.0, 94.0, 171.0, 231.0, 268.0, 287.0, 303.0, 322.0, 346.0, 370.0, 383.0, 395.0, 406.0, 410.0, 410.0]	[0.007275718613527715, 0.011829101364128292, 0.01848099968628958, 0.02969071810366586, 0.04609245347091928, 0.0634069133666344, 0.07941748102894053, 0.09656468773027882, 0.11282852449221537, 0.12980404071277007, 0.14604227751260623, 0.16328062012325972, 0.1794495663489215, 0.19653294375166297, 0.21274831122718751, 0.22998221655143425, 0.246075386821758, 0.2631802682299167, 0.2794092890108004, 0.29646843182854354, 0.3127073512878269, 0.3299392085755244, 0.34606378147145733, 0.36306899366900325, 0.3794294276740402, 0.3964831091579981, 0.41276742587797344, 0.42983749136328697, 0.4461194187751971, 0.463200748199597, 0.4794246490346268, 0.49659199436428025, 0.5127701565506868, 0.5299644672195427, 0.5460545655223541, 0.5631454522372223, 0.579446153016761, 0.59659438370727, 0.6127759592491202, 0.6299320405814797, 0.6466013810131699, 0.6630522683262825, 0.6795663022203371, 0.6965793650597334, 0.7127851752447896, 0.7300163498730399, 0.7460504695191048, 0.7631010789773427, 0.7794485423364677, 0.7964854984893464, 0.8130101137212478, 0.8299129259539768, 0.8462617546319962, 0.8632584334700368, 0.8796478808508255, 0.8965964317321777, 0.9129401404061355, 0.9299477419117466]
36	animate/a22.jpg	inanimate	animate	right	0.901	[0.0, 0.0, 0.0, 0.0, 0.0, 0.0, 0.0, 0.0, 0.0, -1.0, -1.0, -1.0, 1.0, 2.0, 2.0, 2.0, 2.0, 2.0, 2.0, 2.0, 2.0, 2.0, 2.0, 2.0, 2.0, 2.0, 2.0, 1.0, -1.0, -10.0, -14.0, -20.0, -37.0, -80.0, -123.0, -191.0, -243.0, -290.0, -345.0, -383.0, -391.0, -376.0, -309.0, -193.0, -29.0, 143.0, 311.0, 520.0, 615.0, 664.0, 684.0, 686.0, 686.0, 686.0, 686.0]	[-490.0, -490.0, -490.0, -490.0, -490.0, -490.0, -490.0, -490.0, -490.0, -490.0, -491.0, -493.0, -493.0, -493.0, -493.0, -493.0, -493.0, -493.0, -493.0, -493.0, -493.0, -493.0, -493.0, -493.0, -493.0, -493.0, -493.0, -490.0, -481.0, -467.0, -444.0, -417.0, -381.0, -319.0, -259.0, -163.0, -96.0, -21.0, 53.0, 112.0, 140.0, 163.0, 207.0, 254.0, 298.0, 347.0, 368.0, 400.0, 411.0, 419.0, 425.0, 426.0, 426.0, 426.0, 426.0]	[0.006160583521705121, 0.011285016487818211, 0.01635312952566892, 0.02744542941218242, 0.04455611342564225, 0.06113636598456651, 0.07791971164988354, 0.0946392280748114, 0.11122221121331677, 0.12777788774110377, 0.14451037481194362, 0.16116333130048588, 0.18049506947863847, 0.1945443374570459, 0.21126590186031535, 0.22815198876196519, 0.24475169728975743, 0.2612066805595532, 0.27750499197281897, 0.2945651587797329, 0.31081465957686305, 0.3278550290269777, 0.3446469080518, 0.3612872351659462, 0.37751727999420837, 0.39445320155937225, 0.4108313848846592, 0.42791442095767707, 0.44464417739072815, 0.46131249383324757, 0.4775401492952369, 0.4946033880696632, 0.5109286648221314, 0.5278703890508041, 0.5447056172997691, 0.5613152245059609, 0.5775326399598271, 0.5947549399570562, 0.6108300195774063, 0.6280161382164806, 0.6446547586820088, 0.6613189791678451, 0.6775367359514348, 0.6946293293731287, 0.7108941901824437, 0.7279806396109052, 0.7446629506885074, 0.7612882591784, 0.7803203069488518, 0.7945279534906149, 0.8113232458126731, 0.8277690131217241, 0.8447899266029708, 0.8612442272133194, 0.8775309332995676]
37	animate/a77.jpg	inanimate	animate	right	0.907	[0.0, 0.0, 0.0, 0.0, 0.0, 0.0, -4.0, -18.0, -20.0, -20.0, -20.0, -20.0, -20.0, -20.0, -20.0, -20.0, -19.0, -19.0, -19.0, -19.0, -19.0, -19.0, -19.0, -19.0, -19.0, -19.0, -19.0, -19.0, -17.0, -17.0, -22.0, -72.0, -165.0, -239.0, -320.0, -404.0, -478.0, -542.0, -597.0, -637.0, -656.0, -661.0, -658.0, -612.0, -438.0, -277.0, -71.0, 153.0, 379.0, 559.0, 708.0, 801.0, 845.0, 856.0, 857.0]	[-490.0, -490.0, -490.0, -490.0, -490.0, -490.0, -489.0, -489.0, -489.0, -490.0, -490.0, -490.0, -490.0, -491.0, -492.0, -493.0, -494.0, -495.0, -495.0, -495.0, -495.0, -495.0, -495.0, -495.0, -495.0, -495.0, -495.0, -495.0, -493.0, -484.0, -464.0, -398.0, -277.0, -179.0, -80.0, 17.0, 101.0, 169.0, 212.0, 241.0, 258.0, 267.0, 270.0, 285.0, 307.0, 325.0, 338.0, 340.0, 358.0, 383.0, 406.0, 419.0, 426.0, 428.0, 429.0]	[0.01254907512338832, 0.017503182927612215, 0.023153610120061785, 0.04042301402660087, 0.05685205600457266, 0.07337632990675047, 0.09037573938257992, 0.1073297515977174, 0.12351917778141797, 0.13989531312836334, 0.15717086108634248, 0.17376579088158906, 0.1902757288189605, 0.20698978391010314, 0.22361475101206452, 0.24262290546903387, 0.2569906372227706, 0.27363403636263683, 0.2906406138208695, 0.3064982643118128, 0.3236516150063835, 0.34070597909158096, 0.3569565039360896, 0.3733295672573149, 0.39053343527484685, 0.4071171011310071, 0.42378234554780647, 0.43992296111537144, 0.45712751179235056, 0.4737971935537644, 0.49027470481814817, 0.5068109253770672, 0.5237639135448262, 0.5404711419832893, 0.5568005146924406, 0.5732886072946712, 0.5905829285620712, 0.6073502315557562, 0.6235543350921944, 0.6399755264283158, 0.6571589144296013, 0.6737828575423919, 0.6902528594946489, 0.7070536131504923, 0.7236010977067053, 0.7427072147256695, 0.7570401304983534, 0.7736278923694044, 0.7906525604776107, 0.8071915117325261, 0.8236570763401687, 0.8402014888706617, 0.8569902958697639, 0.8733210339560173, 0.8903330727480352]
38	inanimate/n37.jpg	inanimate	animate	left	0.832	[0.0, 0.0, 0.0, 0.0, 0.0, 0.0, 0.0, 0.0, 0.0, 0.0, -1.0, -1.0, -1.0, -1.0, -1.0, -1.0, -1.0, -1.0, -1.0, -1.0, -1.0, -1.0, -4.0, -6.0, -13.0, -17.0, -21.0, -22.0, -28.0, -44.0, -87.0, -138.0, -205.0, -283.0, -345.0, -408.0, -474.0, -540.0, -598.0, -643.0, -694.0, -715.0, -731.0, -745.0, -759.0, -768.0, -772.0, -774.0, -774.0, -774.0]	[-490.0, -490.0, -490.0, -490.0, -490.0, -490.0, -490.0, -490.0, -494.0, -496.0, -498.0, -498.0, -498.0, -498.0, -498.0, -498.0, -498.0, -498.0, -498.0, -498.0, -498.0, -499.0, -501.0, -501.0, -501.0, -499.0, -492.0, -471.0, -449.0, -426.0, -370.0, -297.0, -216.0, -130.0, -64.0, 11.0, 84.0, 152.0, 219.0, 273.0, 327.0, 350.0, 369.0, 386.0, 403.0, 417.0, 423.0, 427.0, 429.0, 431.0]	[0.006651761766988784, 0.011646829487290233, 0.028093962115235627, 0.04511863028164953, 0.06133263243827969, 0.07827742863446474, 0.09468872129218653, 0.11153794423444197, 0.12802637816639617, 0.14507050230167806, 0.16135208844207227, 0.17834467126522213, 0.19468803860945627, 0.2117113414569758, 0.22805197816342115, 0.24516402755398303, 0.26137939508771524, 0.2783777805743739, 0.2946132866782136, 0.31169632280943915, 0.3280734821455553, 0.3451271635713056, 0.3614036297076382, 0.3785187511239201, 0.39469554799143225, 0.4118724506115541, 0.4280516368453391, 0.4452288808533922, 0.46138963504927233, 0.4785266017424874, 0.49475186789641157, 0.5118611866491847, 0.5280359355383553, 0.5451237502857111, 0.5615688348771073, 0.5785907723475248, 0.5949133184622042, 0.6118321733665653, 0.628225716704037, 0.6451892862096429, 0.6616005788673647, 0.6785109004704282, 0.6949436970753595, 0.711829784035217, 0.7282154766726308, 0.7451056595891714, 0.7615312882699072, 0.7785228471038863, 0.7949293610872701, 0.8118683546199463]
39	animate/a53.jpg	animate	inanimate	left	1.054	[0.0, 0.0, 0.0, 0.0, 0.0, 0.0, 0.0, 0.0, 0.0, 0.0, 0.0, 6.0, 9.0, 10.0, 10.0, 10.0, 10.0, 10.0, 10.0, 10.0, 10.0, 10.0, 10.0, 10.0, 10.0, 7.0, 3.0, 2.0, -8.0, -35.0, -78.0, -125.0, -168.0, -228.0, -262.0, -311.0, -375.0, -450.0, -515.0, -579.0, -622.0, -649.0, -662.0, -663.0, -625.0, -421.0, -264.0, -136.0, -47.0, -27.0, -25.0, -35.0, -107.0, -229.0, -369.0, -517.0, -647.0, -766.0, -793.0, -805.0, -806.0, -806.0, -806.0]	[-490.0, -490.0, -490.0, -490.0, -490.0, -490.0, -490.0, -490.0, -490.0, -490.0, -490.0, -485.0, -483.0, -482.0, -482.0, -482.0, -482.0, -482.0, -482.0, -482.0, -482.0, -482.0, -482.0, -482.0, -482.0, -478.0, -470.0, -457.0, -440.0, -410.0, -361.0, -320.0, -273.0, -191.0, -123.0, -47.0, 43.0, 124.0, 182.0, 233.0, 269.0, 299.0, 319.0, 328.0, 342.0, 365.0, 367.0, 392.0, 414.0, 423.0, 424.0, 424.0, 424.0, 424.0, 439.0, 460.0, 478.0, 488.0, 488.0, 488.0, 488.0, 488.0, 488.0]	[0.013094969093799591, 0.018325215321965516, 0.025946840818505734, 0.04105560656171292, 0.05801371479174122, 0.07480695913545787, 0.09142271027667448, 0.10817567730555311, 0.12479450047248974, 0.14139011298539117, 0.15977533458499238, 0.1747953537851572, 0.19367107102880254, 0.20827466389164329, 0.2247081432142295, 0.2411003212328069, 0.25803931476548314, 0.2749342763563618, 0.2912868597195484, 0.30777085630688816, 0.324732719163876, 0.34135085967136547, 0.35817311733262613, 0.3743147568893619, 0.3913530783029273, 0.4081872826209292, 0.424706777848769, 0.4411856544902548, 0.45814888266613707, 0.4745642713387497, 0.4915643634740263, 0.5081176506937481, 0.5247921111295, 0.5412802037317306, 0.5604996433248743, 0.5747499564895406, 0.5914646942401305, 0.6082879758905619, 0.6241777116665617, 0.641470326227136, 0.6584113677963614, 0.6747410818352364, 0.6910318839363754, 0.7081412026891485, 0.7248214657884091, 0.7411460598232225, 0.7582642532070167, 0.7746277592377737, 0.79106431058608, 0.8081620240118355, 0.824737497838214, 0.8411883851513267, 0.8583222798188217, 0.8746970498468727, 0.8910172065952793, 0.9080490427440964, 0.924805081798695, 0.9412511904374696, 0.9576088938047178, 0.9748472364153713, 0.9910274465801194, 1.0080319761182182, 1.0250638122088276]
40	animate/a12.jpg	animate	inanimate	left	1.246	[0.0, 0.0, 0.0, 0.0, 0.0, 0.0, -1.0, -2.0, -2.0, 12.0, 19.0, 19.0, 19.0, 19.0, 19.0, 19.0, 19.0, 19.0, 19.0, 19.0, 19.0, 19.0, 19.0, 19.0, 19.0, 18.0, -6.0, -35.0, -90.0, -154.0, -219.0, -278.0, -324.0, -364.0, -408.0, -454.0, -502.0, -557.0, -631.0, -668.0, -697.0, -705.0, -706.0, -679.0, -567.0, -381.0, -152.0, 115.0, 369.0, 584.0, 798.0, 852.0, 862.0, 862.0, 862.0, 862.0, 861.0, 848.0, 821.0, 757.0, 652.0, 522.0, 341.0, 7.0, -230.0, -446.0, -608.0, -737.0, -821.0, -881.0, -911.0, -925.0, -927.0, -927.0, -927.0, -927.0]	[-490.0, -490.0, -490.0, -490.0, -490.0, -490.0, -490.0, -491.0, -492.0, -494.0, -495.0, -495.0, -495.0, -495.0, -495.0, -495.0, -495.0, -495.0, -495.0, -495.0, -495.0, -495.0, -495.0, -495.0, -495.0, -493.0, -471.0, -437.0, -386.0, -331.0, -274.0, -211.0, -153.0, -95.0, -35.0, 31.0, 89.0, 156.0, 237.0, 291.0, 337.0, 364.0, 381.0, 401.0, 435.0, 459.0, 466.0, 471.0, 471.0, 471.0, 471.0, 471.0, 471.0, 471.0, 471.0, 471.0, 471.0, 471.0, 471.0, 467.0, 467.0, 467.0, 467.0, 467.0, 467.0, 467.0, 467.0, 467.0, 467.0, 467.0, 468.0, 468.0, 469.0, 469.0, 469.0, 469.0]	[0.011836269404739141, 0.016748734517022967, 0.021610682422760874, 0.039064406184479594, 0.05518590705469251, 0.07251094828825444, 0.08849728130735457, 0.10568066930864006, 0.12227389251347631, 0.1389026143006049, 0.1580896272789687, 0.17217883124249056, 0.1889669555821456, 0.20558577874908224, 0.22243670833995566, 0.23880499304505065, 0.2553514536120929, 0.27244063367834315, 0.2885440439567901, 0.30580457323230803, 0.322004922083579, 0.33899204357294366, 0.35531288298079744, 0.3723604204133153, 0.38864576118066907, 0.4057970638968982, 0.42217592993984, 0.4390893234522082, 0.4554582908167504, 0.4725618069060147, 0.48860445991158485, 0.5057608825736679, 0.5221615939517505, 0.5390961501398124, 0.5554483921732754, 0.5723972843843512, 0.5887744437204674, 0.6057905785855837, 0.6219253914314322, 0.639091371500399, 0.6552179923746735, 0.6723413057625294, 0.6885283426381648, 0.7057458639610559, 0.7220905966241844, 0.7390603101812303, 0.7554961788118817, 0.7724102550419047, 0.7887870730482973, 0.8057956985430792, 0.8221288259373978, 0.839085568790324, 0.8554514641873538, 0.8723839723970741, 0.888495574647095, 0.9056308346916921, 0.922124388627708, 0.9390446088509634, 0.9552009257604368, 0.9723512044292875, 0.988542337261606, 1.0057199225993827, 1.022105615295004, 1.0390743048046716, 1.0554941308218986, 1.0724648683099076, 1.0885385826113634, 1.1057503012707457, 1.1221015193150379, 1.139054507482797, 1.1554627281730063, 1.172454628336709, 1.1887645450769924, 1.2057844345690683, 1.2220871833269484, 1.2390975154703483]
41	animate/a50.jpg	animate	inanimate	left	0.962	[0.0, 0.0, 0.0, 0.0, 0.0, 0.0, 0.0, 0.0, 0.0, 0.0, 0.0, 0.0, 0.0, 0.0, 0.0, 0.0, 0.0, 0.0, 0.0, 0.0, 0.0, 0.0, 0.0, 5.0, 9.0, 9.0, 7.0, 7.0, 7.0, 0.0, -18.0, -54.0, -96.0, -165.0, -238.0, -316.0, -394.0, -468.0, -554.0, -596.0, -632.0, -650.0, -662.0, -672.0, -681.0, -682.0, -680.0, -667.0, -649.0, -640.0, -640.0, -644.0, -652.0, -659.0, -665.0, -667.0]	[-490.0, -490.0, -490.0, -490.0, -490.0, -490.0, -490.0, -490.0, -490.0, -490.0, -491.0, -492.0, -492.0, -492.0, -492.0, -492.0, -492.0, -492.0, -492.0, -492.0, -492.0, -492.0, -492.0, -494.0, -490.0, -489.0, -479.0, -471.0, -460.0, -439.0, -408.0, -367.0, -321.0, -263.0, -197.0, -133.0, -67.0, 9.0, 117.0, 177.0, 225.0, 254.0, 273.0, 288.0, 305.0, 311.0, 316.0, 327.0, 336.0, 347.0, 367.0, 382.0, 390.0, 396.0, 402.0, 404.0]	[0.0021792749175801873, 0.00875881063984707, 0.019622076011728495, 0.0365617522620596, 0.05307988217100501, 0.06941574020311236, 0.08640559238847345, 0.10323296999558806, 0.1196944386465475, 0.1370461038313806, 0.15333349257707596, 0.1698908758116886, 0.186476930975914, 0.20568271726369858, 0.2198524758568965, 0.23613576858770102, 0.25313551945146173, 0.2698918997775763, 0.2865755762322806, 0.30285647965501994, 0.31993303046328947, 0.33617604593746364, 0.35316043673083186, 0.36933040694566444, 0.38658479222794995, 0.40372346562799066, 0.41983404383063316, 0.43617809389252216, 0.45328877796418965, 0.4700045397039503, 0.4864554270170629, 0.5031660687527619, 0.519665084022563, 0.53651942696888, 0.5533048206125386, 0.5695154094719328, 0.586520621611271, 0.6032705166726373, 0.6198057131841779, 0.6387240970507264, 0.6531454180949368, 0.669958459737245, 0.6864789790124632, 0.703187572711613, 0.7198418945190497, 0.7362931231618859, 0.7533259832998738, 0.7695522734429687, 0.7866615921375342, 0.8035231031244621, 0.8198009345214814, 0.8361299659591168, 0.8533788899076171, 0.8695222361129709, 0.8865793308941647, 0.9030762981274165]
42	animate/a59.jpg	inanimate	animate	right	1.032	[0.0, 0.0, 0.0, 0.0, 0.0, 0.0, 0.0, 0.0, 0.0, 0.0, 0.0, 0.0, 0.0, 0.0, 0.0, 0.0, 0.0, 2.0, 7.0, 13.0, 14.0, 14.0, 14.0, 14.0, 14.0, 14.0, 14.0, 14.0, 14.0, 14.0, 14.0, 14.0, 10.0, -6.0, -98.0, -137.0, -212.0, -336.0, -430.0, -519.0, -604.0, -686.0, -765.0, -823.0, -856.0, -860.0, -860.0, -835.0, -766.0, -640.0, -348.0, -108.0, 134.0, 371.0, 572.0, 710.0, 789.0, 819.0, 826.0, 828.0, 828.0]	[-490.0, -490.0, -490.0, -490.0, -490.0, -490.0, -490.0, -490.0, -490.0, -490.0, -490.0, -490.0, -490.0, -490.0, -490.0, -490.0, -490.0, -491.0, -493.0, -493.0, -493.0, -493.0, -493.0, -493.0, -493.0, -493.0, -493.0, -493.0, -493.0, -493.0, -493.0, -486.0, -462.0, -442.0, -372.0, -341.0, -276.0, -177.0, -96.0, -14.0, 70.0, 167.0, 258.0, 326.0, 368.0, 378.0, 383.0, 391.0, 403.0, 413.0, 415.0, 415.0, 415.0, 415.0, 429.0, 449.0, 460.0, 469.0, 470.0, 470.0, 470.0]	[0.006227587233297527, 0.011758547858335078, 0.027303878567181528, 0.043680696573574096, 0.06076680467231199, 0.07696510554524139, 0.09414439753163606, 0.11091716191731393, 0.12728510523447767, 0.14368445129366592, 0.16088388190837577, 0.177448091795668, 0.1939317470532842, 0.21155067603103817, 0.2274646464502439, 0.24413842422654852, 0.2604974929126911, 0.27734398521715775, 0.29419491480803117, 0.31108441506512463, 0.32728135061915964, 0.34369844594039023, 0.3608275619917549, 0.3774825664004311, 0.3939525683526881, 0.41152951336698607, 0.42738579848082736, 0.44412204023683444, 0.4605155835743062, 0.47733920655446127, 0.4941447388846427, 0.5110830497578718, 0.5272871532361023, 0.543681379291229, 0.5607258446980268, 0.5774057664675638, 0.5942703494220041, 0.6102993490640074, 0.6273864811519161, 0.6444237786345184, 0.6606603087857366, 0.6770176708232611, 0.6940252723288722, 0.7108174926252104, 0.7272775959572755, 0.7436103820218705, 0.7607610020204447, 0.7774777877493761, 0.793909901753068, 0.8128545682411641, 0.8273776065325364, 0.8436643126187846, 0.8607668046606705, 0.8777095528785139, 0.8940355122904293, 0.9103829757077619, 0.9273595158592798, 0.9441360348719172, 0.9604974929243326, 0.9773207745747641, 0.9940133256604895]
