trialIndex	stimulus	isAnimate	left_option	right_option	response	response_time	xTrajectory	yTrajectory	tTrajectory
0	镜子	False	inanimate	animate	left	1.553	[0.0, 0.0, 0.0, 0.0, 0.0, 0.0, 0.0, 0.0, 0.0, 0.0, 0.0, 0.0, 0.0, 0.0, 0.0, 0.0, 0.0, 0.0, 0.0, 0.0, 0.0, 0.0, 0.0, 0.0, 0.0, -1.0, -1.0, -1.0, -1.0, -1.0, -1.0, -1.0, -1.0, -1.0, -1.0, 3.0, 4.0, 14.0, 20.0, 24.0, 32.0, 36.0, 36.0, 15.0, -21.0, -67.0, -128.0, -191.0, -257.0, -327.0, -425.0, -464.0, -586.0, -657.0, -718.0, -748.0, -771.0, -787.0, -798.0, -803.0, -806.0, -806.0, -806.0, -806.0, -806.0, -806.0, -798.0, -786.0, -777.0, -770.0, -765.0, -765.0, -765.0, -765.0, -765.0, -765.0, -766.0, -776.0, -782.0, -806.0, -822.0, -837.0, -848.0, -849.0, -849.0, -849.0, -849.0, -849.0, -849.0, -849.0, -849.0, -849.0, -849.0, -849.0]	[-490.0, -490.0, -490.0, -490.0, -490.0, -490.0, -490.0, -490.0, -490.0, -490.0, -490.0, -490.0, -490.0, -490.0, -490.0, -490.0, -490.0, -490.0, -489.0, -487.0, -487.0, -486.0, -486.0, -486.0, -485.0, -483.0, -482.0, -479.0, -477.0, -475.0, -472.0, -468.0, -466.0, -461.0, -458.0, -449.0, -446.0, -422.0, -404.0, -393.0, -354.0, -315.0, -260.0, -189.0, -106.0, -21.0, 61.0, 136.0, 202.0, 261.0, 334.0, 363.0, 448.0, 496.0, 540.0, 540.0, 540.0, 540.0, 540.0, 540.0, 540.0, 540.0, 540.0, 540.0, 537.0, 520.0, 494.0, 460.0, 434.0, 415.0, 407.0, 406.0, 406.0, 406.0, 406.0, 406.0, 405.0, 409.0, 413.0, 427.0, 434.0, 439.0, 442.0, 442.0, 442.0, 442.0, 442.0, 442.0, 442.0, 442.0, 442.0, 442.0, 442.0, 442.0]	[0.007148537901230156, 0.012397216109093279, 0.018165403162129223, 0.031101584143470973, 0.04743198084179312, 0.06283975439146161, 0.08096078422386199, 0.09841894533019513, 0.11269690649351105, 0.1310729121323675, 0.1474937621387653, 0.16282610106281936, 0.18089524831157178, 0.1977591485483572, 0.212507807998918, 0.23110499745234847, 0.24759957537753507, 0.26279879442881793, 0.2808184483437799, 0.2978014738764614, 0.3124245227081701, 0.33116950938710943, 0.3474678208003752, 0.36282507702708244, 0.38064573385054246, 0.39770146331284195, 0.41242315736599267, 0.430996794893872, 0.44733060494763777, 0.46267420786898583, 0.48071331781102344, 0.4981649935361929, 0.5124415893806145, 0.5311476640636101, 0.5475726100848988, 0.5627407677820884, 0.5842058374546468, 0.5977663165540434, 0.6125979198841378, 0.6316125596640632, 0.6498254081234336, 0.6628220050479285, 0.682729572057724, 0.6975980393472128, 0.7154374694800936, 0.7310387788456865, 0.7482088548713364, 0.7628353170584887, 0.7814731251564808, 0.7975475220591761, 0.8133249593083747, 0.8308425123686902, 0.847701292601414, 0.8629001703229733, 0.88053309393581, 0.8979158204165287, 0.91283207439119, 0.9309606135939248, 0.9471633517532609, 0.962767050426919, 0.9807358457474038, 0.9975079274736345, 1.012461386679206, 1.0305704699130729, 1.0476135700009763, 1.0626547518768348, 1.0810706935008056, 1.0972177943913266, 1.1128136423649266, 1.1308094030246139, 1.1477006099303253, 1.1626745491521433, 1.1809614669182338, 1.1972058477113023, 1.2127341118175536, 1.2308141816756688, 1.2475988927180879, 1.2624117227387615, 1.280950885557104, 1.2976024767267518, 1.3128262716927566, 1.3305359952501021, 1.3476487273583189, 1.3624182080384344, 1.3809471309068613, 1.397179223713465, 1.412836853065528, 1.4304871846688911, 1.447655895317439, 1.4624680426786654, 1.480843024328351, 1.4971512344200164, 1.5128389010205865, 1.5304878673050553]
1	信封	False	inanimate	animate	left	0.981	[0.0, 0.0, 0.0, 0.0, 0.0, 0.0, 0.0, 0.0, 0.0, 0.0, 0.0, 0.0, 0.0, 0.0, 0.0, 0.0, 0.0, 0.0, 0.0, -2.0, -4.0, -7.0, -12.0, -15.0, -17.0, -27.0, -35.0, -47.0, -65.0, -91.0, -127.0, -171.0, -230.0, -294.0, -399.0, -456.0, -480.0, -538.0, -557.0, -573.0, -585.0, -594.0, -600.0, -607.0, -614.0, -626.0, -646.0, -662.0, -669.0, -684.0, -694.0, -701.0, -709.0, -713.0, -715.0, -717.0, -717.0, -717.0, -717.0, -717.0]	[-490.0, -490.0, -490.0, -490.0, -490.0, -490.0, -490.0, -490.0, -490.0, -490.0, -490.0, -490.0, -490.0, -490.0, -490.0, -490.0, -490.0, -490.0, -490.0, -488.0, -486.0, -481.0, -476.0, -471.0, -466.0, -451.0, -439.0, -417.0, -387.0, -332.0, -249.0, -144.0, -42.0, 60.0, 185.0, 249.0, 275.0, 335.0, 351.0, 363.0, 370.0, 375.0, 377.0, 378.0, 378.0, 378.0, 378.0, 378.0, 380.0, 382.0, 383.0, 384.0, 386.0, 388.0, 389.0, 389.0, 389.0, 389.0, 389.0, 389.0]	[0.012568223988637328, 0.017085425439290702, 0.02373425179393962, 0.04173922841437161, 0.05855192872695625, 0.07385661965236068, 0.09179640171350911, 0.10886134713655338, 0.12377794238273054, 0.1422423532931134, 0.1586225846549496, 0.17391089163720608, 0.19178104167804122, 0.2087903498322703, 0.22384279570542276, 0.24214882805244997, 0.2627510078018531, 0.273776747751981, 0.2917714843642898, 0.3087852298631333, 0.3239154996117577, 0.34211469476576895, 0.35862190200714394, 0.37383238499751315, 0.3918083483586088, 0.4087842058506794, 0.4235714359092526, 0.4420641774777323, 0.45838126220041886, 0.4740532275172882, 0.4917653403826989, 0.5086459659505635, 0.5234990732860751, 0.5421737453434616, 0.5583471289137378, 0.5738320436794311, 0.5916325618163683, 0.6087480245623738, 0.6235123852966353, 0.6422208493459038, 0.6582761316094548, 0.6741228594328277, 0.691589895170182, 0.7086647392716259, 0.7234983906382695, 0.7420385775039904, 0.7582423396524973, 0.7738532063085586, 0.7917209670995362, 0.8087231072713621, 0.8235256972839125, 0.8421785240061581, 0.8583614648669027, 0.8739904222311452, 0.8916690844926052, 0.908736077893991, 0.9235216013039462, 0.9420252654817887, 0.9583631715504453, 0.9739262515795417]
2	蝌蚪	True	inanimate	animate	right	1.532	[0.0, 0.0, 0.0, 0.0, 0.0, 0.0, 0.0, 0.0, 0.0, 0.0, 0.0, 0.0, 0.0, 0.0, 0.0, 0.0, 0.0, 0.0, 0.0, 0.0, 0.0, 0.0, 0.0, 0.0, 0.0, 0.0, 0.0, -7.0, -16.0, -38.0, -75.0, -162.0, -232.0, -313.0, -395.0, -477.0, -562.0, -631.0, -684.0, -715.0, -740.0, -746.0, -755.0, -758.0, -759.0, -759.0, -759.0, -759.0, -759.0, -759.0, -759.0, -759.0, -759.0, -759.0, -759.0, -759.0, -759.0, -759.0, -759.0, -759.0, -759.0, -759.0, -744.0, -685.0, -577.0, -431.0, -226.0, 132.0, 386.0, 631.0, 860.0, 959.0, 959.0, 959.0, 959.0, 959.0, 959.0, 959.0, 959.0, 959.0, 959.0, 959.0, 959.0, 959.0, 959.0, 952.0, 938.0, 921.0, 904.0, 887.0, 886.0, 886.0, 886.0]	[-490.0, -490.0, -490.0, -490.0, -490.0, -490.0, -490.0, -490.0, -490.0, -490.0, -490.0, -490.0, -490.0, -490.0, -490.0, -490.0, -490.0, -490.0, -490.0, -490.0, -490.0, -490.0, -490.0, -490.0, -490.0, -490.0, -490.0, -485.0, -468.0, -434.0, -384.0, -276.0, -185.0, -86.0, 10.0, 107.0, 204.0, 284.0, 349.0, 386.0, 415.0, 423.0, 432.0, 435.0, 436.0, 436.0, 436.0, 436.0, 436.0, 436.0, 436.0, 436.0, 436.0, 436.0, 436.0, 436.0, 436.0, 436.0, 436.0, 436.0, 436.0, 436.0, 435.0, 423.0, 405.0, 384.0, 364.0, 359.0, 359.0, 359.0, 359.0, 355.0, 355.0, 355.0, 355.0, 355.0, 355.0, 355.0, 355.0, 355.0, 355.0, 355.0, 355.0, 355.0, 355.0, 364.0, 381.0, 401.0, 417.0, 433.0, 435.0, 435.0, 435.0]	[0.015768562559969723, 0.02344411867670715, 0.029616444080602378, 0.04803955368697643, 0.0648857046617195, 0.07960637472569942, 0.09826602815883234, 0.1145773102180101, 0.13001170771894976, 0.14811225759331137, 0.16497342725051567, 0.17961866274708882, 0.1981800122302957, 0.21665602846769616, 0.23000317439436913, 0.24974485352868214, 0.2649249579408206, 0.2822148418636061, 0.29823633219348267, 0.315882567781955, 0.3300031744292937, 0.34955165907740593, 0.36498332588234916, 0.3822674071416259, 0.3981742095784284, 0.4153811495634727, 0.43002194771543145, 0.4481201082817279, 0.4648037846782245, 0.4797156013082713, 0.4978021565475501, 0.5144834436359815, 0.5297495639533736, 0.5479037031182088, 0.5645733848796226, 0.5798534998903051, 0.5979246951173991, 0.6155811707139947, 0.6295850414317101, 0.6490324914921075, 0.6643610757309943, 0.6800275797140785, 0.6979103591293097, 0.7159358157659881, 0.7298710785107687, 0.7486211851937696, 0.7644546009832993, 0.780182886228431, 0.7978519911994226, 0.8150179712101817, 0.8298185132443905, 0.8481525349197909, 0.8643334278021939, 0.8800060757203028, 0.8979547324124724, 0.9148988459492102, 0.9298202198697254, 0.948093484272249, 0.9643853104207665, 0.9800081237335689, 0.9979383484460413, 1.0147920087329112, 1.0296126893954352, 1.048123862943612, 1.0644204677082598, 1.0799623851198703, 1.0980178790050559, 1.1149961258633994, 1.1298140758881345, 1.148170625558123, 1.1646771501400508, 1.1799787690979429, 1.1978571111685596, 1.214886557951104, 1.2294495322275907, 1.2481788175646216, 1.2658277838490903, 1.2799767210963182, 1.2979311804519966, 1.3148787072859704, 1.3299144278280437, 1.3486863797879778, 1.3650495444890112, 1.3804057767265476, 1.3982206308864988, 1.414764019427821, 1.4296079107443802, 1.4480801722966135, 1.4644303663517348, 1.479871590505354, 1.4977536872611381, 1.5145076782791875, 1.5300369663746096]
3	公鸡	True	inanimate	animate	right	1.917	[0.0, 0.0, 0.0, 0.0, 0.0, 0.0, 0.0, 0.0, 0.0, 0.0, 0.0, 0.0, 0.0, 0.0, 0.0, 0.0, 0.0, 0.0, 0.0, -1.0, -3.0, -4.0, -5.0, -8.0, -8.0, -9.0, -10.0, -10.0, -10.0, -10.0, -10.0, -10.0, -10.0, -6.0, 32.0, 156.0, 215.0, 457.0, 640.0, 838.0, 959.0, 959.0, 959.0, 959.0, 959.0, 959.0, 958.0, 948.0, 936.0, 921.0, 906.0, 884.0, 844.0, 797.0, 743.0, 690.0, 651.0, 607.0, 517.0, 425.0, 375.0, 211.0, 96.0, -47.0, -188.0, -311.0, -411.0, -490.0, -532.0, -562.0, -583.0, -596.0, -606.0, -619.0, -623.0, -625.0, -626.0, -626.0, -627.0, -627.0, -610.0, -545.0, -402.0, -192.0, 61.0, 460.0, 695.0, 898.0, 959.0, 959.0, 959.0, 959.0, 959.0, 959.0, 959.0, 959.0, 959.0, 959.0, 959.0, 959.0, 959.0, 959.0, 959.0, 959.0, 959.0, 959.0, 951.0, 942.0, 938.0, 931.0, 929.0, 928.0, 928.0, 928.0, 928.0, 928.0]	[-490.0, -490.0, -490.0, -490.0, -490.0, -490.0, -490.0, -490.0, -490.0, -490.0, -490.0, -490.0, -490.0, -490.0, -490.0, -490.0, -490.0, -490.0, -489.0, -487.0, -484.0, -479.0, -473.0, -466.0, -465.0, -459.0, -452.0, -446.0, -432.0, -407.0, -366.0, -295.0, -235.0, -171.0, -93.0, 26.0, 61.0, 149.0, 198.0, 232.0, 256.0, 277.0, 289.0, 296.0, 301.0, 301.0, 304.0, 312.0, 316.0, 321.0, 324.0, 333.0, 346.0, 360.0, 376.0, 393.0, 407.0, 420.0, 437.0, 448.0, 456.0, 479.0, 489.0, 489.0, 489.0, 497.0, 511.0, 524.0, 531.0, 536.0, 540.0, 540.0, 540.0, 540.0, 540.0, 540.0, 540.0, 540.0, 540.0, 537.0, 527.0, 518.0, 499.0, 476.0, 451.0, 402.0, 367.0, 338.0, 314.0, 314.0, 318.0, 324.0, 328.0, 329.0, 329.0, 329.0, 329.0, 329.0, 329.0, 329.0, 329.0, 329.0, 329.0, 329.0, 329.0, 334.0, 341.0, 357.0, 363.0, 375.0, 380.0, 382.0, 384.0, 384.0, 384.0, 384.0]	[0.013267273956444114, 0.01812102983240038, 0.02662943856557831, 0.04305574984755367, 0.06119418772868812, 0.07496424531564116, 0.09342080558417365, 0.10992494079982862, 0.12538971693720669, 0.14307554718106985, 0.16020875924732536, 0.17502875725040212, 0.1935296907904558, 0.2099273301428184, 0.22517433582106605, 0.24313323246315122, 0.2601852072402835, 0.27501612791093066, 0.29347166419029236, 0.3097119489684701, 0.3252296317368746, 0.3431052431697026, 0.36012001265771687, 0.37502295459853485, 0.3934784908196889, 0.4099423487787135, 0.4251504424610175, 0.44326089101377875, 0.460089975327719, 0.4750260266009718, 0.4934426508843899, 0.5097058049868792, 0.5251436158432625, 0.5429840699071065, 0.559916919504758, 0.5747625174699351, 0.5933146509923972, 0.6095481091178954, 0.6251873064320534, 0.6430465338635258, 0.6601927165756933, 0.6750069119152613, 0.693502725509461, 0.7097826049430296, 0.7252443090546876, 0.7435370294842869, 0.7600363860256039, 0.7749591253232211, 0.7934754188172519, 0.8118705391534604, 0.8251750184572302, 0.8451590440818109, 0.85998825810384, 0.8774583658669144, 0.8933440056280233, 0.910912417282816, 0.9252091517555527, 0.943949359760154, 0.959844556869939, 0.9755905914353207, 0.9932105444022454, 1.0101843539159745, 1.0252084690728225, 1.0431120698340237, 1.0598053035791963, 1.0748154241009615, 1.093037829909008, 1.1097378903068602, 1.1249804586404935, 1.1432544057024643, 1.1599172608111985, 1.1748970026965253, 1.193144325807225, 1.2095453784568235, 1.2249961599591188, 1.2428704060148448, 1.2597069996409118, 1.275123989151325, 1.292993115261197, 1.3097686102846637, 1.325137130508665, 1.3428908860078081, 1.359641122398898, 1.3750174932647496, 1.3929473766474985, 1.4097921622451395, 1.4252214397420175, 1.4432946830056608, 1.4601241086493246, 1.4750990718603134, 1.4932194190914743, 1.5099515647743829, 1.5253105277079158, 1.5430745232151821, 1.5598261248669587, 1.5749901866074651, 1.5931958670844324, 1.6099136768025346, 1.6252733223955147, 1.6430188859230839, 1.6600070314016193, 1.6750133972382173, 1.6933115790016018, 1.7098686208482832, 1.7252426024060696, 1.7429929446079768, 1.7600019114324823, 1.7748174720909446, 1.7931979150744155, 1.8098529195412993, 1.8252354344003834, 1.8430120592238382, 1.8599169194931164, 1.875115797156468, 1.8933166989590973, 1.909911970142275]
4	桌子	False	inanimate	animate	left	1.478	[0.0, 0.0, 0.0, 0.0, 0.0, 0.0, 0.0, 0.0, 0.0, 0.0, 0.0, 0.0, 0.0, 0.0, 0.0, 0.0, 7.0, 17.0, 30.0, 49.0, 85.0, 136.0, 192.0, 271.0, 358.0, 457.0, 624.0, 687.0, 877.0, 959.0, 959.0, 959.0, 959.0, 959.0, 959.0, 959.0, 949.0, 928.0, 877.0, 853.0, 776.0, 717.0, 646.0, 561.0, 451.0, 312.0, 66.0, -15.0, -182.0, -331.0, -509.0, -550.0, -628.0, -643.0, -649.0, -651.0, -651.0, -652.0, -652.0, -652.0, -652.0, -652.0, -652.0, -652.0, -652.0, -652.0, -652.0, -652.0, -652.0, -652.0, -652.0, -652.0, -652.0, -652.0, -652.0, -652.0, -652.0, -652.0, -652.0, -652.0, -652.0, -652.0, -660.0, -679.0, -685.0, -696.0, -696.0, -696.0, -696.0, -696.0]	[-490.0, -491.0, -491.0, -491.0, -493.0, -494.0, -494.0, -494.0, -494.0, -494.0, -494.0, -494.0, -494.0, -494.0, -494.0, -494.0, -490.0, -480.0, -464.0, -437.0, -387.0, -326.0, -266.0, -196.0, -132.0, -71.0, 11.0, 38.0, 118.0, 168.0, 196.0, 216.0, 230.0, 245.0, 283.0, 302.0, 347.0, 403.0, 486.0, 516.0, 540.0, 540.0, 540.0, 540.0, 540.0, 540.0, 540.0, 540.0, 540.0, 522.0, 475.0, 462.0, 423.0, 411.0, 407.0, 406.0, 406.0, 406.0, 406.0, 406.0, 406.0, 406.0, 406.0, 406.0, 406.0, 407.0, 408.0, 410.0, 412.0, 413.0, 413.0, 413.0, 413.0, 413.0, 413.0, 413.0, 413.0, 413.0, 413.0, 413.0, 413.0, 413.0, 408.0, 402.0, 402.0, 402.0, 402.0, 402.0, 402.0, 402.0]	[0.009619789139833301, 0.014570824918337166, 0.019858073734212667, 0.03638405428500846, 0.05248951254179701, 0.06799866195069626, 0.08588041737675667, 0.10286207759054378, 0.11782099812990054, 0.13617379311472178, 0.15260215243324637, 0.16800651262747124, 0.1858616440440528, 0.2027958589605987, 0.21756738767726347, 0.2358884387067519, 0.25268100039102137, 0.26813178189331666, 0.2858261454384774, 0.30266581109026447, 0.31788994738599285, 0.3361976864398457, 0.3526509630610235, 0.36804986192146316, 0.385918305371888, 0.40279039763845503, 0.417820998118259, 0.43602872657356784, 0.4526448191027157, 0.46811198454815894, 0.4858572067460045, 0.5028293096111156, 0.517890288727358, 0.5362208971055225, 0.552686461713165, 0.5681160805397667, 0.5861043318873271, 0.6028637842391618, 0.6178380647907034, 0.636229089112021, 0.6526434537372552, 0.6680816059233621, 0.6857452495023608, 0.7027886909781955, 0.7177902781404555, 0.7361458038212731, 0.7525676778168418, 0.7679918353096582, 0.7858886093599722, 0.8027900562738068, 0.8175670463242568, 0.8359263266902417, 0.8525465151760727, 0.8680785339092836, 0.8859128440381028, 0.902819410955999, 0.9178503527655266, 0.9362045131274499, 0.9525410538190044, 0.9681140325265005, 0.9857831374974921, 1.0028487655799836, 1.0178592274314724, 1.0361717451596633, 1.052633213752415, 1.0680846779141575, 1.085955852002371, 1.102886994893197, 1.1177977874758653, 1.1360567159135826, 1.1524727872456424, 1.1679737446829677, 1.185747638810426, 1.2028156562591903, 1.2175684116664343, 1.235919841332361, 1.252873512217775, 1.2678628114517778, 1.2862384757609107, 1.3026801470550708, 1.3182026084978133, 1.3356761295581236, 1.3527673576609232, 1.3679140114109032, 1.3862012704485096, 1.4026002751197666, 1.4180899685597979, 1.4356774949119426, 1.4527315176674165, 1.4676784916082397]
5	啤酒	False	inanimate	animate	left	0.813	[0.0, 0.0, 0.0, 0.0, 0.0, 0.0, 0.0, 0.0, 0.0, 0.0, 0.0, 0.0, 0.0, 0.0, 0.0, 0.0, 0.0, -3.0, -8.0, -16.0, -36.0, -69.0, -119.0, -247.0, -300.0, -507.0, -649.0, -768.0, -855.0, -917.0, -952.0, -960.0, -960.0, -960.0, -960.0, -960.0, -960.0, -960.0, -960.0, -960.0, -960.0, -960.0, -956.0, -931.0, -889.0, -857.0, -835.0, -823.0, -822.0]	[-490.0, -490.0, -490.0, -490.0, -490.0, -490.0, -490.0, -490.0, -490.0, -490.0, -490.0, -490.0, -490.0, -490.0, -490.0, -490.0, -490.0, -485.0, -474.0, -453.0, -406.0, -330.0, -230.0, -33.0, 40.0, 258.0, 369.0, 456.0, 520.0, 540.0, 540.0, 540.0, 540.0, 540.0, 539.0, 536.0, 536.0, 535.0, 535.0, 535.0, 535.0, 535.0, 533.0, 522.0, 509.0, 497.0, 488.0, 483.0, 483.0]	[0.015132317726965994, 0.020190873416140676, 0.028346343780867755, 0.04673702677246183, 0.06362720968900248, 0.07849738362710923, 0.09676279738778248, 0.11338810587767512, 0.12872556480579078, 0.14668036543298513, 0.16355791903333738, 0.1785598475835286, 0.19672900543082505, 0.21315053809667006, 0.2286293088691309, 0.2466097095166333, 0.2634910178021528, 0.27847861032932997, 0.2969392665545456, 0.3131495140842162, 0.3286504715215415, 0.34645849897060543, 0.3635108150774613, 0.37846188503317535, 0.39664094150066376, 0.41307988215703517, 0.42875526077114046, 0.4466175601701252, 0.4636091190041043, 0.4785209356341511, 0.4969532612012699, 0.5133870818535797, 0.5287422901019454, 0.546584450872615, 0.5634244578541256, 0.5785352716338821, 0.5967467547161505, 0.6129696315620095, 0.628642279538326, 0.6465581682277843, 0.663567817711737, 0.6784758796566166, 0.696695213438943, 0.7129935248522088, 0.7286811915109865, 0.7465899122180417, 0.76350944978185, 0.778465639683418, 0.7967010161373764]
6	桥梁	False	animate	inanimate	left	0.781	[0.0, 0.0, 0.0, 0.0, 0.0, 0.0, 0.0, 0.0, 0.0, 0.0, 0.0, 0.0, 0.0, 0.0, 1.0, 1.0, 2.0, 2.0, 2.0, 2.0, 2.0, -7.0, -25.0, -49.0, -73.0, -182.0, -274.0, -357.0, -435.0, -487.0, -512.0, -521.0, -523.0, -523.0, -528.0, -547.0, -559.0, -593.0, -614.0, -629.0, -644.0, -675.0, -712.0, -731.0, -732.0, -733.0, -733.0]	[-490.0, -490.0, -490.0, -490.0, -490.0, -490.0, -490.0, -490.0, -490.0, -490.0, -490.0, -490.0, -490.0, -490.0, -492.0, -492.0, -492.0, -492.0, -492.0, -492.0, -490.0, -479.0, -451.0, -408.0, -373.0, -208.0, -83.0, 33.0, 134.0, 194.0, 215.0, 220.0, 221.0, 221.0, 221.0, 224.0, 228.0, 248.0, 264.0, 280.0, 302.0, 346.0, 398.0, 431.0, 433.0, 435.0, 435.0]	[0.009087309532333165, 0.01376323087606579, 0.018677743966691196, 0.035096204665023834, 0.05149418534711003, 0.06685792689677328, 0.08462021569721401, 0.1016093852231279, 0.11655089783016592, 0.1346651010098867, 0.15150544932112098, 0.16691527084913105, 0.1847611862467602, 0.20171417447272688, 0.21635258331662044, 0.2347398529527709, 0.25167645717738196, 0.2665097671560943, 0.2848386688856408, 0.3014117534039542, 0.3169062255183235, 0.33472927164984867, 0.35154572658939287, 0.36632715398445725, 0.3846608343301341, 0.40134860679972917, 0.416790172283072, 0.43474394897930324, 0.4516457372228615, 0.46633910067612305, 0.4848178475513123, 0.5012270922306925, 0.5168830148759298, 0.5346913836547174, 0.5516047772252932, 0.5663445619866252, 0.584573111787904, 0.6013032094924711, 0.6168161135865375, 0.6344121732399799, 0.651615358539857, 0.6663667486282066, 0.6846420610090718, 0.7013021854800172, 0.7168294255970977, 0.7344828291679733, 0.7515866865869612]
7	米饭	False	inanimate	animate	left	1.427	[0.0, -1.0, -1.0, -1.0, -1.0, -1.0, -1.0, -2.0, -2.0, -2.0, -3.0, -4.0, -6.0, -7.0, -9.0, -10.0, -15.0, -28.0, -35.0, -70.0, -110.0, -157.0, -215.0, -283.0, -358.0, -442.0, -569.0, -612.0, -723.0, -760.0, -823.0, -878.0, -894.0, -896.0, -896.0, -896.0, -896.0, -896.0, -896.0, -896.0, -896.0, -897.0, -897.0, -897.0, -897.0, -897.0, -897.0, -897.0, -879.0, -804.0, -688.0, -523.0, -192.0, -78.0, 162.0, 507.0, 669.0, 737.0, 745.0, 745.0, 745.0, 746.0, 732.0, 701.0, 642.0, 542.0, 511.0, 405.0, 320.0, 206.0, 79.0, -41.0, -163.0, -282.0, -479.0, -547.0, -663.0, -780.0, -806.0, -866.0, -890.0, -910.0, -922.0, -933.0, -938.0, -939.0]	[-490.0, -501.0, -503.0, -503.0, -503.0, -504.0, -504.0, -504.0, -504.0, -504.0, -505.0, -505.0, -505.0, -505.0, -505.0, -505.0, -503.0, -493.0, -486.0, -445.0, -397.0, -334.0, -252.0, -162.0, -71.0, 21.0, 146.0, 191.0, 304.0, 337.0, 398.0, 446.0, 457.0, 459.0, 459.0, 459.0, 459.0, 459.0, 459.0, 459.0, 459.0, 459.0, 459.0, 459.0, 459.0, 459.0, 459.0, 459.0, 460.0, 447.0, 412.0, 368.0, 316.0, 300.0, 297.0, 324.0, 350.0, 358.0, 358.0, 358.0, 358.0, 363.0, 371.0, 382.0, 395.0, 410.0, 415.0, 434.0, 453.0, 468.0, 485.0, 493.0, 493.0, 493.0, 493.0, 493.0, 493.0, 501.0, 506.0, 517.0, 521.0, 527.0, 529.0, 530.0, 531.0, 531.0]	[0.011201697052456439, 0.017278449202422053, 0.022708375239744782, 0.03915994521230459, 0.055559632543008775, 0.07095307006966323, 0.08871877222554758, 0.10565776581643149, 0.12056173174642026, 0.13908758258912712, 0.15553334989817813, 0.17243752744980156, 0.18866996164433658, 0.20567073643906042, 0.22066242498112842, 0.23894763604039326, 0.2556436004815623, 0.27083735819905996, 0.28874027624260634, 0.30564479512395337, 0.3208150008576922, 0.33900122536579147, 0.35553573921788484, 0.3708854861324653, 0.3886890762951225, 0.40569121640874073, 0.42060371569823474, 0.4389520733966492, 0.4554128593299538, 0.47090255276998505, 0.48870580160291865, 0.5055772112100385, 0.5207156729302369, 0.5388732254505157, 0.5553835047176108, 0.5709964193520136, 0.5886999989161268, 0.6056772217852995, 0.6206665209610946, 0.6388995081069879, 0.6554555259644985, 0.6709308834397234, 0.6884856417891569, 0.70539664599346, 0.7206668623257428, 0.7388861961080693, 0.7551831422024406, 0.770992323406972, 0.7885173857794143, 0.8054809552850202, 0.820619075675495, 0.8390377479954623, 0.8554517712909728, 0.8709588727215305, 0.8885795083479024, 0.9056150991818868, 0.9206904143211432, 0.9390039559802972, 0.9554947792785242, 0.9709807180333883, 0.9885006604599766, 1.0055225979303941, 1.0206951929721981, 1.0389814280206338, 1.0554104699986055, 1.0708987981197424, 1.0885525430785492, 1.1057154510635883, 1.120540910458658, 1.1392299184808508, 1.155472933955025, 1.1710158753558062, 1.1886365109821782, 1.205636944505386, 1.2206890489906073, 1.2388913161121309, 1.2555241339141503, 1.2709363447502255, 1.2887255988898687, 1.3056874617468566, 1.3206736889551394, 1.3389780147117563, 1.35550570191117, 1.3710250913281925, 1.3889539507217705, 1.4055871098535135]
8	老鹰	True	inanimate	animate	right	1.15	[0.0, -1.0, -1.0, -1.0, -1.0, -1.0, -1.0, -1.0, -1.0, -1.0, -1.0, -1.0, -1.0, -1.0, -1.0, -1.0, -1.0, -1.0, -2.0, -4.0, -10.0, -18.0, -56.0, -71.0, -106.0, -151.0, -231.0, -263.0, -361.0, -426.0, -489.0, -542.0, -581.0, -618.0, -654.0, -663.0, -676.0, -688.0, -705.0, -709.0, -713.0, -713.0, -713.0, -710.0, -681.0, -611.0, -510.0, -393.0, -249.0, -101.0, 104.0, 148.0, 189.0, 191.0, 191.0, 196.0, 213.0, 246.0, 308.0, 403.0, 519.0, 709.0, 807.0, 842.0, 890.0, 903.0, 909.0, 911.0, 911.0, 911.0]	[-490.0, -497.0, -500.0, -500.0, -501.0, -501.0, -501.0, -501.0, -501.0, -501.0, -501.0, -501.0, -501.0, -501.0, -501.0, -501.0, -501.0, -500.0, -492.0, -478.0, -458.0, -431.0, -360.0, -331.0, -270.0, -200.0, -98.0, -64.0, 5.0, 50.0, 95.0, 134.0, 165.0, 194.0, 227.0, 233.0, 246.0, 254.0, 266.0, 267.0, 272.0, 272.0, 274.0, 283.0, 300.0, 329.0, 368.0, 410.0, 450.0, 471.0, 503.0, 506.0, 513.0, 514.0, 514.0, 516.0, 521.0, 527.0, 535.0, 540.0, 540.0, 540.0, 540.0, 540.0, 538.0, 537.0, 537.0, 537.0, 537.0, 537.0]	[0.013739337620791048, 0.018989722477272153, 0.0259208312490955, 0.044368175498675555, 0.06072383088758215, 0.07619543367763981, 0.09406455972930416, 0.11094484402565286, 0.125662783451844, 0.14401421311777085, 0.1607716174912639, 0.17618041503010318, 0.19415023433975875, 0.21097624662797898, 0.22571091138524935, 0.2440009011188522, 0.26058900431962684, 0.27625072962837294, 0.2941345330327749, 0.3109997986466624, 0.32565493282163516, 0.3440916957333684, 0.3607538681826554, 0.37613092170795426, 0.39404885843396187, 0.41092538804514334, 0.4256767781334929, 0.4438889438752085, 0.4606965242419392, 0.47623059095349163, 0.49412190372822806, 0.5109311906853691, 0.5256781434291042, 0.5441452850354835, 0.5605330257094465, 0.5762411722680554, 0.5939526025322266, 0.6108642893959768, 0.6256747301085852, 0.6438892852165736, 0.6606139216455631, 0.6761357003706507, 0.6939778611413203, 0.7109482573578134, 0.7257443620474078, 0.7439995357999578, 0.760662390908692, 0.7762227402999997, 0.7940000477829017, 0.8108482467359863, 0.8256853114580736, 0.844083845091518, 0.8603807911858894, 0.8758967672474682, 0.8940601224312559, 0.9109421133762226, 0.9257880526711233, 0.9440503944060765, 0.9606197242974304, 0.976177001663018, 0.99397513049189, 1.0108823800692335, 1.0256559568224475, 1.0440913544152863, 1.0605777403106913, 1.0761715403641574, 1.093971717171371, 1.1108960334095173, 1.125688724743668, 1.1440790664055385]
9	雪花	False	inanimate	animate	left	0.9	[0.0, 0.0, 0.0, 0.0, -2.0, -3.0, -3.0, -3.0, -3.0, -3.0, -3.0, -3.0, -3.0, -4.0, -4.0, -4.0, -4.0, -4.0, -5.0, -14.0, -21.0, -44.0, -86.0, -166.0, -194.0, -320.0, -415.0, -494.0, -549.0, -583.0, -604.0, -616.0, -622.0, -624.0, -627.0, -628.0, -629.0, -629.0, -629.0, -629.0, -629.0, -629.0, -631.0, -639.0, -653.0, -674.0, -696.0, -737.0, -747.0, -759.0, -759.0, -759.0, -759.0, -759.0, -759.0]	[-490.0, -490.0, -490.0, -490.0, -490.0, -490.0, -490.0, -490.0, -490.0, -490.0, -490.0, -490.0, -490.0, -490.0, -490.0, -490.0, -490.0, -490.0, -489.0, -468.0, -457.0, -425.0, -367.0, -253.0, -217.0, -58.0, 50.0, 139.0, 203.0, 252.0, 287.0, 310.0, 325.0, 330.0, 334.0, 337.0, 338.0, 338.0, 338.0, 338.0, 338.0, 338.0, 339.0, 343.0, 349.0, 358.0, 368.0, 384.0, 389.0, 395.0, 395.0, 395.0, 395.0, 395.0, 395.0]	[0.01330208993749693, 0.018292720371391624, 0.024550037691369653, 0.043013765942305326, 0.060016930103302, 0.07481610681861639, 0.09305489656981081, 0.10956790647469461, 0.12501663994044065, 0.1429912379826419, 0.15980666893301532, 0.1746543149347417, 0.19303646456683055, 0.20961535174865276, 0.22501322661992162, 0.24301786191063002, 0.2599418368190527, 0.2748157655005343, 0.29319347778800875, 0.3095156825147569, 0.3249968426534906, 0.3429731472861022, 0.35988654085667804, 0.3747720748651773, 0.39295249665156007, 0.40936822665389627, 0.42499445332214236, 0.44273899286054075, 0.4598595755524002, 0.4748048427863978, 0.4932303417590447, 0.5092832347145304, 0.5249961600056849, 0.5429164860397577, 0.5599356928141788, 0.5747512535308488, 0.5929559100186452, 0.6093054213561118, 0.6250221012742259, 0.6428929340327159, 0.6598192982492037, 0.6746676269103773, 0.6930641125654802, 0.7093545733368956, 0.7249944533105008, 0.7429038566770032, 0.7598189569544047, 0.7748232748126611, 0.7930303206085227, 0.8092866480583325, 0.8249555413494818, 0.8428874727105722, 0.8598411435959861, 0.874807232117746, 0.8930917605175637]
10	橡皮	False	inanimate	animate	left	0.78	[0.0, 0.0, 0.0, 0.0, 0.0, 0.0, 0.0, 0.0, 0.0, 0.0, 0.0, 0.0, 0.0, 0.0, 0.0, 0.0, 0.0, 0.0, 0.0, 0.0, 0.0, 0.0, 0.0, 0.0, 0.0, 0.0, 0.0, -4.0, -16.0, -34.0, -60.0, -106.0, -173.0, -266.0, -341.0, -412.0, -464.0, -510.0, -555.0, -595.0, -652.0, -687.0, -719.0, -741.0, -753.0, -756.0, -756.0, -756.0]	[-490.0, -490.0, -490.0, -490.0, -490.0, -490.0, -490.0, -490.0, -490.0, -490.0, -490.0, -490.0, -490.0, -490.0, -490.0, -490.0, -490.0, -490.0, -490.0, -490.0, -490.0, -490.0, -490.0, -490.0, -490.0, -490.0, -484.0, -473.0, -444.0, -409.0, -354.0, -277.0, -177.0, -69.0, 41.0, 137.0, 218.0, 276.0, 330.0, 371.0, 419.0, 448.0, 475.0, 494.0, 506.0, 511.0, 511.0, 511.0]	[0.014407667622435838, 0.02039055316708982, 0.027205608726944774, 0.045793923491146415, 0.061889483127743006, 0.07733138994080946, 0.09541692113270983, 0.1123596693505533, 0.12721414200495929, 0.14541777450358495, 0.1620840429677628, 0.17737473919987679, 0.1953360252082348, 0.21218183485325426, 0.2271892247372307, 0.2454102651681751, 0.2619464857270941, 0.277501032454893, 0.29543467046460137, 0.3123002774082124, 0.32707351283170283, 0.3453034279518761, 0.36185671511339024, 0.37746382714249194, 0.39542955049546435, 0.4122521494864486, 0.42720629135146737, 0.4455266597215086, 0.4621072536101565, 0.4774604138219729, 0.4953336358885281, 0.5122207468375564, 0.5271919553633779, 0.5455399717320688, 0.5618628591182642, 0.577465875132475, 0.5953022332396358, 0.6122634134371765, 0.6271919553983025, 0.6453979772049934, 0.6616737606236711, 0.6773740565404296, 0.6950315561844036, 0.7120565656223334, 0.7271656727534719, 0.7454512251424603, 0.7619116697460413, 0.7774730431265198]
11	公鸡	True	animate	inanimate	left	0.736	[0.0, 0.0, 0.0, 0.0, 0.0, 0.0, 0.0, 0.0, 0.0, 0.0, 0.0, 0.0, 1.0, 1.0, 1.0, 0.0, -1.0, -2.0, -4.0, -9.0, -25.0, -33.0, -90.0, -150.0, -237.0, -341.0, -454.0, -572.0, -676.0, -767.0, -842.0, -898.0, -946.0, -954.0, -960.0, -960.0, -960.0, -960.0, -960.0, -960.0, -959.0, -959.0, -959.0, -959.0]	[-490.0, -490.0, -490.0, -490.0, -490.0, -490.0, -490.0, -490.0, -490.0, -490.0, -490.0, -490.0, -490.0, -489.0, -488.0, -486.0, -483.0, -480.0, -471.0, -453.0, -415.0, -396.0, -315.0, -245.0, -162.0, -76.0, 17.0, 111.0, 195.0, 272.0, 337.0, 383.0, 430.0, 439.0, 456.0, 459.0, 461.0, 466.0, 471.0, 474.0, 477.0, 479.0, 479.0, 479.0]	[0.014060361310839653, 0.020744003588333726, 0.026337086805142462, 0.044844505726359785, 0.06113155314233154, 0.07657175330678001, 0.09441562072606757, 0.11129931831965223, 0.12634357216302305, 0.14465540717355907, 0.16120425710687414, 0.17656492663081735, 0.19441118341637775, 0.21135359030449763, 0.22622274025343359, 0.24465472454903647, 0.26112301979446784, 0.2765676573035307, 0.2942900101770647, 0.3112556277192198, 0.3263135348679498, 0.3447448364458978, 0.36114042781991884, 0.3765659506316297, 0.3941937542404048, 0.4112447050283663, 0.4263568841270171, 0.44456358859315515, 0.46103393187513575, 0.47655707597732544, 0.494123098324053, 0.5112928330199793, 0.5262596042593941, 0.5446161539293826, 0.5610574838938192, 0.576541033340618, 0.5941036423319019, 0.6112672330345958, 0.6263589321752079, 0.6445577859412879, 0.6610370039124973, 0.6765686813159846, 0.6941097863600589, 0.7112156917573884]
12	蜻蜓	True	inanimate	animate	right	1.005	[0.0, 0.0, 0.0, 0.0, 0.0, 0.0, 0.0, 0.0, 0.0, 0.0, -3.0, -4.0, -7.0, -8.0, -8.0, -11.0, -12.0, -15.0, -17.0, -21.0, -31.0, -56.0, -128.0, -196.0, -278.0, -369.0, -474.0, -565.0, -622.0, -651.0, -661.0, -662.0, -662.0, -662.0, -662.0, -662.0, -665.0, -668.0, -669.0, -669.0, -669.0, -669.0, -669.0, -669.0, -669.0, -662.0, -570.0, -449.0, -286.0, -106.0, 102.0, 312.0, 488.0, 636.0, 725.0, 755.0, 769.0, 772.0, 774.0, 775.0, 775.0]	[-490.0, -490.0, -490.0, -490.0, -490.0, -490.0, -490.0, -490.0, -490.0, -490.0, -486.0, -481.0, -476.0, -474.0, -471.0, -465.0, -460.0, -450.0, -438.0, -415.0, -382.0, -328.0, -210.0, -125.0, -31.0, 65.0, 159.0, 239.0, 290.0, 322.0, 343.0, 358.0, 378.0, 385.0, 404.0, 418.0, 427.0, 431.0, 432.0, 432.0, 432.0, 432.0, 432.0, 432.0, 432.0, 432.0, 412.0, 398.0, 372.0, 347.0, 325.0, 325.0, 323.0, 323.0, 323.0, 323.0, 330.0, 334.0, 342.0, 345.0, 347.0]	[0.013849076232872903, 0.02049483056180179, 0.025808020669501275, 0.04451238870387897, 0.060636620270088315, 0.07606214314000681, 0.09417327435221523, 0.11110953718889505, 0.12599199917167425, 0.14424444228643551, 0.16098409733967856, 0.17617410037200898, 0.19410807971144095, 0.2109859746415168, 0.2259356792201288, 0.24435332749271765, 0.26074516418157145, 0.27620140701765195, 0.2941343623679131, 0.3110067959642038, 0.325974932522513, 0.3442724315682426, 0.36078919615829363, 0.3761457697255537, 0.3940462984610349, 0.4109880226314999, 0.42601111385738477, 0.4442369329626672, 0.46048848173813894, 0.4761768309981562, 0.49406677845399827, 0.5109535480150953, 0.5259800525382161, 0.5441993863205425, 0.5604543484514579, 0.5761928737047128, 0.5940408371388912, 0.6109631053404883, 0.6259585485677235, 0.6441461383365095, 0.6604720977484249, 0.6761573750409298, 0.6940265011508018, 0.7110184013145044, 0.7259500152431428, 0.7442802822333761, 0.7607451641815715, 0.7762041376554407, 0.7940125064924359, 0.8110552652506158, 0.8260114551521838, 0.8443533275276423, 0.8605540177086368, 0.8762536309659481, 0.8937831306830049, 0.9109743693261407, 0.9259803938330151, 0.9441823196830228, 0.9607946574687958, 0.9761481590685435, 0.9939957811729982]
13	抽屉	False	animate	inanimate	left	0.667	[0.0, 0.0, 0.0, 0.0, 0.0, 0.0, 0.0, 0.0, 0.0, 0.0, 0.0, 0.0, 0.0, 0.0, 0.0, 0.0, 0.0, 0.0, -5.0, -19.0, -62.0, -79.0, -122.0, -177.0, -238.0, -345.0, -414.0, -446.0, -534.0, -581.0, -612.0, -628.0, -641.0, -648.0, -652.0, -656.0, -668.0, -683.0, -694.0, -695.0, -695.0]	[-490.0, -490.0, -490.0, -490.0, -490.0, -490.0, -490.0, -490.0, -490.0, -490.0, -490.0, -490.0, -490.0, -490.0, -490.0, -490.0, -490.0, -490.0, -486.0, -467.0, -405.0, -373.0, -281.0, -180.0, -76.0, 71.0, 154.0, 201.0, 301.0, 355.0, 393.0, 417.0, 436.0, 444.0, 448.0, 448.0, 448.0, 448.0, 445.0, 445.0, 445.0]	[0.0075301481410861015, 0.011727861943654716, 0.015870621020440012, 0.03198085795156658, 0.048245377431157976, 0.06373984954552725, 0.08165983424987644, 0.09858141979202628, 0.11357652168953791, 0.13173168484354392, 0.14837269467534497, 0.16378490551142022, 0.181584058329463, 0.19850461988244206, 0.21356047899462283, 0.2317149595473893, 0.24832047068048269, 0.263776030857116, 0.2815983942709863, 0.2985268065240234, 0.31340824445942417, 0.33173817017814144, 0.34829828405054286, 0.3637060575420037, 0.3816137542598881, 0.3984694625833072, 0.413605876325164, 0.4318344260682352, 0.44800576160196215, 0.4638197214808315, 0.48159395693801343, 0.4985377291450277, 0.5133334925631061, 0.5317781061166897, 0.5482149987947196, 0.5637849054764956, 0.5815233010216616, 0.5984175799530931, 0.613297993899323, 0.6314838770776987, 0.6482327480916865]
14	红色	False	animate	inanimate	right	1.2	[0.0, 0.0, 0.0, 0.0, 0.0, 0.0, 0.0, 1.0, 1.0, 0.0, -2.0, -4.0, -4.0, -4.0, -5.0, -7.0, -9.0, -10.0, -10.0, -10.0, -10.0, -10.0, -10.0, -14.0, -32.0, -69.0, -116.0, -185.0, -301.0, -341.0, -410.0, -460.0, -504.0, -514.0, -527.0, -532.0, -538.0, -555.0, -578.0, -604.0, -627.0, -646.0, -662.0, -673.0, -674.0, -674.0, -672.0, -666.0, -666.0, -666.0, -666.0, -666.0, -666.0, -670.0, -680.0, -683.0, -683.0, -683.0, -638.0, -532.0, -386.0, -189.0, 43.0, 278.0, 491.0, 653.0, 780.0, 878.0, 946.0, 959.0, 959.0, 959.0, 959.0]	[-490.0, -490.0, -490.0, -490.0, -490.0, -490.0, -490.0, -490.0, -491.0, -491.0, -492.0, -493.0, -493.0, -493.0, -494.0, -496.0, -499.0, -501.0, -502.0, -502.0, -502.0, -502.0, -502.0, -498.0, -466.0, -407.0, -332.0, -236.0, -79.0, -22.0, 74.0, 145.0, 212.0, 231.0, 260.0, 269.0, 276.0, 287.0, 298.0, 312.0, 330.0, 344.0, 357.0, 365.0, 366.0, 366.0, 371.0, 374.0, 378.0, 379.0, 379.0, 379.0, 379.0, 383.0, 388.0, 389.0, 389.0, 391.0, 402.0, 404.0, 404.0, 404.0, 398.0, 398.0, 398.0, 401.0, 420.0, 447.0, 468.0, 489.0, 506.0, 511.0, 511.0]	[0.013581983046606183, 0.018951834412291646, 0.02512279449729249, 0.043839109188411385, 0.06019237526925281, 0.07573872996727005, 0.09369592001894489, 0.11055845493683591, 0.1253467089845799, 0.14374251198023558, 0.16015994863118976, 0.17569162603467703, 0.19361126940930262, 0.21053695096634328, 0.22554843680700287, 0.24389884248375893, 0.26028931385371834, 0.2757776419748552, 0.29371298663318157, 0.3105850788997486, 0.32565390871604905, 0.3438240905525163, 0.3604528123396449, 0.37578788195969537, 0.3937119626207277, 0.410605558892712, 0.4254992848727852, 0.4438292105332948, 0.4602889724774286, 0.4757684259675443, 0.4936348213814199, 0.5106164815369993, 0.5255586768034846, 0.5437438772642054, 0.5602845351677388, 0.5757049380335957, 0.5935791840893216, 0.6104881403152831, 0.6254979195073247, 0.6437841545557603, 0.6600708607002161, 0.6757390713319182, 0.693583621410653, 0.7106707534985617, 0.7255238608340733, 0.7437725492636673, 0.7601531219552271, 0.775773887289688, 0.7935972747509368, 0.8105806416133419, 0.8255771087715402, 0.8437554825795814, 0.860170871252194, 0.8757725219475105, 0.8935726987547241, 0.9106031695846468, 0.9253299836418591, 0.9437510452698916, 0.960149708611425, 0.9757267833338119, 0.9934549388708547, 1.0105082789668813, 1.0255337595008314, 1.043832965195179, 1.0601278633112088, 1.075749993964564, 1.093587034731172, 1.110626380192116, 1.1254924581735395, 1.1438029279233888, 1.1604425723780878, 1.1757909539155662, 1.1936645173700526]
15	海豚	True	animate	inanimate	left	0.831	[0.0, 0.0, 0.0, 0.0, 0.0, 0.0, 0.0, 0.0, 0.0, 0.0, 0.0, 0.0, 0.0, 0.0, 0.0, 0.0, -2.0, -6.0, -13.0, -26.0, -47.0, -77.0, -118.0, -166.0, -227.0, -300.0, -388.0, -484.0, -621.0, -689.0, -733.0, -749.0, -755.0, -756.0, -757.0, -757.0, -757.0, -758.0, -759.0, -759.0, -760.0, -760.0, -760.0, -760.0, -760.0, -760.0, -760.0, -758.0, -757.0, -756.0, -756.0]	[-490.0, -490.0, -490.0, -490.0, -490.0, -490.0, -490.0, -490.0, -490.0, -490.0, -490.0, -490.0, -490.0, -490.0, -490.0, -490.0, -486.0, -474.0, -457.0, -429.0, -388.0, -332.0, -260.0, -175.0, -91.0, -9.0, 80.0, 160.0, 261.0, 306.0, 338.0, 351.0, 356.0, 357.0, 358.0, 358.0, 360.0, 362.0, 371.0, 375.0, 383.0, 386.0, 386.0, 387.0, 388.0, 388.0, 390.0, 392.0, 393.0, 394.0, 394.0]	[0.01606006093788892, 0.021278019121382385, 0.03011581423925236, 0.0484187746187672, 0.06531168823130429, 0.08027607010444626, 0.09859507315559313, 0.11500875512138009, 0.1305062992614694, 0.148461441276595, 0.16532363486476243, 0.18019551550969481, 0.19849403854459524, 0.21510808303719386, 0.23050834727473557, 0.2483187640318647, 0.2652857468929142, 0.2800999422906898, 0.2986104331212118, 0.31498315517092124, 0.3305281445500441, 0.3482832654262893, 0.36533660552231595, 0.38024330214830115, 0.3985213452251628, 0.4150036351638846, 0.4304431526688859, 0.44811225758166984, 0.4651597950141877, 0.4802337448345497, 0.49851895589381456, 0.5149561898433603, 0.5305216592387296, 0.5481535588623956, 0.5651925629936159, 0.5801999528775923, 0.5985841504880227, 0.6149483391782269, 0.6304561232682317, 0.6484153612982482, 0.6651905149919912, 0.6800016383640468, 0.698257494776044, 0.7149380992050283, 0.7304479313315824, 0.7481190842227079, 0.7651669629849494, 0.780330000736285, 0.7987053237156942, 0.814943901845254, 0.8305233659339137]
16	鸡蛋	False	animate	inanimate	right	1.267	[0.0, 1.0, 1.0, 1.0, 2.0, 2.0, 3.0, 3.0, 3.0, 3.0, 3.0, 3.0, 3.0, 3.0, 3.0, 3.0, 3.0, 3.0, 3.0, 3.0, 3.0, 4.0, 4.0, 9.0, 9.0, 10.0, 10.0, 8.0, -14.0, -53.0, -111.0, -179.0, -252.0, -320.0, -378.0, -428.0, -467.0, -495.0, -506.0, -514.0, -523.0, -532.0, -538.0, -545.0, -549.0, -554.0, -561.0, -570.0, -585.0, -620.0, -648.0, -677.0, -694.0, -701.0, -702.0, -703.0, -704.0, -705.0, -705.0, -705.0, -701.0, -666.0, -612.0, -526.0, -428.0, -309.0, -184.0, -34.0, 227.0, 316.0, 481.0, 641.0, 781.0, 943.0, 959.0, 959.0, 959.0]	[-490.0, -492.0, -492.0, -492.0, -493.0, -493.0, -494.0, -494.0, -494.0, -494.0, -494.0, -494.0, -495.0, -498.0, -500.0, -504.0, -507.0, -508.0, -510.0, -510.0, -510.0, -510.0, -510.0, -502.0, -498.0, -479.0, -458.0, -422.0, -364.0, -288.0, -196.0, -103.0, -15.0, 65.0, 133.0, 192.0, 235.0, 275.0, 296.0, 315.0, 333.0, 349.0, 362.0, 372.0, 380.0, 386.0, 392.0, 396.0, 397.0, 398.0, 401.0, 408.0, 414.0, 418.0, 419.0, 419.0, 419.0, 421.0, 421.0, 425.0, 428.0, 435.0, 440.0, 451.0, 466.0, 482.0, 501.0, 533.0, 540.0, 540.0, 540.0, 540.0, 540.0, 540.0, 540.0, 540.0, 540.0]	[0.014517576899379492, 0.020508654473815113, 0.027588925731834024, 0.04606733133550733, 0.062450975994579494, 0.07801712804939598, 0.09574699023505673, 0.11264536518137902, 0.1275841470924206, 0.14597721939207986, 0.16247145598754287, 0.17784509621560574, 0.19582617952255532, 0.21262249583378434, 0.22760906437179074, 0.24598575272830203, 0.2624666772899218, 0.27787103748414665, 0.29578248888719827, 0.3126303465105593, 0.3276059923809953, 0.34590076078893617, 0.36245609598699957, 0.3777894589002244, 0.39575518225319684, 0.4125788052333519, 0.4275414804578759, 0.44595025409944355, 0.4623236587503925, 0.4776826216839254, 0.49559441435849294, 0.5124903999385424, 0.5276629950385541, 0.5458519501844421, 0.5623687147162855, 0.577811986906454, 0.5957486969418824, 0.6125596905476414, 0.6275844884221442, 0.6458952994435094, 0.6623120534350164, 0.6779058534884825, 0.6956357156741433, 0.7125501332338899, 0.7276981523027644, 0.7459901900729164, 0.7622683627996594, 0.7778048188774846, 0.7955425317632034, 0.8125613972661085, 0.8274005099083297, 0.8458089422201738, 0.8623072747723199, 0.8779178001568653, 0.895654147665482, 0.9125395519076847, 0.9276452456833795, 0.9459519607480615, 0.9620768749737181, 0.9777915069134906, 0.9954281852114946, 1.0125255572493188, 1.0276216937345453, 1.045813379518222, 1.062398069363553, 1.0779355494305491, 1.0955671077244915, 1.1126569705083966, 1.1276155497180298, 1.145889155450277, 1.1623932907241397, 1.177806184219662, 1.1958231074968353, 1.2125910932081752, 1.2275851710583083, 1.2459912140620872, 1.2624823786318302]
17	小鸟	True	inanimate	animate	left	0.899	[0.0, 0.0, 0.0, 0.0, 0.0, -2.0, -4.0, -8.0, -11.0, -14.0, -14.0, -14.0, -14.0, -14.0, -14.0, -14.0, -14.0, -12.0, -12.0, -12.0, -12.0, -31.0, -112.0, -163.0, -286.0, -493.0, -615.0, -677.0, -846.0, -939.0, -960.0, -960.0, -960.0, -958.0, -938.0, -913.0, -896.0, -884.0, -878.0, -874.0, -858.0, -843.0, -824.0, -804.0, -789.0, -777.0, -770.0, -769.0, -769.0, -769.0, -769.0, -769.0, -769.0, -769.0]	[-490.0, -490.0, -490.0, -490.0, -490.0, -491.0, -492.0, -493.0, -495.0, -496.0, -496.0, -496.0, -496.0, -496.0, -496.0, -496.0, -496.0, -495.0, -495.0, -495.0, -495.0, -489.0, -472.0, -460.0, -435.0, -361.0, -293.0, -255.0, -103.0, 7.0, 116.0, 217.0, 295.0, 345.0, 396.0, 434.0, 455.0, 466.0, 471.0, 476.0, 492.0, 502.0, 514.0, 522.0, 527.0, 530.0, 531.0, 531.0, 531.0, 531.0, 531.0, 531.0, 531.0, 531.0]	[0.0007273806841112673, 0.005567824526224285, 0.01602763426490128, 0.034706743666902184, 0.051147049642167985, 0.06658076448366046, 0.08443077589618042, 0.10132573748705909, 0.11621468479279429, 0.13447975722374395, 0.15108492702711374, 0.16653604985913262, 0.18440551729872823, 0.20123016426805407, 0.2164007113315165, 0.23451764514902607, 0.25106649508234113, 0.26651727652642876, 0.28430994402151555, 0.301314132171683, 0.31618908484233543, 0.3345101358718239, 0.35110540699679404, 0.36649406590731815, 0.38438401330495253, 0.40119739627698436, 0.41596687701530755, 0.4343664346379228, 0.45079172193072736, 0.46650737785967067, 0.4842904880642891, 0.5011588256456889, 0.5160211489419453, 0.5344149039592594, 0.5509108472033404, 0.5664302366203628, 0.584295266715344, 0.6011468789656647, 0.6159818956512026, 0.6343626799643971, 0.650943273853045, 0.6664933832362294, 0.684317794686649, 0.7013213001773693, 0.7160576715832576, 0.7344445998896845, 0.7509460044675507, 0.7666510791168548, 0.7842945840093307, 0.801309353497345, 0.816068594227545, 0.8344002265948802, 0.8507412046892568, 0.8664927005302161]
18	鸽子	True	animate	inanimate	left	1.075	[0.0, 0.0, 0.0, 0.0, 0.0, 0.0, 0.0, -1.0, -3.0, -3.0, -3.0, -3.0, -3.0, -3.0, -3.0, -3.0, -1.0, 3.0, 9.0, 16.0, 22.0, 22.0, 22.0, 9.0, -31.0, -82.0, -145.0, -214.0, -299.0, -384.0, -463.0, -529.0, -549.0, -557.0, -571.0, -578.0, -581.0, -583.0, -586.0, -586.0, -586.0, -586.0, -586.0, -594.0, -612.0, -620.0, -651.0, -682.0, -720.0, -748.0, -761.0, -766.0, -766.0, -766.0, -766.0, -766.0, -766.0, -766.0, -766.0, -766.0, -766.0, -767.0, -767.0, -767.0, -767.0]	[-490.0, -490.0, -490.0, -490.0, -490.0, -490.0, -489.0, -483.0, -480.0, -478.0, -474.0, -472.0, -467.0, -463.0, -457.0, -451.0, -432.0, -422.0, -399.0, -354.0, -313.0, -291.0, -212.0, -143.0, -64.0, 10.0, 85.0, 156.0, 215.0, 265.0, 301.0, 316.0, 316.0, 316.0, 308.0, 303.0, 301.0, 300.0, 299.0, 299.0, 299.0, 299.0, 298.0, 306.0, 331.0, 342.0, 386.0, 421.0, 453.0, 471.0, 482.0, 484.0, 484.0, 484.0, 484.0, 484.0, 484.0, 484.0, 484.0, 484.0, 482.0, 480.0, 480.0, 480.0, 480.0]	[0.01639883400639519, 0.02114814193919301, 0.030897978984285146, 0.04938560054870322, 0.06573886657133698, 0.08113878942094743, 0.09887479559984058, 0.11589536775136366, 0.1309515682514757, 0.14917704602703452, 0.16571702127112076, 0.1811538080801256, 0.1990557021345012, 0.21591721306322142, 0.23066518985433504, 0.24912209139438346, 0.2657136079506017, 0.28110431478125975, 0.2989888008451089, 0.3158206158550456, 0.3308884216239676, 0.3490538247860968, 0.3656688932678662, 0.3811739467200823, 0.3988693343126215, 0.41592472238698974, 0.4307737337658182, 0.44914871541550383, 0.4656586532946676, 0.4811951093724929, 0.4989806088851765, 0.5158567971084267, 0.5308423416572623, 0.5491173127666116, 0.5655920933349989, 0.5812285600113682, 0.5989208755781874, 0.6158445091568865, 0.6309345015906729, 0.6490295901894569, 0.6656095013604499, 0.6811360587598756, 0.6989584222319536, 0.7158557731308974, 0.730776805721689, 0.7490374408080243, 0.7656351012992673, 0.7811893066973425, 0.7989201929303817, 0.8160230263019912, 0.8310379254980944, 0.8491596380481496, 0.8653722748858854, 0.8810930508188903, 0.8989461342571303, 0.9158830797532573, 0.9309355256264098, 0.949157590046525, 0.965637149347458, 0.9811903306981549, 0.9989829981932417, 1.0159021944273263, 1.0309921868611127, 1.049060651450418, 1.0656364666647278]
19	绳子	False	animate	inanimate	right	1.016	[0.0, -1.0, -1.0, -1.0, -3.0, -3.0, -3.0, -3.0, -3.0, -3.0, -3.0, -3.0, -3.0, -3.0, -3.0, -3.0, -3.0, -3.0, -3.0, -3.0, -3.0, 3.0, 13.0, 25.0, 36.0, 41.0, 47.0, 47.0, 17.0, -25.0, -75.0, -148.0, -225.0, -281.0, -324.0, -352.0, -376.0, -399.0, -432.0, -444.0, -489.0, -515.0, -530.0, -535.0, -537.0, -537.0, -537.0, -531.0, -472.0, -348.0, -70.0, 38.0, 337.0, 505.0, 632.0, 728.0, 792.0, 841.0, 862.0, 870.0, 873.0, 873.0]	[-490.0, -494.0, -495.0, -495.0, -496.0, -496.0, -496.0, -496.0, -496.0, -496.0, -496.0, -496.0, -496.0, -496.0, -496.0, -496.0, -496.0, -496.0, -496.0, -496.0, -496.0, -491.0, -476.0, -449.0, -393.0, -335.0, -252.0, -154.0, -18.0, 84.0, 179.0, 260.0, 316.0, 341.0, 351.0, 356.0, 357.0, 357.0, 360.0, 363.0, 374.0, 379.0, 379.0, 379.0, 379.0, 379.0, 376.0, 371.0, 368.0, 368.0, 368.0, 368.0, 368.0, 393.0, 429.0, 464.0, 492.0, 524.0, 540.0, 540.0, 540.0, 540.0]	[0.012167840206529945, 0.0162925086915493, 0.02230713824974373, 0.04052647203207016, 0.05757264414569363, 0.07254624203778803, 0.09090620506322011, 0.1072932630777359, 0.12275530851911753, 0.1405251066898927, 0.1575634281616658, 0.17225679161492735, 0.19073349051177502, 0.20754516683518887, 0.22236687154509127, 0.24077018379466608, 0.2572220950969495, 0.27274592185858637, 0.29055668000364676, 0.3075011348701082, 0.32262799132149667, 0.34082718641730025, 0.3574951615300961, 0.3728117991704494, 0.39049762941431254, 0.40747075621038675, 0.4225720126996748, 0.4408364024129696, 0.4572408684180118, 0.4727544551715255, 0.4907249571988359, 0.5074670015601441, 0.5226044393493794, 0.540801927796565, 0.5572599830920808, 0.5727588925510645, 0.5906505465973169, 0.6075103508774191, 0.6225546047207899, 0.6411323382053524, 0.657283193722833, 0.6727879058453254, 0.6905771599849686, 0.7075386815122329, 0.7225238847313449, 0.740854834439233, 0.7572620310820639, 0.7727998524787836, 0.7905273253563792, 0.807474510918837, 0.822388716856949, 0.8407790584606119, 0.8571807938278653, 0.8727367058745585, 0.8905764773371629, 0.9075274175265804, 0.922614679322578, 0.9408889677142724, 0.9573558976408094, 0.9727619645418599, 0.9905928613152355, 1.0075673534884118]
20	护士	True	animate	inanimate	left	0.582	[0.0, 0.0, 0.0, 0.0, 0.0, 0.0, 0.0, 0.0, 0.0, 0.0, 0.0, 0.0, 0.0, 0.0, 0.0, -4.0, -14.0, -39.0, -75.0, -162.0, -203.0, -289.0, -385.0, -470.0, -537.0, -612.0, -647.0, -667.0, -679.0, -689.0, -698.0, -704.0, -711.0, -715.0, -717.0, -717.0]	[-490.0, -490.0, -490.0, -490.0, -490.0, -490.0, -490.0, -490.0, -490.0, -490.0, -490.0, -490.0, -490.0, -490.0, -490.0, -486.0, -463.0, -408.0, -319.0, -152.0, -82.0, 40.0, 157.0, 257.0, 339.0, 427.0, 469.0, 494.0, 511.0, 519.0, 522.0, 523.0, 523.0, 523.0, 523.0, 523.0]	[0.013498015177901834, 0.018754885357338935, 0.024900928081478924, 0.043291952402796596, 0.06025688728550449, 0.07507176528451964, 0.09341158962342888, 0.10995566082419828, 0.12534397840499878, 0.14308578724740073, 0.1600589141016826, 0.17514583456795663, 0.19343002163805068, 0.20990753290243447, 0.2252961917547509, 0.2432878563995473, 0.26009202341083437, 0.27513525320682675, 0.2934890722390264, 0.309870668919757, 0.3253757223719731, 0.3434124429477379, 0.3600357034592889, 0.37515470921061933, 0.39338155230507255, 0.4095760984928347, 0.4252736637718044, 0.4430956859141588, 0.46007256739540026, 0.4751253545982763, 0.49341329629532993, 0.5098184449598193, 0.5253374930471182, 0.543131867190823, 0.5601490260451101, 0.5751168212736957]
21	鸽子	True	inanimate	animate	left	0.731	[0.0, 0.0, 0.0, 0.0, 0.0, 0.0, 0.0, 0.0, 0.0, 0.0, 0.0, 0.0, 0.0, 0.0, 0.0, 0.0, 0.0, 0.0, 0.0, 0.0, 0.0, 0.0, 0.0, 0.0, -3.0, -20.0, -61.0, -121.0, -253.0, -303.0, -427.0, -619.0, -742.0, -793.0, -883.0, -896.0, -897.0, -898.0, -898.0, -900.0, -901.0, -901.0, -901.0, -901.0]	[-490.0, -490.0, -490.0, -490.0, -490.0, -490.0, -490.0, -490.0, -491.0, -491.0, -491.0, -491.0, -492.0, -494.0, -500.0, -508.0, -511.0, -511.0, -511.0, -511.0, -511.0, -511.0, -511.0, -501.0, -480.0, -440.0, -378.0, -294.0, -137.0, -77.0, 32.0, 196.0, 297.0, 334.0, 410.0, 423.0, 426.0, 427.0, 429.0, 433.0, 440.0, 441.0, 442.0, 442.0]	[0.008344910223968327, 0.013360799290239811, 0.01756704633589834, 0.0335864886874333, 0.05005649063969031, 0.06531783228274435, 0.08326478226808831, 0.10017817583866417, 0.11519887769827619, 0.13336359820095822, 0.15000119467731565, 0.16534821089589968, 0.18328628625022247, 0.20015121053438634, 0.21502411516848952, 0.2333601848804392, 0.2497448535868898, 0.2653608402470127, 0.28323576896218583, 0.3001194665557705, 0.31482989666983485, 0.3334089955314994, 0.3498619308229536, 0.3653290962683968, 0.3832982329186052, 0.40013550920411944, 0.41503469651797786, 0.43325027561513707, 0.4497786455322057, 0.4652468350250274, 0.48312722507398576, 0.5000331093324348, 0.5150971604743972, 0.5332649529445916, 0.5498062935075723, 0.5652990589733236, 0.5831541903899051, 0.6000860159401782, 0.6150370858376846, 0.6331673316890374, 0.6498660267679952, 0.6652072403812781, 0.6830896784667857, 0.7001204905682243]
22	青蛙	True	inanimate	animate	right	0.863	[0.0, 0.0, 0.0, 0.0, 0.0, 0.0, 0.0, 0.0, 0.0, 0.0, 0.0, 0.0, 2.0, 12.0, 24.0, 30.0, 49.0, 60.0, 67.0, 68.0, 67.0, 45.0, 3.0, -62.0, -136.0, -285.0, -392.0, -441.0, -560.0, -606.0, -625.0, -629.0, -629.0, -629.0, -626.0, -618.0, -600.0, -543.0, -468.0, -413.0, -162.0, 73.0, 338.0, 613.0, 877.0, 959.0, 959.0, 959.0, 959.0, 959.0, 954.0, 954.0]	[-490.0, -490.0, -490.0, -490.0, -490.0, -490.0, -490.0, -490.0, -490.0, -490.0, -490.0, -490.0, -482.0, -466.0, -445.0, -433.0, -383.0, -342.0, -306.0, -274.0, -241.0, -185.0, -113.0, -20.0, 68.0, 194.0, 276.0, 317.0, 417.0, 456.0, 478.0, 484.0, 486.0, 487.0, 491.0, 494.0, 498.0, 498.0, 494.0, 486.0, 442.0, 407.0, 382.0, 379.0, 406.0, 453.0, 512.0, 540.0, 540.0, 540.0, 540.0, 540.0]	[0.0151074004243128, 0.020335598615929484, 0.028240871848538518, 0.04639603500254452, 0.06356747640529647, 0.07817106926813722, 0.09652215760434046, 0.1135164470761083, 0.12824087188346311, 0.14666739478707314, 0.1632783673121594, 0.17866600217530504, 0.1965590215404518, 0.2134266765206121, 0.22823302121832967, 0.2466581788030453, 0.2630244155297987, 0.278669074177742, 0.29636207240400836, 0.31347378046484664, 0.32840471173403785, 0.3467312240973115, 0.36321897531161085, 0.3787192500894889, 0.39635251509025693, 0.4134536418132484, 0.4284524983377196, 0.4466359921498224, 0.4631356900790706, 0.4786871647811495, 0.4964398963493295, 0.5134911884670146, 0.5284296290483326, 0.546634626807645, 0.5630595728289336, 0.5786919434904121, 0.596432045684196, 0.6133570445817895, 0.6285736715653911, 0.6467008454492316, 0.6628824209328741, 0.6787195914657786, 0.6965706268674694, 0.7134106338489801, 0.7281541732372716, 0.7466165361693129, 0.7632653966429643, 0.7786687328480184, 0.796567554876674, 0.813391177856829, 0.8284641036880203, 0.8467165467445739]
23	葫芦	False	inanimate	animate	right	0.867	[0.0, 0.0, 0.0, 0.0, 0.0, 0.0, 0.0, 0.0, 0.0, 0.0, 0.0, 0.0, 0.0, 0.0, 0.0, 0.0, 0.0, 0.0, 0.0, 0.0, 0.0, 0.0, 0.0, -1.0, -1.0, -4.0, -12.0, -34.0, -93.0, -155.0, -227.0, -315.0, -394.0, -465.0, -524.0, -566.0, -568.0, -564.0, -533.0, -455.0, -281.0, -132.0, 52.0, 264.0, 485.0, 724.0, 936.0, 959.0, 959.0, 959.0, 959.0, 959.0, 959.0]	[-490.0, -490.0, -490.0, -490.0, -490.0, -490.0, -490.0, -490.0, -490.0, -490.0, -490.0, -490.0, -490.0, -490.0, -490.0, -490.0, -490.0, -490.0, -490.0, -490.0, -490.0, -490.0, -490.0, -489.0, -483.0, -468.0, -437.0, -381.0, -255.0, -163.0, -75.0, 10.0, 87.0, 161.0, 224.0, 290.0, 298.0, 309.0, 323.0, 339.0, 359.0, 367.0, 370.0, 388.0, 417.0, 475.0, 540.0, 540.0, 540.0, 540.0, 540.0, 540.0, 540.0]	[0.015794503851793706, 0.020948291465174407, 0.02968812402104959, 0.04776648723054677, 0.0646464301389642, 0.07973369193496183, 0.09819264151155949, 0.1145895982044749, 0.13004618237027898, 0.1477545405505225, 0.16469114477513358, 0.17976338794687763, 0.19808580429526046, 0.21459301153663546, 0.23005027836188674, 0.24781393253942952, 0.26474166207481176, 0.27970877464395016, 0.2981509988894686, 0.3146459181443788, 0.3300659796805121, 0.34794159105513245, 0.36474166210973635, 0.3797736279084347, 0.39811345224734396, 0.4146650328184478, 0.43002809170866385, 0.44794841774273664, 0.4647839873796329, 0.47973676392575726, 0.49807727098232135, 0.5145267929183319, 0.5300250197178684, 0.5477999378927052, 0.564740979403723, 0.5797418839647435, 0.5980605456279591, 0.6142718171468005, 0.6299506091163494, 0.6477876498829573, 0.664721523411572, 0.6795142148039304, 0.6979144550859928, 0.714520648936741, 0.7299884970416315, 0.7476378046558239, 0.7647126487572677, 0.7797534892451949, 0.7980943376314826, 0.8145807235268876, 0.8299871317576617, 0.8478047165554017, 0.8647781847394072]
24	钢琴	False	animate	inanimate	right	2.475	[0.0, 0.0, 0.0, 0.0, 0.0, 0.0, 0.0, 0.0, 0.0, 0.0, 0.0, 0.0, 0.0, -2.0, -4.0, -4.0, -11.0, -27.0, -38.0, -90.0, -122.0, -178.0, -230.0, -286.0, -341.0, -404.0, -446.0, -479.0, -505.0, -513.0, -525.0, -539.0, -546.0, -556.0, -570.0, -588.0, -608.0, -627.0, -640.0, -651.0, -668.0, -673.0, -687.0, -709.0, -722.0, -730.0, -734.0, -734.0, -734.0, -734.0, -734.0, -734.0, -734.0, -734.0, -734.0, -734.0, -734.0, -734.0, -734.0, -734.0, -734.0, -734.0, -734.0, -734.0, -734.0, -734.0, -734.0, -734.0, -734.0, -734.0, -734.0, -733.0, -724.0, -718.0, -717.0, -715.0, -715.0, -713.0, -711.0, -702.0, -693.0, -682.0, -670.0, -659.0, -646.0, -624.0, -594.0, -539.0, -479.0, -401.0, -308.0, -122.0, 32.0, 170.0, 289.0, 381.0, 458.0, 536.0, 604.0, 658.0, 718.0, 738.0, 745.0, 749.0, 749.0, 749.0, 749.0, 749.0, 749.0, 749.0, 749.0, 749.0, 749.0, 753.0, 754.0, 756.0, 756.0, 756.0, 756.0, 756.0, 756.0, 755.0, 747.0, 719.0, 615.0, 574.0, 483.0, 337.0, 224.0, 107.0, -12.0, -99.0, -151.0, -172.0, -177.0, -177.0, -177.0, -154.0, -129.0, 17.0, 158.0, 330.0, 497.0, 669.0, 818.0, 955.0, 959.0, 959.0, 959.0]	[-490.0, -490.0, -490.0, -490.0, -490.0, -490.0, -490.0, -490.0, -490.0, -490.0, -490.0, -484.0, -476.0, -465.0, -447.0, -420.0, -345.0, -273.0, -233.0, -113.0, -27.0, 61.0, 147.0, 224.0, 298.0, 371.0, 428.0, 473.0, 515.0, 525.0, 540.0, 540.0, 540.0, 540.0, 540.0, 540.0, 540.0, 540.0, 540.0, 540.0, 529.0, 523.0, 503.0, 470.0, 452.0, 440.0, 436.0, 434.0, 434.0, 434.0, 434.0, 434.0, 434.0, 434.0, 434.0, 434.0, 434.0, 434.0, 434.0, 434.0, 434.0, 434.0, 434.0, 434.0, 434.0, 434.0, 434.0, 434.0, 434.0, 434.0, 434.0, 434.0, 434.0, 434.0, 434.0, 434.0, 434.0, 434.0, 434.0, 434.0, 434.0, 434.0, 434.0, 434.0, 434.0, 434.0, 434.0, 434.0, 434.0, 434.0, 436.0, 436.0, 436.0, 438.0, 438.0, 438.0, 449.0, 473.0, 503.0, 526.0, 540.0, 540.0, 540.0, 540.0, 540.0, 540.0, 540.0, 540.0, 540.0, 540.0, 540.0, 540.0, 540.0, 540.0, 540.0, 540.0, 540.0, 540.0, 540.0, 540.0, 540.0, 539.0, 534.0, 522.0, 489.0, 478.0, 457.0, 430.0, 416.0, 398.0, 382.0, 369.0, 369.0, 369.0, 369.0, 369.0, 369.0, 374.0, 382.0, 406.0, 427.0, 451.0, 471.0, 486.0, 505.0, 524.0, 540.0, 540.0, 540.0]	[0.000168277183547616, 0.004596049373503774, 0.015125149744562805, 0.03364826994948089, 0.050035669293720275, 0.06537517620017752, 0.08349313406506553, 0.10018124780617654, 0.1148923605796881, 0.1332680249470286, 0.15005000529345125, 0.16552706941729411, 0.18340814212569967, 0.2001730558113195, 0.2151650856831111, 0.23352061136392877, 0.2500295253121294, 0.26539224287262186, 0.28334363020258024, 0.30015837849350646, 0.31517430167878047, 0.33353426470421255, 0.34990186674986035, 0.36548576812492684, 0.38328389689559117, 0.400126293185167, 0.4149674538639374, 0.4332666596164927, 0.4499851519940421, 0.46536664286395535, 0.48328594490885735, 0.5001013759174384, 0.5151265150634572, 0.5334765794104896, 0.549905962718185, 0.5653444562340155, 0.5833054009126499, 0.6001109332428314, 0.6151551870279945, 0.633445518091321, 0.649741098866798, 0.6653697148431093, 0.6832886755582877, 0.7001198079087771, 0.7151766910101287, 0.7334591714316048, 0.749876608082559, 0.7654222801793367, 0.7836040672846138, 0.8001829544664361, 0.8151630377396941, 0.8334680460975505, 0.8498506667674519, 0.8653997521614656, 0.883263758267276, 0.9001157119055279, 0.915122760401573, 0.9334175288095139, 0.9499073280603625, 0.965412040182855, 0.9830992357456125, 1.0002119677956216, 1.0151654270594008, 1.0334564407821745, 1.049838037462905, 1.0653809788636863, 1.0833525048801675, 1.1002184531535022, 1.1151203711051494, 1.1332670009578578, 1.1498516908031888, 1.1653983868309297, 1.18320914497599, 1.200061098614242, 1.2151169577264227, 1.23339670751011, 1.2498752427636646, 1.2653434321982786, 1.2830541798030026, 1.3001921704853885, 1.315106717753224, 1.3334441527840681, 1.3498568107606843, 1.365463922789786, 1.3833197368658148, 1.4001788584864698, 1.4151763496920466, 1.4334656567662023, 1.4496144643053412, 1.4653318268829025, 1.4829780625295825, 1.5000399359269068, 1.5151876136660576, 1.533493987401016, 1.5496840962441638, 1.5654041895177215, 1.5830360891413875, 1.6001037652022205, 1.6151722536887974, 1.633453368791379, 1.6499271253705956, 1.6653806375106797, 1.6829988838289864, 1.7000624639331363, 1.7150749737629667, 1.7333212728844956, 1.7498755840933882, 1.7654048721888103, 1.7833627448417246, 1.800155306525994, 1.8151596243842505, 1.8334772620582953, 1.8497834241716191, 1.8653789308737032, 1.8833528461982496, 1.9001744211418554, 1.9152057043393143, 1.9335332406917587, 1.9499421440414153, 1.9653956561814994, 1.9832002703333274, 2.0001242451835424, 2.0148814379354008, 2.033321272872854, 2.0498322347993962, 2.065406237496063, 2.0832890169112943, 2.1001512104994617, 2.1151114964159206, 2.1334714594413526, 2.1496520109358244, 2.165393266826868, 2.183250446279999, 2.2001105918898247, 2.21515621105209, 2.233418552787043, 2.249780352169182, 2.2653942908509634, 2.2834429580834694, 2.3002164051285945, 2.3151118377572857, 2.3334803340840153, 2.3499097173917107, 2.3654594854451716, 2.3833965368103236, 2.400133461225778, 2.415125149767846, 2.4335185633972287, 2.449965013365727]
25	乞丐	True	inanimate	animate	right	1.0	[0.0, -1.0, -1.0, -1.0, -1.0, -1.0, -1.0, -1.0, -1.0, -1.0, -1.0, -1.0, -1.0, -1.0, -1.0, -1.0, -1.0, -1.0, -1.0, 1.0, 2.0, 2.0, 1.0, -10.0, -42.0, -121.0, -202.0, -252.0, -409.0, -509.0, -598.0, -663.0, -703.0, -729.0, -738.0, -746.0, -753.0, -758.0, -760.0, -762.0, -764.0, -764.0, -765.0, -765.0, -765.0, -765.0, -759.0, -748.0, -704.0, -556.0, -404.0, -305.0, 24.0, 248.0, 472.0, 688.0, 857.0, 959.0, 959.0, 959.0]	[-490.0, -491.0, -491.0, -491.0, -491.0, -491.0, -491.0, -491.0, -491.0, -491.0, -491.0, -491.0, -491.0, -491.0, -491.0, -491.0, -491.0, -491.0, -489.0, -479.0, -465.0, -446.0, -423.0, -386.0, -332.0, -235.0, -160.0, -116.0, 22.0, 114.0, 191.0, 248.0, 284.0, 312.0, 326.0, 344.0, 360.0, 374.0, 386.0, 389.0, 399.0, 404.0, 412.0, 414.0, 414.0, 414.0, 418.0, 420.0, 424.0, 424.0, 424.0, 424.0, 449.0, 490.0, 540.0, 540.0, 540.0, 540.0, 540.0, 540.0]	[0.016369820688851178, 0.02157378423726186, 0.03075291239656508, 0.049295488570351154, 0.06565592263359576, 0.08111318940063938, 0.0990304434671998, 0.1159708023769781, 0.1309389389352873, 0.1490818141028285, 0.16572111722780392, 0.18122514669084921, 0.19904170744121075, 0.21591004508081824, 0.2308024056837894, 0.24916305136866868, 0.26559311733581126, 0.28117497073253617, 0.2990338567760773, 0.3158820557873696, 0.3308512163348496, 0.34917124337516725, 0.3656822052435018, 0.3810503841377795, 0.3989809501799755, 0.41580423183040693, 0.43077032041037455, 0.4490678194561042, 0.46559516532579437, 0.4811343520996161, 0.49891234224196523, 0.5159383757272735, 0.5308710136450827, 0.5490906887571327, 0.5656231546308845, 0.5811422027181834, 0.598942379525397, 0.615843485109508, 0.6307218510773964, 0.6489258249057457, 0.6655804880429059, 0.6811497120652348, 0.6989280435373075, 0.7158274424728006, 0.7309283575741574, 0.7490695260930806, 0.7655606907210313, 0.7811497120419517, 0.7989089289330877, 0.8158359758090228, 0.8307873870362528, 0.8490708914468996, 0.8655839013517834, 0.8811114827403799, 0.8989560328773223, 0.916054428962525, 0.9308215203345753, 0.949349760543555, 0.9657224825350568, 0.9811886240495369]
26	黑猫	True	animate	inanimate	left	0.7	[0.0, 0.0, 0.0, 0.0, 0.0, 0.0, 0.0, 0.0, 0.0, 1.0, 1.0, 1.0, -3.0, -6.0, -9.0, -13.0, -19.0, -21.0, -22.0, -25.0, -29.0, -29.0, -36.0, -55.0, -89.0, -137.0, -203.0, -276.0, -359.0, -519.0, -578.0, -719.0, -779.0, -822.0, -841.0, -849.0, -851.0, -851.0, -851.0, -854.0, -855.0, -855.0, -855.0]	[-490.0, -490.0, -490.0, -490.0, -490.0, -490.0, -490.0, -490.0, -490.0, -489.0, -488.0, -485.0, -477.0, -469.0, -463.0, -455.0, -444.0, -441.0, -438.0, -426.0, -408.0, -400.0, -355.0, -292.0, -204.0, -103.0, 4.0, 92.0, 168.0, 278.0, 314.0, 389.0, 421.0, 437.0, 445.0, 448.0, 450.0, 450.0, 450.0, 453.0, 454.0, 454.0, 454.0]	[0.00720076187280938, 0.011370827676728368, 0.015866866509895772, 0.031263034674338996, 0.04754803411196917, 0.06297253299271688, 0.08073925913777202, 0.0976567487232387, 0.11247299204114825, 0.13114493346074596, 0.14761391142383218, 0.1630213435855694, 0.1810857121599838, 0.19770658330526203, 0.21273957315133885, 0.23108042153762653, 0.2475548607762903, 0.26290665566921234, 0.28088500833837315, 0.2976867859833874, 0.3125279466621578, 0.33091282699024305, 0.34754735144088045, 0.36304626089986414, 0.38090890168678015, 0.3976372927427292, 0.4127255785278976, 0.4310363895492628, 0.4475067328312434, 0.4629428369808011, 0.4808375630527735, 0.49771853000856936, 0.5127556158113293, 0.5309797282679938, 0.5472681410610676, 0.5630189542425796, 0.5808013817295432, 0.5976441193488427, 0.6126996371895075, 0.631285562645644, 0.6474036502768286, 0.6629032423370518, 0.6806597285321914]
27	狮子	True	inanimate	animate	right	0.88	[0.0, 0.0, 0.0, 0.0, 0.0, 0.0, 0.0, 0.0, 0.0, 18.0, 41.0, 47.0, 49.0, 49.0, 49.0, 49.0, 49.0, 49.0, 49.0, 49.0, 49.0, 49.0, 46.0, 10.0, -27.0, -160.0, -268.0, -397.0, -523.0, -624.0, -705.0, -781.0, -872.0, -890.0, -909.0, -913.0, -914.0, -914.0, -914.0, -913.0, -913.0, -905.0, -869.0, -757.0, -595.0, -374.0, 2.0, 259.0, 382.0, 714.0, 898.0, 959.0, 959.0]	[-490.0, -490.0, -490.0, -490.0, -490.0, -490.0, -490.0, -490.0, -490.0, -512.0, -539.0, -539.0, -539.0, -539.0, -539.0, -539.0, -539.0, -539.0, -539.0, -539.0, -539.0, -539.0, -535.0, -494.0, -457.0, -305.0, -166.0, -6.0, 173.0, 319.0, 440.0, 540.0, 540.0, 540.0, 540.0, 540.0, 540.0, 540.0, 540.0, 540.0, 540.0, 540.0, 535.0, 511.0, 489.0, 457.0, 439.0, 452.0, 466.0, 534.0, 540.0, 540.0, 540.0]	[0.0015827612951397896, 0.006389754533302039, 0.017757510126102716, 0.03638917423086241, 0.052858152193948627, 0.06822018709499389, 0.08616713708033785, 0.1030218213563785, 0.11776365415425971, 0.1363236383185722, 0.15270864829653874, 0.16826148837571964, 0.18616235844092444, 0.2031733732437715, 0.2180060006212443, 0.2362284063710831, 0.25269021635176614, 0.26821916305925697, 0.28613914776360616, 0.30303991201799363, 0.3180261392262764, 0.3363082783180289, 0.3528711228282191, 0.3682177977170795, 0.38614460913231596, 0.4029709627502598, 0.41773122746963054, 0.43605364387622103, 0.45278544822940603, 0.4682898190221749, 0.4860643958672881, 0.5029986107256263, 0.5180394512135535, 0.5362191903986968, 0.5528134375344962, 0.5681911737774499, 0.5859428812982515, 0.6030061200726777, 0.6179677713080309, 0.6363089609658346, 0.6529991227434948, 0.6682300857501104, 0.686114230484236, 0.7031163706560619, 0.7179882513009943, 0.7362191904103383, 0.7528233362245373, 0.7682311097159982, 0.7860606411704794, 0.8031276346300729, 0.8180288699222729, 0.8363997555570677, 0.8530056080780923]
28	酒精	False	animate	inanimate	left	0.639	[0.0, 0.0, 0.0, 0.0, 0.0, 0.0, 0.0, -1.0, -7.0, -20.0, -36.0, -53.0, -57.0, -68.0, -72.0, -79.0, -103.0, -133.0, -181.0, -242.0, -323.0, -433.0, -560.0, -673.0, -743.0, -769.0, -789.0, -809.0, -835.0, -847.0, -851.0, -857.0, -858.0, -854.0, -844.0, -833.0, -824.0, -820.0, -819.0]	[-490.0, -490.0, -490.0, -490.0, -490.0, -490.0, -490.0, -490.0, -481.0, -465.0, -448.0, -422.0, -416.0, -395.0, -391.0, -377.0, -343.0, -304.0, -247.0, -187.0, -109.0, -25.0, 68.0, 141.0, 181.0, 200.0, 214.0, 228.0, 251.0, 265.0, 271.0, 292.0, 309.0, 329.0, 354.0, 380.0, 402.0, 411.0, 413.0]	[0.0076857960084453225, 0.012441930652130395, 0.017242438509128988, 0.03172758885193616, 0.04872836364666, 0.06365758826723322, 0.0821264365222305, 0.09845990524627268, 0.11396256933221593, 0.13200065528508276, 0.14886353153269738, 0.163794121472165, 0.18213940714485943, 0.1987319476902485, 0.21400523599004373, 0.2319818819523789, 0.24880687025142834, 0.26385351340286434, 0.282113807159476, 0.2986312544089742, 0.31401069730054587, 0.33196788729401305, 0.3488570462213829, 0.3638060681405477, 0.38205168454442173, 0.39836945198476315, 0.4140400519245304, 0.43186002608854324, 0.4488119902671315, 0.4637773961876519, 0.4820110659347847, 0.4983581879641861, 0.5140298119513318, 0.5319252206827514, 0.5489376008044928, 0.5638989107101224, 0.5820871831965633, 0.5985192972002551, 0.6140072839916684]
29	黑板	False	animate	inanimate	right	0.932	[0.0, 0.0, 0.0, 0.0, 0.0, 0.0, 0.0, 0.0, 0.0, 0.0, 0.0, 0.0, 0.0, 0.0, 0.0, 0.0, 0.0, 0.0, 0.0, 0.0, 0.0, 0.0, 0.0, -1.0, -15.0, -59.0, -117.0, -179.0, -230.0, -285.0, -352.0, -402.0, -445.0, -470.0, -481.0, -481.0, -481.0, -481.0, -485.0, -491.0, -498.0, -504.0, -509.0, -509.0, -509.0, -508.0, -439.0, -316.0, -127.0, 116.0, 397.0, 692.0, 959.0, 959.0, 959.0, 959.0, 959.0]	[-490.0, -490.0, -490.0, -490.0, -490.0, -490.0, -490.0, -490.0, -490.0, -490.0, -490.0, -490.0, -490.0, -490.0, -490.0, -490.0, -490.0, -490.0, -490.0, -490.0, -490.0, -490.0, -490.0, -486.0, -470.0, -441.0, -399.0, -346.0, -292.0, -215.0, -120.0, -37.0, 25.0, 72.0, 125.0, 149.0, 167.0, 185.0, 205.0, 219.0, 230.0, 235.0, 238.0, 238.0, 238.0, 239.0, 247.0, 255.0, 275.0, 319.0, 367.0, 433.0, 540.0, 540.0, 540.0, 540.0, 540.0]	[0.015394120186101645, 0.022275052964687347, 0.029094887140672654, 0.047663063276559114, 0.06379958288744092, 0.0793961135786958, 0.09713382640620694, 0.11408681463217363, 0.12916861509438604, 0.1475418900954537, 0.1639965320355259, 0.17933945229742676, 0.1972703596111387, 0.2141806812142022, 0.22914028441300616, 0.2473408448859118, 0.2640265693189576, 0.2794305881834589, 0.2974202048499137, 0.31411241460591555, 0.32913379912497476, 0.347413890180178, 0.364016329345759, 0.37937904690625146, 0.39740894082933664, 0.4141571292420849, 0.4292641883366741, 0.44756851403508335, 0.46391768410103396, 0.4793612975627184, 0.4972894742968492, 0.5140219613676891, 0.5290979591663927, 0.54767023131717, 0.5638647774467245, 0.5793329669395462, 0.5973055169451982, 0.61404790263623, 0.6291297030984424, 0.6475125354481861, 0.6638634121627547, 0.6793196549406275, 0.6972341783111915, 0.7142038918682374, 0.7289627912687138, 0.7474254955304787, 0.7638671668246388, 0.7793565189349465, 0.7974799381336197, 0.8140448306803592, 0.8291146844858304, 0.847510828753002, 0.8639832200133242, 0.8793360389536247, 0.8973010795889422, 0.9141008092556149, 0.9291392604354769]
30	青蛙	True	animate	inanimate	left	1.262	[0.0, 0.0, 0.0, 0.0, 0.0, 1.0, 1.0, 1.0, 1.0, 1.0, 2.0, 13.0, 33.0, 54.0, 59.0, 59.0, 59.0, 59.0, 59.0, 64.0, 73.0, 90.0, 126.0, 145.0, 188.0, 248.0, 388.0, 441.0, 617.0, 733.0, 838.0, 923.0, 959.0, 959.0, 959.0, 959.0, 959.0, 959.0, 959.0, 959.0, 959.0, 953.0, 857.0, 674.0, 433.0, 178.0, -56.0, -279.0, -461.0, -615.0, -640.0, -643.0, -642.0, -625.0, -601.0, -582.0, -567.0, -566.0, -566.0, -566.0, -566.0, -566.0, -566.0, -566.0, -566.0, -566.0, -569.0, -591.0, -636.0, -695.0, -749.0, -783.0, -804.0, -808.0, -809.0, -809.0]	[-490.0, -490.0, -490.0, -490.0, -490.0, -490.0, -490.0, -490.0, -490.0, -490.0, -490.0, -488.0, -475.0, -451.0, -432.0, -417.0, -406.0, -394.0, -373.0, -344.0, -314.0, -276.0, -213.0, -188.0, -139.0, -87.0, 27.0, 73.0, 235.0, 338.0, 433.0, 513.0, 540.0, 540.0, 540.0, 540.0, 540.0, 540.0, 540.0, 540.0, 540.0, 540.0, 515.0, 466.0, 427.0, 408.0, 408.0, 432.0, 470.0, 525.0, 540.0, 540.0, 540.0, 540.0, 540.0, 540.0, 540.0, 540.0, 540.0, 540.0, 540.0, 540.0, 540.0, 540.0, 540.0, 540.0, 536.0, 523.0, 505.0, 492.0, 485.0, 479.0, 476.0, 475.0, 475.0, 475.0]	[0.014741491409949958, 0.020914158143568784, 0.027872914855834097, 0.04640729905804619, 0.06280289037385955, 0.07805262668989599, 0.09606443002121523, 0.11295563692692667, 0.12789578415686265, 0.14623560849577188, 0.1627523730858229, 0.17806935199769214, 0.19600845139939338, 0.21291604230646044, 0.2278927121660672, 0.24613662192132324, 0.26280050101922825, 0.27809188002720475, 0.29600060073425993, 0.31289965828182176, 0.32790329348063096, 0.346093955275137, 0.3624711146694608, 0.3781157733174041, 0.39598933671368286, 0.4129027302842587, 0.42777188029140234, 0.446032174048014, 0.4627673917566426, 0.47810143732931465, 0.49602654203772545, 0.5129754342488013, 0.5276083817589097, 0.5459587874356657, 0.5627127784537151, 0.5780468240263872, 0.596013912698254, 0.6128836156567559, 0.6278858855366707, 0.6460850806324743, 0.6627424744074233, 0.678053992043715, 0.6959903607494198, 0.7130221968400292, 0.7279022695147432, 0.746113411267288, 0.7625905812019482, 0.7780676453257911, 0.7959063927992247, 0.812735477113165, 0.8278626748360693, 0.8461246752995066, 0.8626916158245876, 0.8780956346890889, 0.8959930913988501, 0.9130198075436056, 0.9278698428533971, 0.9459229474305175, 0.9624520000070333, 0.9780584293766879, 0.9958777208230458, 1.0128726930124685, 1.0278353682369925, 1.0460796193219721, 1.062632906541694, 1.078024978749454, 1.0960371233522892, 1.1130515515105799, 1.1279316241270863, 1.1461123873014003, 1.16259638388874, 1.1780215653707273, 1.1957094436511397, 1.2128129596821964, 1.2278534588404, 1.246122968615964]
31	戒指	False	animate	inanimate	right	0.78	[0.0, 0.0, 0.0, 0.0, 0.0, 0.0, -1.0, -2.0, -9.0, -11.0, -29.0, -47.0, -59.0, -64.0, -67.0, -71.0, -86.0, -94.0, -112.0, -137.0, -193.0, -214.0, -286.0, -333.0, -375.0, -416.0, -457.0, -498.0, -550.0, -595.0, -637.0, -673.0, -687.0, -689.0, -681.0, -652.0, -595.0, -492.0, -338.0, -139.0, 88.0, 351.0, 610.0, 883.0, 959.0, 959.0, 959.0, 959.0]	[-490.0, -490.0, -490.0, -490.0, -490.0, -490.0, -490.0, -490.0, -490.0, -490.0, -490.0, -486.0, -481.0, -479.0, -477.0, -474.0, -460.0, -451.0, -430.0, -401.0, -337.0, -317.0, -239.0, -187.0, -130.0, -62.0, 29.0, 141.0, 262.0, 378.0, 474.0, 540.0, 540.0, 540.0, 540.0, 540.0, 540.0, 540.0, 540.0, 540.0, 540.0, 540.0, 540.0, 540.0, 540.0, 540.0, 540.0, 540.0]	[0.01407179597299546, 0.01996491092722863, 0.02645979606313631, 0.04494298028293997, 0.0613989876001142, 0.0767361051402986, 0.09468783385818824, 0.11155071010580286, 0.1265089480439201, 0.14484194573014975, 0.16134881164180115, 0.17670777451712638, 0.1948445056914352, 0.21154729678528383, 0.2262502175872214, 0.24495151359587908, 0.2614242462441325, 0.27669343852903694, 0.29473118315218017, 0.31150531279854476, 0.3265208946540952, 0.34482829237822443, 0.3612641610088758, 0.3767337158205919, 0.3947543937829323, 0.4115210141171701, 0.42657584929838777, 0.4449870122480206, 0.4612365130451508, 0.4767105052014813, 0.4943994074128568, 0.5114244169089943, 0.5264816413982771, 0.5447412524372339, 0.561306486313697, 0.5766330225742422, 0.5945294552948326, 0.6114940488478169, 0.6265895026153885, 0.6449248896096833, 0.661312630341854, 0.6767224518116564, 0.69470012182137, 0.7114681075327098, 0.726499390671961, 0.7448364843730815, 0.7613945502671413, 0.7766251719440334]
32	钉子	False	animate	inanimate	right	0.914	[0.0, 0.0, 0.0, 0.0, 0.0, 0.0, 0.0, 0.0, 0.0, -4.0, -11.0, -20.0, -29.0, -39.0, -41.0, -42.0, -43.0, -43.0, -44.0, -48.0, -58.0, -75.0, -100.0, -144.0, -205.0, -298.0, -354.0, -397.0, -430.0, -453.0, -462.0, -465.0, -464.0, -458.0, -452.0, -445.0, -442.0, -442.0, -451.0, -466.0, -480.0, -484.0, -484.0, -467.0, -403.0, -283.0, -102.0, 251.0, 368.0, 698.0, 851.0, 930.0, 956.0, 958.0, 958.0]	[-490.0, -490.0, -490.0, -490.0, -490.0, -490.0, -490.0, -490.0, -490.0, -489.0, -491.0, -493.0, -498.0, -502.0, -504.0, -504.0, -505.0, -505.0, -505.0, -505.0, -504.0, -497.0, -486.0, -465.0, -433.0, -377.0, -331.0, -281.0, -227.0, -173.0, -123.0, -91.0, -61.0, -35.0, -17.0, 8.0, 16.0, 54.0, 98.0, 150.0, 202.0, 239.0, 256.0, 269.0, 306.0, 374.0, 472.0, 540.0, 540.0, 540.0, 540.0, 540.0, 540.0, 540.0, 540.0]	[0.015946055704262108, 0.02083360351389274, 0.030022971681319177, 0.04849352658493444, 0.06491813127649948, 0.0803327314206399, 0.09848038526251912, 0.11492376326350495, 0.13028477411717176, 0.1483389027416706, 0.16507719247601926, 0.18010062497342005, 0.19843635329743847, 0.21496062719961628, 0.23033426742767915, 0.24831432674545795, 0.26514033909188583, 0.28018664091359824, 0.2985909772105515, 0.31498110719257966, 0.3303079847828485, 0.34834368142765015, 0.36507309647277, 0.3801248596282676, 0.3984404493239708, 0.41492205660324544, 0.4302601981908083, 0.44829691876657307, 0.4650597844738513, 0.4800606889766641, 0.4984964279574342, 0.5150084138731472, 0.5303308541188017, 0.548015660373494, 0.5650597844505683, 0.5798384812078439, 0.5981895695440471, 0.6149012352689169, 0.6303414354333654, 0.6483764493605122, 0.6651055230759084, 0.6802194088813849, 0.6985971211688593, 0.7149251285591163, 0.7303410940803587, 0.7482539108023047, 0.7650109738460742, 0.7801057449541986, 0.7983725240337662, 0.8148285313509405, 0.8303230034653097, 0.8482941880938597, 0.8650980137754232, 0.8801071103080176, 0.898526806558948]
33	鳄鱼	True	animate	inanimate	left	0.666	[0.0, 0.0, 0.0, 0.0, 0.0, 0.0, 0.0, 0.0, 0.0, 0.0, 0.0, 0.0, 0.0, 0.0, 0.0, -4.0, -16.0, -31.0, -40.0, -68.0, -85.0, -100.0, -120.0, -148.0, -185.0, -224.0, -262.0, -305.0, -397.0, -510.0, -573.0, -757.0, -841.0, -886.0, -899.0, -901.0, -901.0, -901.0, -901.0, -901.0, -901.0]	[-490.0, -490.0, -490.0, -490.0, -490.0, -490.0, -490.0, -490.0, -490.0, -489.0, -486.0, -480.0, -474.0, -464.0, -454.0, -440.0, -414.0, -393.0, -380.0, -340.0, -316.0, -294.0, -268.0, -235.0, -190.0, -138.0, -83.0, -30.0, 74.0, 177.0, 220.0, 346.0, 407.0, 440.0, 453.0, 454.0, 454.0, 454.0, 454.0, 457.0, 458.0]	[0.014061555964872241, 0.020023278833832592, 0.02709365147165954, 0.04507883079349995, 0.06161573401186615, 0.07698254758724943, 0.0948864896199666, 0.11169202195014805, 0.12674480909481645, 0.1450221695122309, 0.1615467847441323, 0.1771436567651108, 0.19477555638877675, 0.21170362731209025, 0.22661100659752265, 0.24505698547000065, 0.2614334622048773, 0.27702077687717974, 0.2947625857195817, 0.31168178195366636, 0.3265690226107836, 0.34501534287119284, 0.36155258741928264, 0.3770651501836255, 0.3948998016421683, 0.41165242734132335, 0.4264536520349793, 0.4447972310590558, 0.461403424909804, 0.47701121954014525, 0.49476702307583764, 0.5116114673437551, 0.5266195398871787, 0.544949465605896, 0.5614283421891741, 0.5769245209521614, 0.5947881857282482, 0.6117125019663945, 0.6267134064692073, 0.6449583402718417, 0.6615215261117555]
34	帽子	False	animate	inanimate	right	0.752	[0.0, 0.0, 0.0, 0.0, 0.0, 0.0, 0.0, 0.0, 0.0, 0.0, 0.0, -2.0, -3.0, -10.0, -14.0, -23.0, -31.0, -46.0, -67.0, -104.0, -119.0, -146.0, -172.0, -202.0, -237.0, -296.0, -328.0, -367.0, -403.0, -446.0, -499.0, -544.0, -563.0, -563.0, -519.0, -340.0, -255.0, 55.0, 324.0, 592.0, 822.0, 959.0, 959.0, 959.0, 959.0, 959.0]	[-490.0, -490.0, -490.0, -490.0, -490.0, -490.0, -490.0, -490.0, -490.0, -490.0, -490.0, -488.0, -487.0, -475.0, -465.0, -443.0, -417.0, -385.0, -338.0, -265.0, -239.0, -191.0, -148.0, -102.0, -60.0, 11.0, 58.0, 110.0, 160.0, 220.0, 294.0, 359.0, 407.0, 440.0, 480.0, 536.0, 540.0, 540.0, 508.0, 487.0, 495.0, 536.0, 540.0, 540.0, 540.0, 540.0]	[0.016147442220244557, 0.02140397106995806, 0.030438032641541213, 0.0487242677481845, 0.06549327744869515, 0.08015626226551831, 0.09872682770946994, 0.11534565087640658, 0.13067150447750464, 0.14860445982776582, 0.16548781609162688, 0.18041396868648008, 0.19886506762122735, 0.21508384845219553, 0.230662971152924, 0.2487942409934476, 0.26544173614820465, 0.28049657127121463, 0.2988596062641591, 0.3150804351316765, 0.33063566451892257, 0.34851844393415377, 0.365373469539918, 0.380486331298016, 0.3986903050681576, 0.41517532570287585, 0.4306015311740339, 0.4485385825391859, 0.46532534155994654, 0.4804709713207558, 0.4988889609230682, 0.5152722642524168, 0.5306278138305061, 0.5485757878632285, 0.5653826855123043, 0.5804740433231927, 0.5986933771055192, 0.6151408510631882, 0.630659899150487, 0.6482781454687938, 0.6654608507524244, 0.6804791633039713, 0.6989442568738014, 0.7153173202532344, 0.7306725284433924, 0.7486020704964176]
35	卡车	False	animate	inanimate	right	1.517	[0.0, 0.0, 0.0, 0.0, 0.0, 0.0, -1.0, -2.0, -3.0, -6.0, -18.0, -29.0, -33.0, -48.0, -56.0, -64.0, -78.0, -104.0, -139.0, -217.0, -245.0, -318.0, -456.0, -567.0, -622.0, -777.0, -856.0, -904.0, -920.0, -926.0, -926.0, -923.0, -919.0, -913.0, -910.0, -909.0, -907.0, -860.0, -752.0, -549.0, -285.0, 14.0, 320.0, 603.0, 846.0, 959.0, 959.0, 947.0, 926.0, 831.0, 757.0, 668.0, 589.0, 537.0, 519.0, 517.0, 517.0, 517.0, 517.0, 517.0, 517.0, 517.0, 515.0, 511.0, 500.0, 470.0, 461.0, 432.0, 408.0, 397.0, 396.0, 407.0, 422.0, 558.0, 706.0, 875.0, 959.0, 959.0, 959.0, 959.0, 959.0, 959.0, 959.0, 959.0, 959.0, 959.0, 959.0, 959.0, 959.0, 959.0, 959.0, 959.0]	[-490.0, -490.0, -490.0, -490.0, -490.0, -490.0, -490.0, -490.0, -485.0, -473.0, -449.0, -435.0, -433.0, -424.0, -421.0, -415.0, -401.0, -370.0, -316.0, -187.0, -136.0, -28.0, 122.0, 209.0, 248.0, 358.0, 413.0, 453.0, 471.0, 493.0, 501.0, 526.0, 532.0, 537.0, 539.0, 539.0, 539.0, 540.0, 540.0, 540.0, 540.0, 540.0, 540.0, 540.0, 540.0, 540.0, 540.0, 540.0, 540.0, 540.0, 540.0, 540.0, 540.0, 540.0, 540.0, 540.0, 540.0, 540.0, 540.0, 540.0, 540.0, 540.0, 540.0, 540.0, 536.0, 509.0, 499.0, 464.0, 437.0, 419.0, 408.0, 403.0, 403.0, 428.0, 469.0, 509.0, 540.0, 540.0, 540.0, 540.0, 540.0, 540.0, 540.0, 540.0, 540.0, 540.0, 540.0, 540.0, 540.0, 540.0, 540.0, 540.0]	[0.014131017320323735, 0.019637743302155286, 0.026603667996823788, 0.04494042036822066, 0.06182684865780175, 0.0764894921449013, 0.09498394036199898, 0.11170175008010119, 0.1270139503176324, 0.14491311373421922, 0.16185108327772468, 0.17652635608101264, 0.19500476168468595, 0.21169560606358573, 0.22701087832683697, 0.24498547631083056, 0.2619848858448677, 0.27675573190208524, 0.2950027136830613, 0.3115938888513483, 0.32694227038882673, 0.3448008151608519, 0.361771211377345, 0.3767850865260698, 0.3949624363449402, 0.41157477418892086, 0.4269238384440541, 0.44458270334871486, 0.46177291800267994, 0.4765072414302267, 0.4950542549486272, 0.5116007155156694, 0.5270125850220211, 0.5448137858184054, 0.5617981766699813, 0.5767789425444789, 0.5950129536213353, 0.6115215262398124, 0.6270405743271112, 0.6448581591248512, 0.6619603098370135, 0.6768881691386923, 0.6950033963075839, 0.7114751049084589, 0.7269395397161134, 0.744892975082621, 0.7617264967411757, 0.7767884998465888, 0.7950098816654645, 0.8116566941025667, 0.8269781103590503, 0.8445847513503395, 0.8619254938676022, 0.8768861211137846, 0.8950119296787307, 0.9112894197460264, 0.9269562650588341, 0.9447690711822361, 0.9618387952796184, 0.9768359451554716, 0.9950016896473244, 1.0116348487790674, 1.026936809066683, 1.0448660097899847, 1.0618346992996521, 1.0765089481137693, 1.094890415086411, 1.1112825931049883, 1.1269811823731288, 1.1448032045154832, 1.1617592647089623, 1.1767321799416095, 1.194984622998163, 1.2115536115597934, 1.2270166809903458, 1.244902532431297, 1.2619213978759944, 1.2765635614050552, 1.295027289655991, 1.3115112862433307, 1.3270002970239148, 1.3449103830498643, 1.3618469872744754, 1.3767601692234166, 1.3950692735961638, 1.4116744434577413, 1.427046035649255, 1.444932911079377, 1.4618654192890972, 1.4767943025217392, 1.49503582296893, 1.5116635207668878]
36	轮船	False	inanimate	animate	right	0.59	[0.0, 0.0, 0.0, 0.0, 0.0, 0.0, 0.0, 0.0, -2.0, -2.0, -2.0, -2.0, -2.0, -2.0, 3.0, 10.0, 39.0, 59.0, 115.0, 232.0, 324.0, 373.0, 537.0, 645.0, 735.0, 809.0, 856.0, 882.0, 899.0, 900.0, 902.0, 902.0, 902.0, 902.0, 902.0, 902.0]	[-490.0, -490.0, -490.0, -490.0, -490.0, -490.0, -490.0, -490.0, -486.0, -482.0, -475.0, -471.0, -465.0, -459.0, -451.0, -436.0, -372.0, -338.0, -246.0, -86.0, 22.0, 77.0, 247.0, 353.0, 443.0, 517.0, 540.0, 540.0, 540.0, 540.0, 540.0, 540.0, 540.0, 540.0, 540.0, 540.0]	[0.008851448423229158, 0.014005236036609858, 0.018161989806685597, 0.034592397103551775, 0.05103202041937038, 0.06641521799610928, 0.08435363468015566, 0.1011915936251171, 0.11615358619019389, 0.13443162926705554, 0.15115353500004858, 0.16638893535127863, 0.184298338717781, 0.2013800094719045, 0.215869938430842, 0.2342971440521069, 0.2510316791012883, 0.26635548466583714, 0.28422426944598556, 0.301107284380123, 0.3161245728842914, 0.33435721864225343, 0.35065655410289764, 0.36634183139540255, 0.3841727281687781, 0.401368745486252, 0.4159146530437283, 0.4343370799906552, 0.4509623884805478, 0.4663124767248519, 0.4842788827372715, 0.5012257269117981, 0.5161706528742798, 0.5344019333133474, 0.550843263277784, 0.5663466100231744]
37	河流	False	animate	inanimate	right	1.168	[0.0, 0.0, 0.0, 0.0, 0.0, 0.0, 0.0, 0.0, 0.0, -7.0, -14.0, -15.0, -18.0, -19.0, -19.0, -21.0, -22.0, -27.0, -33.0, -47.0, -71.0, -110.0, -182.0, -210.0, -268.0, -349.0, -390.0, -411.0, -451.0, -466.0, -472.0, -477.0, -498.0, -553.0, -657.0, -762.0, -854.0, -916.0, -935.0, -936.0, -935.0, -931.0, -920.0, -910.0, -894.0, -869.0, -822.0, -761.0, -698.0, -611.0, -444.0, -281.0, -70.0, 168.0, 439.0, 721.0, 959.0, 959.0, 959.0, 959.0, 959.0, 954.0, 949.0, 948.0, 948.0, 959.0, 959.0, 959.0, 959.0, 959.0]	[-490.0, -490.0, -490.0, -490.0, -490.0, -490.0, -490.0, -490.0, -486.0, -475.0, -459.0, -453.0, -443.0, -437.0, -433.0, -432.0, -423.0, -414.0, -401.0, -381.0, -351.0, -306.0, -234.0, -209.0, -178.0, -158.0, -152.0, -148.0, -148.0, -148.0, -148.0, -148.0, -140.0, -111.0, -56.0, 16.0, 78.0, 129.0, 152.0, 155.0, 160.0, 164.0, 170.0, 176.0, 182.0, 196.0, 223.0, 256.0, 299.0, 360.0, 469.0, 540.0, 540.0, 540.0, 540.0, 540.0, 540.0, 540.0, 540.0, 540.0, 540.0, 540.0, 538.0, 536.0, 530.0, 523.0, 523.0, 523.0, 523.0, 523.0]	[0.0012195829767733812, 0.006064464163500816, 0.017136966693215072, 0.035661452217027545, 0.05198707029921934, 0.0673982571461238, 0.08516703132772818, 0.1022695234278217, 0.1169195375405252, 0.1353494738577865, 0.1520392942475155, 0.16734637453919277, 0.18527591659221798, 0.20219238213030621, 0.21719567599939182, 0.23540169780608267, 0.2520150596392341, 0.2673347691888921, 0.2851090047042817, 0.30231184867443517, 0.31691680691437796, 0.3352702845586464, 0.3518590704188682, 0.36734978784807026, 0.3852714792592451, 0.4020609689177945, 0.41715983604080975, 0.43535834847716615, 0.451843710441608, 0.46733784122625366, 0.48525134060764685, 0.5022217367659323, 0.5169144175597467, 0.5352071379893459, 0.5519566916627809, 0.5673395478515886, 0.5851861459668726, 0.6021196782239713, 0.6171721240389161, 0.6354194470914081, 0.6518990063923411, 0.6673183852108195, 0.6851745406747796, 0.7022391447681002, 0.7168884762795642, 0.7353132925345562, 0.7519269956974313, 0.7673361345659941, 0.7852281299419701, 0.8021329902112484, 0.817165638669394, 0.8354679163894616, 0.8520952728576958, 0.8673456918913871, 0.8852523646201007, 0.9022828353918158, 0.9169099802384153, 0.9353146578650922, 0.9520478275953792, 0.9673859691829421, 0.9852960552088916, 1.002178387483582, 1.017104540078435, 1.0353126098634675, 1.0520959555287845, 1.0674057665164582, 1.0852578259073198, 1.1022640620940365, 1.1171311640646309, 1.135454945731908]
38	画家	True	inanimate	animate	right	0.999	[0.0, 0.0, 0.0, 0.0, 0.0, 0.0, 0.0, 0.0, 0.0, 2.0, 24.0, 46.0, 66.0, 86.0, 96.0, 105.0, 113.0, 119.0, 127.0, 134.0, 139.0, 141.0, 125.0, 88.0, 20.0, -70.0, -186.0, -317.0, -451.0, -575.0, -683.0, -764.0, -813.0, -826.0, -830.0, -830.0, -820.0, -799.0, -766.0, -716.0, -662.0, -629.0, -624.0, -624.0, -624.0, -624.0, -624.0, -624.0, -614.0, -481.0, -210.0, 110.0, 487.0, 855.0, 959.0, 959.0, 959.0, 959.0, 959.0, 959.0]	[-490.0, -490.0, -490.0, -490.0, -490.0, -490.0, -490.0, -490.0, -490.0, -490.0, -487.0, -480.0, -475.0, -469.0, -467.0, -463.0, -461.0, -456.0, -448.0, -435.0, -417.0, -390.0, -324.0, -256.0, -163.0, -61.0, 40.0, 152.0, 261.0, 375.0, 472.0, 540.0, 540.0, 540.0, 540.0, 540.0, 540.0, 540.0, 540.0, 540.0, 540.0, 540.0, 540.0, 540.0, 540.0, 540.0, 540.0, 540.0, 540.0, 527.0, 515.0, 515.0, 513.0, 540.0, 540.0, 540.0, 540.0, 540.0, 540.0, 540.0]	[0.016386546019930393, 0.020954264793545008, 0.030919482931494713, 0.049451136437710375, 0.06559653067961335, 0.08114425075473264, 0.09912704076850787, 0.11588444508379325, 0.13094269362045452, 0.14930880058091134, 0.16578153317095712, 0.1811367414193228, 0.19911919010337442, 0.21590253576869145, 0.23094747227150947, 0.2493115312536247, 0.26553816272644326, 0.28106233081780374, 0.29909085942199454, 0.3158765944535844, 0.33095088560367003, 0.34916373406304047, 0.3657354532624595, 0.38117701874580234, 0.39902429952053353, 0.41583426913712174, 0.4309365496155806, 0.44931733392877504, 0.46539548551663756, 0.4811155787901953, 0.49908027809578925, 0.5158376824692823, 0.5309095843113028, 0.5491572486935183, 0.5655753680621274, 0.5811210401006974, 0.598972758220043, 0.6159366690553725, 0.6309484962257557, 0.649402667186223, 0.6653791015269235, 0.6810998774599284, 0.6989748062333092, 0.7158704504254274, 0.7309437175863422, 0.7491951367119327, 0.7656272506574169, 0.7810940747731365, 0.7989860702073202, 0.81597865303047, 0.8306614351458848, 0.849201280681882, 0.8654900348046795, 0.8812091040308587, 0.8991690247203223, 0.9158728398033418, 0.9309232375817373, 0.949272277939599, 0.9657173625892028, 0.9811206987942569]
39	螳螂	True	animate	inanimate	right	0.766	[0.0, 0.0, 0.0, 0.0, 0.0, 0.0, 0.0, 0.0, 0.0, 0.0, 0.0, -3.0, -3.0, -3.0, -3.0, -4.0, -12.0, -22.0, -38.0, -55.0, -75.0, -96.0, -128.0, -171.0, -228.0, -284.0, -335.0, -387.0, -454.0, -476.0, -478.0, -469.0, -440.0, -385.0, -272.0, -105.0, 108.0, 348.0, 731.0, 852.0, 959.0, 959.0, 959.0, 959.0, 959.0, 959.0, 959.0]	[-490.0, -490.0, -490.0, -490.0, -490.0, -490.0, -490.0, -490.0, -490.0, -490.0, -490.0, -490.0, -490.0, -490.0, -490.0, -489.0, -480.0, -475.0, -464.0, -451.0, -437.0, -412.0, -354.0, -264.0, -133.0, 41.0, 269.0, 489.0, 540.0, 540.0, 540.0, 540.0, 540.0, 540.0, 540.0, 540.0, 540.0, 540.0, 540.0, 540.0, 540.0, 540.0, 540.0, 540.0, 540.0, 540.0, 540.0]	[0.007299748423974961, 0.01191457110689953, 0.016291143372654915, 0.031452133145648986, 0.047790380544029176, 0.06319815403549, 0.08112837874796242, 0.09803358028875664, 0.11300649552140385, 0.13136031455360353, 0.14790779910981655, 0.16327495395671576, 0.1812799306353554, 0.1980974095640704, 0.21297236223472282, 0.23129477858310565, 0.24778184719616547, 0.26323501800652593, 0.28122019732836634, 0.29798579367343336, 0.3129580262466334, 0.33143847982864827, 0.34788015112280846, 0.3632551566697657, 0.3811294027254917, 0.39793868974084035, 0.4127593704033643, 0.43119510932592675, 0.447764097887557, 0.4631786980316974, 0.48113349871709943, 0.49793356971349567, 0.5129262822447345, 0.5313784051686525, 0.5474736234755255, 0.5632582286489196, 0.5810904907411896, 0.5979025084525347, 0.6129945488646626, 0.6312978505739011, 0.6477924284990877, 0.663191668689251, 0.681239994650241, 0.6980025190277956, 0.7130051301792264, 0.7312190026859753, 0.7478596711298451]
40	猴子	True	animate	inanimate	left	1.984	[0.0, 0.0, 0.0, 0.0, 1.0, 1.0, 1.0, 1.0, 1.0, 1.0, 1.0, 1.0, 1.0, 1.0, 1.0, 1.0, 1.0, 1.0, -6.0, -90.0, -212.0, -323.0, -420.0, -524.0, -628.0, -760.0, -797.0, -863.0, -937.0, -960.0, -960.0, -960.0, -960.0, -958.0, -958.0, -958.0, -958.0, -956.0, -954.0, -948.0, -928.0, -907.0, -883.0, -866.0, -855.0, -855.0, -855.0, -855.0, -853.0, -853.0, -853.0, -853.0, -853.0, -853.0, -853.0, -853.0, -853.0, -853.0, -853.0, -853.0, -853.0, -853.0, -853.0, -853.0, -853.0, -853.0, -853.0, -853.0, -853.0, -853.0, -853.0, -853.0, -853.0, -853.0, -853.0, -853.0, -853.0, -853.0, -853.0, -853.0, -853.0, -853.0, -853.0, -853.0, -853.0, -853.0, -853.0, -853.0, -853.0, -853.0, -853.0, -853.0, -853.0, -853.0, -853.0, -853.0, -853.0, -853.0, -853.0, -853.0, -853.0, -853.0, -853.0, -853.0, -853.0, -853.0, -853.0, -853.0, -853.0, -853.0, -853.0, -853.0, -853.0, -853.0, -853.0, -853.0, -853.0, -853.0, -853.0, -853.0]	[-490.0, -490.0, -490.0, -490.0, -490.0, -490.0, -490.0, -490.0, -490.0, -490.0, -490.0, -489.0, -489.0, -487.0, -485.0, -471.0, -446.0, -426.0, -414.0, -340.0, -287.0, -232.0, -165.0, -66.0, 45.0, 220.0, 286.0, 414.0, 540.0, 540.0, 540.0, 540.0, 540.0, 540.0, 540.0, 540.0, 540.0, 540.0, 540.0, 534.0, 513.0, 497.0, 483.0, 474.0, 467.0, 467.0, 467.0, 467.0, 467.0, 467.0, 467.0, 467.0, 467.0, 467.0, 467.0, 467.0, 467.0, 467.0, 467.0, 467.0, 467.0, 467.0, 467.0, 467.0, 467.0, 467.0, 467.0, 467.0, 467.0, 467.0, 467.0, 467.0, 467.0, 467.0, 467.0, 467.0, 467.0, 467.0, 467.0, 467.0, 467.0, 467.0, 467.0, 467.0, 467.0, 467.0, 467.0, 467.0, 467.0, 467.0, 467.0, 467.0, 467.0, 467.0, 467.0, 467.0, 467.0, 467.0, 467.0, 467.0, 467.0, 467.0, 467.0, 467.0, 467.0, 467.0, 467.0, 467.0, 467.0, 467.0, 467.0, 467.0, 467.0, 467.0, 467.0, 467.0, 467.0, 467.0, 467.0, 467.0]	[0.015049715177156031, 0.01958978595212102, 0.02821663726354018, 0.04653495759703219, 0.06333571131108329, 0.07834549050312489, 0.0966825841460377, 0.1130140048917383, 0.12860712222754955, 0.14650628564413637, 0.16348419117275625, 0.1780751547194086, 0.19644535769475624, 0.21301468758611009, 0.22851325565716252, 0.24647863768041134, 0.263346292602364, 0.27831545314984396, 0.29658018425107, 0.3132024207152426, 0.3285149623407051, 0.3464298270409927, 0.3633575565763749, 0.37811099470127374, 0.3964692510198802, 0.41282593039795756, 0.4285286156809889, 0.4463984243921004, 0.4632490127114579, 0.4780563813983463, 0.4964279496925883, 0.5131771620945074, 0.5285337356617674, 0.5463738484540954, 0.5633462925907224, 0.578243090538308, 0.5965047496720217, 0.6129010236472823, 0.6285320289898664, 0.6463827230618335, 0.6632855353527702, 0.6783076025312766, 0.6966801948146895, 0.7131300581386313, 0.7285115490085445, 0.7463363017886877, 0.7633374179713428, 0.7783311544917524, 0.7965378589578904, 0.8129529063007794, 0.8285385143244639, 0.8461444725980982, 0.8633534606196918, 0.8783403704874218, 0.8965306909522042, 0.9133307619486004, 0.9285818635835312, 0.9464014964178205, 0.9633988579153083, 0.9783062372007407, 0.9965825735707767, 1.0131563407485373, 1.0285736715886742, 1.0463847710634582, 1.0633947618771344, 1.0783328611287288, 1.0964986056787893, 1.1129249169607647, 1.1285617249668576, 1.1461263819946907, 1.1633763299323618, 1.1783468557987362, 1.1965129416203126, 1.21302936488064, 1.2285794742638245, 1.2463851124048233, 1.2633118179510348, 1.2783028238336556, 1.2965709682321176, 1.3131450767978095, 1.3284750263555907, 1.3464103710721247, 1.3633674552547745, 1.3783369571319781, 1.3965515122981742, 1.4130897808354348, 1.4285320289782248, 1.4464335817028768, 1.4633251299383119, 1.4780502374051139, 1.4962419231887907, 1.5131553167593665, 1.5286473995656706, 1.5463769204216078, 1.5633565325988457, 1.5783437837962992, 1.5965549256070517, 1.6131314234808087, 1.6285019916831516, 1.6463571230997331, 1.6634241165593266, 1.6782642531907186, 1.6963975710677914, 1.7130491621792316, 1.728569234313909, 1.7463455178076401, 1.7633394659496844, 1.7782741518458351, 1.7965972509118728, 1.8131321061518975, 1.828484242374543, 1.8463492724695243, 1.8633340045926161, 1.8780502373701893, 1.8964139550807886, 1.9131027514813468, 1.9285804982646368, 1.9463946697651409, 1.963353119266685, 1.9781229413347319]
41	扇子	False	animate	inanimate	right	0.703	[0.0, 0.0, 0.0, 0.0, 0.0, 0.0, 0.0, -3.0, -7.0, -9.0, -9.0, -10.0, -12.0, -13.0, -13.0, -13.0, -12.0, -7.0, 0.0, 5.0, 7.0, 7.0, 14.0, 28.0, 57.0, 104.0, 171.0, 251.0, 342.0, 441.0, 564.0, 686.0, 815.0, 842.0, 873.0, 876.0, 876.0, 873.0, 868.0, 868.0, 868.0, 868.0, 868.0]	[-490.0, -490.0, -490.0, -490.0, -490.0, -490.0, -490.0, -487.0, -485.0, -484.0, -483.0, -482.0, -479.0, -478.0, -476.0, -468.0, -458.0, -445.0, -433.0, -422.0, -417.0, -415.0, -404.0, -388.0, -363.0, -327.0, -271.0, -191.0, -74.0, 59.0, 217.0, 374.0, 540.0, 540.0, 540.0, 540.0, 540.0, 540.0, 540.0, 540.0, 540.0, 540.0, 540.0]	[0.01588837045710534, 0.020755438308697194, 0.02993285981938243, 0.04812147363554686, 0.0650126805412583, 0.07977669994579628, 0.09825886017642915, 0.11480634473264217, 0.1316070983884856, 0.1481265936163254, 0.16494816855993122, 0.1797661185846664, 0.19830186810577288, 0.2148206806741655, 0.23027794749941677, 0.2479354470851831, 0.2649567018961534, 0.2800316757056862, 0.29829947877442464, 0.3146210008417256, 0.3302758994977921, 0.3481897402089089, 0.3649805952445604, 0.380056593043264, 0.39828138815937564, 0.41464352887123823, 0.4302898941677995, 0.4478897084482014, 0.46491232863627374, 0.4800893610226922, 0.49818718020105734, 0.5146882434492, 0.530246544862166, 0.548135126940906, 0.5649666005629115, 0.5800443050102331, 0.5982004922116175, 0.6148254593717866, 0.6303455314482562, 0.6481054309406318, 0.664960456546396, 0.6800494250492193, 0.6982687588315457]
42	老师	True	inanimate	animate	right	0.973	[0.0, 0.0, 0.0, 0.0, 0.0, 0.0, 0.0, 0.0, 0.0, 0.0, 0.0, 0.0, 0.0, -2.0, -2.0, -2.0, -3.0, -3.0, -3.0, -3.0, -3.0, -3.0, -11.0, -28.0, -54.0, -88.0, -139.0, -231.0, -432.0, -592.0, -665.0, -804.0, -825.0, -825.0, -825.0, -825.0, -826.0, -830.0, -841.0, -847.0, -851.0, -851.0, -851.0, -851.0, -851.0, -848.0, -789.0, -663.0, -501.0, -277.0, -32.0, 197.0, 401.0, 571.0, 704.0, 833.0, 856.0, 856.0]	[-490.0, -490.0, -490.0, -490.0, -490.0, -490.0, -490.0, -490.0, -490.0, -490.0, -490.0, -490.0, -486.0, -483.0, -480.0, -477.0, -469.0, -431.0, -413.0, -342.0, -264.0, -169.0, -70.0, 36.0, 136.0, 219.0, 297.0, 376.0, 495.0, 540.0, 540.0, 540.0, 540.0, 540.0, 540.0, 540.0, 540.0, 530.0, 514.0, 505.0, 501.0, 500.0, 500.0, 500.0, 500.0, 498.0, 487.0, 471.0, 449.0, 422.0, 422.0, 422.0, 436.0, 460.0, 500.0, 540.0, 540.0, 540.0]	[0.00033484766026958823, 0.0047650092164985836, 0.015418696159031242, 0.03388310706941411, 0.05021009047050029, 0.06564721860922873, 0.08355491532711312, 0.10037922096671537, 0.11517669097520411, 0.13358000328298658, 0.1501940477755852, 0.1657656611641869, 0.18334567814599723, 0.20032665570033714, 0.21544873341917992, 0.23362130462192, 0.2502438824158162, 0.26570285588968545, 0.28358051530085504, 0.3003563516540453, 0.31525451492052525, 0.33364383259322494, 0.3501483091386035, 0.365743474510964, 0.3832896995591, 0.40029286372009665, 0.41528386960271746, 0.43359092593891546, 0.44989504001569003, 0.46562059462303296, 0.4832958435290493, 0.5002901330590248, 0.5150930644012988, 0.5333588194916956, 0.550082090543583, 0.5657960398239084, 0.5831514596939087, 0.6002983250073157, 0.6154128934722394, 0.6335837579681538, 0.650093354517594, 0.6656902265385725, 0.683441934059374, 0.7003211943665519, 0.7154159654746763, 0.7335772726219147, 0.7501336318673566, 0.7657827278017066, 0.783199587604031, 0.8003444049973041, 0.8153971921419725, 0.8335840993095189, 0.8501029118779115, 0.8656485839164816, 0.8834228194318712, 0.9003795622847974, 0.915382856153883, 0.9336878645117395]
43	天鹅	True	inanimate	animate	right	0.734	[0.0, 0.0, 0.0, 0.0, 0.0, 0.0, 0.0, 0.0, 0.0, 0.0, 0.0, 0.0, 0.0, 0.0, -1.0, -2.0, -2.0, -2.0, -2.0, 2.0, 4.0, 8.0, 13.0, 17.0, 17.0, 17.0, 12.0, 1.0, -9.0, -17.0, -14.0, 70.0, 197.0, 350.0, 499.0, 632.0, 762.0, 875.0, 939.0, 959.0, 959.0, 959.0, 959.0, 959.0, 959.0]	[-490.0, -490.0, -490.0, -490.0, -490.0, -490.0, -490.0, -490.0, -490.0, -490.0, -490.0, -490.0, -490.0, -490.0, -492.0, -497.0, -498.0, -498.0, -498.0, -498.0, -498.0, -498.0, -497.0, -488.0, -473.0, -455.0, -426.0, -375.0, -312.0, -242.0, -202.0, -118.0, -27.0, 99.0, 246.0, 404.0, 540.0, 540.0, 540.0, 540.0, 540.0, 540.0, 540.0, 540.0, 540.0]	[0.015793479862622917, 0.020942488801665604, 0.029624636052176356, 0.047962412412744015, 0.06477545405505225, 0.07976202259305865, 0.09815919090760872, 0.1146008622017689, 0.13001785171218216, 0.14794398040976375, 0.1648048086790368, 0.17977601726306602, 0.19802470569266006, 0.21468892612028867, 0.2299683584133163, 0.24803648167289793, 0.2647686274140142, 0.2797736279317178, 0.29803938302211463, 0.314664350124076, 0.32995402242522687, 0.3478166632121429, 0.36473005678271875, 0.37976987328147516, 0.3981271056109108, 0.41438513970933855, 0.42995402246015146, 0.44791018846444786, 0.4646812461433001, 0.4798063958878629, 0.4980509883025661, 0.5144551129778847, 0.529928422474768, 0.5478518204763532, 0.5646546221687458, 0.5797241346444935, 0.5982165348250419, 0.6143926490331069, 0.6299987370730378, 0.6479368124273606, 0.6647140140994452, 0.6797592919319868, 0.6980424550129101, 0.7143745584180579, 0.7299325184430927]
