trialIndex	stimulus	left_option	right_option	response	response_time	xTrajectory	yTrajectory	tTrajectory
0	animate/a28.jpg	animate	inanimate	left	1.272	[0.0, 0.0, 0.0, 0.0, 0.0, 0.0, 0.0, 0.0, 0.0, 0.0, 0.0, 0.0, 0.0, 0.0, 0.0, 0.0, 0.0, 0.0, 1.0, 7.0, 18.0, 31.0, 69.0, 110.0, 147.0, 170.0, 186.0, 195.0, 200.0, 200.0, 198.0, 177.0, 153.0, 126.0, 122.0, 124.0, 142.0, 174.0, 224.0, 262.0, 279.0, 281.0, 275.0, 250.0, 71.0, -9.0, -264.0, -434.0, -571.0, -665.0, -712.0, -734.0, -751.0, -758.0, -785.0, -796.0, -833.0, -840.0, -851.0, -853.0, -853.0, -852.0, -849.0, -849.0, -849.0, -849.0, -849.0, -849.0, -849.0, -849.0, -849.0, -849.0, -849.0, -849.0, -849.0, -849.0, -849.0]	[-490.0, -490.0, -490.0, -490.0, -490.0, -490.0, -490.0, -490.0, -490.0, -490.0, -490.0, -490.0, -490.0, -490.0, -490.0, -490.0, -491.0, -491.0, -491.0, -484.0, -472.0, -461.0, -426.0, -390.0, -345.0, -298.0, -246.0, -196.0, -143.0, -86.0, -30.0, 33.0, 87.0, 134.0, 144.0, 151.0, 167.0, 190.0, 218.0, 236.0, 244.0, 245.0, 245.0, 245.0, 253.0, 266.0, 301.0, 323.0, 333.0, 333.0, 333.0, 333.0, 331.0, 330.0, 326.0, 326.0, 339.0, 344.0, 359.0, 369.0, 379.0, 387.0, 399.0, 408.0, 414.0, 414.0, 414.0, 414.0, 414.0, 414.0, 414.0, 414.0, 414.0, 414.0, 414.0, 414.0, 414.0]	[0.010243984870612621, 0.018627807032316923, 0.0249226710293442, 0.035633360559586436, 0.05235424224520102, 0.0691928839078173, 0.08565025654388592, 0.10260802338598296, 0.11913741729222238, 0.13620680005988106, 0.15248497284483165, 0.16962774220155552, 0.1857980537461117, 0.2030101137352176, 0.21928009449038655, 0.2362614133162424, 0.2525901034241542, 0.26956732623511925, 0.28595779760507867, 0.3028370578540489, 0.31902819068636745, 0.33603476820280775, 0.35237438092008233, 0.3695215876214206, 0.3857884964090772, 0.4029933884157799, 0.4190254600252956, 0.43617471476318315, 0.45262184739112854, 0.46955162490485236, 0.48572500847512856, 0.5027960978914052, 0.5193292464246042, 0.5361699360655621, 0.5523627756047063, 0.5695410436019301, 0.5857198884477839, 0.6032818148378283, 0.6190124893910252, 0.6366187890525907, 0.652715713949874, 0.6697492567473091, 0.6860342561849393, 0.7031367482850328, 0.7192807771498337, 0.7364044318674132, 0.7526355006848462, 0.7697188781457953, 0.7857939577079378, 0.8032234468846582, 0.8191254706471227, 0.8390818482730538, 0.852624919381924, 0.8727369448752142, 0.8858161444077268, 0.906369854870718, 0.9191497052670456, 0.9388951390865259, 0.9524242155603133, 0.9701353044365533, 0.9858052217168733, 1.003791083698161, 1.0191203506547026, 1.0369689967483282, 1.0525013568112627, 1.0699871659162454, 1.0859178616083227, 1.103234369540587, 1.119352457113564, 1.136242298700381, 1.1526436926797032, 1.169568350247573, 1.1857198884827085, 1.2027636712300591, 1.2192811184795573, 1.2361818827339448, 1.2525808874052018]
1	animate/a38.jpg	inanimate	animate	right	1.095	[0.0, 0.0, 0.0, 0.0, 0.0, 0.0, 0.0, -1.0, -3.0, -4.0, -4.0, -4.0, -4.0, -4.0, -4.0, -4.0, -4.0, -4.0, -3.0, -3.0, -3.0, -3.0, -4.0, -7.0, -11.0, -14.0, -14.0, -14.0, -16.0, -16.0, -16.0, -19.0, -21.0, -27.0, -27.0, -16.0, 29.0, 105.0, 231.0, 376.0, 531.0, 676.0, 788.0, 877.0, 918.0, 930.0, 930.0, 928.0, 923.0, 918.0, 902.0, 858.0, 764.0, 626.0, 492.0, 411.0, 408.0, 461.0, 596.0, 771.0, 928.0, 959.0, 959.0, 959.0, 959.0, 959.0]	[-490.0, -490.0, -490.0, -490.0, -490.0, -490.0, -490.0, -490.0, -490.0, -489.0, -487.0, -486.0, -485.0, -484.0, -483.0, -482.0, -482.0, -479.0, -477.0, -468.0, -463.0, -440.0, -424.0, -408.0, -398.0, -388.0, -381.0, -377.0, -370.0, -369.0, -367.0, -357.0, -337.0, -289.0, -248.0, -167.0, -77.0, 27.0, 131.0, 221.0, 307.0, 388.0, 455.0, 508.0, 537.0, 540.0, 540.0, 540.0, 540.0, 540.0, 540.0, 540.0, 540.0, 527.0, 495.0, 462.0, 442.0, 442.0, 442.0, 459.0, 482.0, 510.0, 526.0, 528.0, 528.0, 528.0]	[0.0035661793663166463, 0.008206602069549263, 0.022783912310842425, 0.039018053095787764, 0.05923486786196008, 0.07235127268359065, 0.09206086653284729, 0.10559506295248866, 0.12624810135457665, 0.13902761042118073, 0.15811495413072407, 0.1723188460455276, 0.19262679672101513, 0.20557390031171963, 0.22534356877440587, 0.2391754076234065, 0.25893859076313674, 0.27248678187606856, 0.2923527062521316, 0.3055407910142094, 0.32566066714935005, 0.3391518556745723, 0.35770057584159076, 0.37251272320281714, 0.38936399412341416, 0.4058258041040972, 0.4228153149597347, 0.43916789832292125, 0.45603725989349186, 0.4725734804524109, 0.48931620753137395, 0.5058278521173634, 0.5227217896608636, 0.5391887196456082, 0.5561058678431436, 0.5722666220972314, 0.5896275032428093, 0.6056278309551999, 0.6227187176700681, 0.6390986077021807, 0.656113377190195, 0.67247858986957, 0.6894462553900667, 0.7058585720951669, 0.7227723069954664, 0.7391716529964469, 0.7560611532535404, 0.7723294273600914, 0.7895384153234772, 0.805660598911345, 0.8227938109776005, 0.8392054449650459, 0.8560836812248453, 0.8722737900679931, 0.8894339674152434, 0.905917281343136, 0.9229791547986679, 0.9389194078394212, 0.9560928972205147, 0.9722509207786061, 0.989619652624242, 1.005591649620328, 1.0228381842607632, 1.038931354531087, 1.0561331745120697, 1.0722618434228934]
2	animate/a70.jpg	animate	inanimate	left	1.647	[0.0, 0.0, 0.0, 0.0, 0.0, 0.0, 0.0, 0.0, 1.0, 1.0, 1.0, 3.0, 7.0, 8.0, 11.0, 17.0, 21.0, 22.0, 22.0, 24.0, 32.0, 51.0, 74.0, 107.0, 141.0, 168.0, 180.0, 153.0, 105.0, 49.0, 3.0, -22.0, -33.0, -34.0, -34.0, -14.0, 55.0, 174.0, 383.0, 505.0, 613.0, 706.0, 769.0, 793.0, 797.0, 797.0, 758.0, 636.0, 453.0, 145.0, -55.0, -268.0, -466.0, -633.0, -774.0, -885.0, -960.0, -960.0, -960.0, -960.0, -960.0, -960.0, -960.0, -960.0, -960.0, -960.0, -960.0, -960.0, -960.0, -960.0, -960.0, -960.0, -960.0, -950.0, -923.0, -864.0, -831.0, -803.0, -778.0, -764.0, -748.0, -737.0, -733.0, -732.0, -732.0, -732.0, -732.0, -732.0, -732.0, -729.0, -727.0, -725.0, -725.0, -725.0, -739.0, -756.0, -764.0, -766.0, -766.0]	[-490.0, -490.0, -490.0, -490.0, -490.0, -490.0, -490.0, -490.0, -490.0, -490.0, -490.0, -490.0, -487.0, -487.0, -484.0, -480.0, -477.0, -477.0, -477.0, -477.0, -471.0, -456.0, -423.0, -357.0, -259.0, -156.0, -21.0, 58.0, 139.0, 220.0, 290.0, 357.0, 404.0, 438.0, 465.0, 497.0, 537.0, 540.0, 540.0, 540.0, 540.0, 540.0, 540.0, 540.0, 540.0, 540.0, 531.0, 513.0, 486.0, 453.0, 446.0, 446.0, 447.0, 473.0, 492.0, 510.0, 523.0, 530.0, 530.0, 530.0, 530.0, 530.0, 530.0, 530.0, 530.0, 530.0, 530.0, 530.0, 530.0, 530.0, 530.0, 530.0, 530.0, 521.0, 503.0, 457.0, 425.0, 395.0, 361.0, 335.0, 309.0, 290.0, 281.0, 280.0, 280.0, 280.0, 280.0, 280.0, 279.0, 279.0, 284.0, 288.0, 296.0, 317.0, 360.0, 413.0, 438.0, 449.0, 449.0]	[0.011330789246130735, 0.016064737166743726, 0.021124316845089197, 0.03810563572915271, 0.05450873635709286, 0.07134225801564753, 0.08780918794218451, 0.1046106243156828, 0.12112295150291175, 0.1380124517600052, 0.15454969636630267, 0.17128764471272007, 0.18776891066227108, 0.20468435221118852, 0.2211325088283047, 0.23802303313277662, 0.2545036163646728, 0.2714074526447803, 0.2875176895176992, 0.3046386135974899, 0.3211161248618737, 0.33804931573104113, 0.35448859771713614, 0.371358300675638, 0.3878409319440834, 0.40468435222283006, 0.4210987169062719, 0.4379612518241629, 0.45424147258745506, 0.47145592188462615, 0.48752690554829314, 0.5046526082442142, 0.5211717621423304, 0.5380581904319115, 0.554207339300774, 0.5714095006114803, 0.5875504575087689, 0.6048072320991196, 0.6208915277384222, 0.6381493263179436, 0.6542349872761406, 0.6714132552733645, 0.6875456788693555, 0.7047707095043734, 0.7209075703867711, 0.737966371816583, 0.7542083633015864, 0.7713583006407134, 0.7875576255028136, 0.8045979949529283, 0.8208911864203401, 0.8379230225109495, 0.8544336431077681, 0.8714965405524708, 0.8878491239156574, 0.9046761602512561, 0.921010652964469, 0.9379530598525889, 0.9543851737980731, 0.9714347592671402, 0.9902811218635179, 1.0046317869564518, 1.0235641654580832, 1.0379551078076474, 1.0567274011555128, 1.071306418045424, 1.0901906685903668, 1.1046826455858536, 1.122151387971826, 1.1380711610545404, 1.1549545173184015, 1.1712115274276584, 1.187602681457065, 1.2042870405712165, 1.22395396779757, 1.2377486013574526, 1.257233256706968, 1.2711490634828806, 1.2885048246826045, 1.3044239151058719, 1.3212946420535445, 1.3378438332583755, 1.3545285337022506, 1.3711200502002612, 1.388090105028823, 1.4044187951367348, 1.4213953352882527, 1.4378284732811153, 1.4547749761259183, 1.4709176397300325, 1.4877235133899376, 1.5044447364052758, 1.5213943112757988, 1.5377151506836526, 1.5545783683191985, 1.5710934262024239, 1.5880556303891353, 1.60429489123635, 1.6211424075299874]
3	animate/a21.jpg	inanimate	animate	right	0.785	[0.0, 0.0, 0.0, 0.0, 0.0, 0.0, 0.0, 0.0, -1.0, -2.0, -3.0, -3.0, -3.0, -3.0, -3.0, -3.0, -3.0, 2.0, 15.0, 80.0, 129.0, 195.0, 262.0, 332.0, 401.0, 476.0, 536.0, 598.0, 661.0, 702.0, 742.0, 776.0, 793.0, 803.0, 805.0, 805.0, 805.0, 805.0, 805.0, 805.0, 805.0, 810.0, 819.0, 829.0, 830.0, 830.0, 830.0]	[-490.0, -490.0, -490.0, -490.0, -490.0, -490.0, -490.0, -488.0, -487.0, -486.0, -485.0, -485.0, -485.0, -485.0, -485.0, -482.0, -476.0, -466.0, -440.0, -331.0, -240.0, -150.0, -53.0, 38.0, 121.0, 209.0, 289.0, 368.0, 439.0, 487.0, 533.0, 540.0, 540.0, 540.0, 540.0, 540.0, 540.0, 540.0, 540.0, 540.0, 540.0, 536.0, 518.0, 501.0, 500.0, 500.0, 500.0]	[0.0004911099676974118, 0.006134369119536132, 0.016384941700380296, 0.033106506103649735, 0.04978745186235756, 0.06615949125261977, 0.08311418612720445, 0.09970877459272742, 0.11644569900818169, 0.13280613301321864, 0.14965057733934373, 0.16637282440206036, 0.183295433933381, 0.19973676389781758, 0.2167416347656399, 0.23309626610716805, 0.25002536101965234, 0.2661287712980993, 0.28344288980588317, 0.29970263061113656, 0.3167259334004484, 0.3330624741502106, 0.3500707583152689, 0.3664274376933463, 0.38328758330317214, 0.39975109993247315, 0.4166781468084082, 0.4328658663434908, 0.45001375570427626, 0.46646088833222166, 0.4832718819961883, 0.4997394945821725, 0.5166365041513927, 0.5330556475091726, 0.5499151104595512, 0.566192600526847, 0.5834507404942997, 0.5997234519454651, 0.6165774535620585, 0.6330416528508067, 0.6499813290429302, 0.6661871392279863, 0.6833087459672242, 0.6997251586290076, 0.7164757362916134, 0.7327754130819812, 0.7497976918821223]
4	inanimate/n60.jpg	inanimate	animate	left	1.259	[0.0, 0.0, 0.0, 0.0, 0.0, 0.0, 0.0, -7.0, -12.0, -18.0, -21.0, -21.0, -21.0, -21.0, -21.0, -21.0, -21.0, -21.0, -21.0, -22.0, -24.0, -35.0, -39.0, -69.0, -92.0, -138.0, -191.0, -256.0, -323.0, -387.0, -459.0, -517.0, -570.0, -609.0, -632.0, -648.0, -653.0, -655.0, -656.0, -657.0, -657.0, -658.0, -659.0, -662.0, -666.0, -673.0, -681.0, -689.0, -692.0, -692.0, -694.0, -694.0, -694.0, -694.0, -694.0, -694.0, -694.0, -694.0, -694.0, -694.0, -694.0, -694.0, -694.0, -694.0, -694.0, -694.0, -694.0, -694.0, -694.0, -694.0, -694.0, -694.0, -694.0, -694.0, -694.0, -694.0]	[-490.0, -490.0, -490.0, -490.0, -490.0, -490.0, -490.0, -490.0, -489.0, -488.0, -488.0, -487.0, -487.0, -487.0, -487.0, -487.0, -487.0, -487.0, -487.0, -484.0, -471.0, -444.0, -433.0, -368.0, -314.0, -232.0, -146.0, -61.0, 37.0, 129.0, 215.0, 284.0, 344.0, 389.0, 417.0, 435.0, 439.0, 439.0, 439.0, 439.0, 439.0, 439.0, 439.0, 438.0, 433.0, 425.0, 419.0, 411.0, 408.0, 408.0, 408.0, 408.0, 408.0, 408.0, 408.0, 408.0, 408.0, 408.0, 408.0, 408.0, 408.0, 408.0, 408.0, 408.0, 408.0, 408.0, 408.0, 408.0, 408.0, 408.0, 408.0, 408.0, 408.0, 408.0, 408.0, 408.0]	[0.00044366472866386175, 0.00576948415255174, 0.01628663786686957, 0.03279452776769176, 0.04980861459625885, 0.06614174199057743, 0.08312340214615688, 0.09922374039888382, 0.11609173670876771, 0.13277814380126074, 0.14958538278006017, 0.16588471818249673, 0.18277558375848457, 0.19954800681443885, 0.21594155015191063, 0.23255320527823642, 0.2493020763504319, 0.26612638199003413, 0.2827557864366099, 0.29938587360084057, 0.3161989152431488, 0.3325788052752614, 0.3523624683730304, 0.36592772614676505, 0.38529735227348283, 0.39957736141514033, 0.41897088091354817, 0.4326211306033656, 0.45192556211259216, 0.46597107546404004, 0.483548020478338, 0.49962583073647693, 0.5159340408281423, 0.5328928316594101, 0.5493689776048996, 0.5661635872675106, 0.5828083517262712, 0.5995780440862291, 0.6158336888765916, 0.6327969171106815, 0.6494392922031693, 0.6662758858292364, 0.6825294826412573, 0.6995176281780005, 0.7161429366096854, 0.7328873703372665, 0.7492058204370551, 0.7661386699764989, 0.782816885097418, 0.7995084121939726, 0.8159616888151504, 0.8329314023139887, 0.8494293935946189, 0.8660253473790362, 0.8825311893015169, 0.8996101294178516, 0.9161511286511086, 0.9327627837774344, 0.949421884259209, 0.966273155179806, 0.9827052691834979, 0.9995985240675509, 1.0160811553359963, 1.0328119357582182, 1.0494205189170316, 1.0661639285972342, 1.0828148370492272, 1.099622417415958, 1.116067502007354, 1.1326381972176023, 1.1495563694625162, 1.1660529953660443, 1.1826905918424018, 1.1994988548685797, 1.216144643316511, 1.2326194238848984]
5	animate/a69.jpg	inanimate	animate	right	0.995	[0.0, 1.0, 1.0, 1.0, 1.0, 1.0, 1.0, 1.0, -1.0, -2.0, -3.0, -3.0, -3.0, -3.0, -3.0, -3.0, -3.0, -3.0, 4.0, 10.0, 19.0, 33.0, 44.0, 47.0, 47.0, 39.0, 19.0, -26.0, -105.0, -216.0, -411.0, -551.0, -672.0, -759.0, -807.0, -825.0, -828.0, -830.0, -830.0, -830.0, -830.0, -830.0, -830.0, -830.0, -829.0, -828.0, -827.0, -823.0, -811.0, -771.0, -687.0, -554.0, -392.0, -220.0, 53.0, 266.0, 455.0, 599.0, 683.0, 705.0]	[-490.0, -491.0, -491.0, -491.0, -491.0, -491.0, -491.0, -487.0, -483.0, -479.0, -474.0, -469.0, -463.0, -458.0, -452.0, -447.0, -438.0, -423.0, -394.0, -371.0, -346.0, -315.0, -279.0, -251.0, -230.0, -208.0, -182.0, -143.0, -92.0, -40.0, 47.0, 109.0, 161.0, 204.0, 233.0, 248.0, 257.0, 267.0, 277.0, 283.0, 286.0, 289.0, 294.0, 299.0, 306.0, 312.0, 321.0, 337.0, 360.0, 400.0, 438.0, 460.0, 460.0, 460.0, 455.0, 455.0, 455.0, 477.0, 488.0, 493.0]	[0.01333987555699423, 0.019185545213986188, 0.02466291654855013, 0.041784523287788033, 0.058302653196733445, 0.07816550554707646, 0.09166181401815265, 0.11174414359265938, 0.12510460149496794, 0.14367653231602162, 0.15824462653836235, 0.1757925582351163, 0.19183145655551925, 0.20887182600563392, 0.22525547072291374, 0.2420900163706392, 0.25845113303512335, 0.275599705055356, 0.29156009678263217, 0.30872675945283845, 0.32496021763654426, 0.3422552215633914, 0.3582173199392855, 0.3754723878810182, 0.391819168580696, 0.40873870614450425, 0.42525308136828244, 0.4421463363105431, 0.4584559117211029, 0.47544132656184956, 0.49177957396022975, 0.5087704501347616, 0.5251237161573954, 0.5420596377225593, 0.5583657997776754, 0.5754082172643393, 0.5916450887452811, 0.6086530315224081, 0.6250800255220383, 0.6421081069856882, 0.6582828558748588, 0.675439961196389, 0.6916024220990948, 0.7087759114219807, 0.7248974123504013, 0.7423040321446024, 0.7582586212083697, 0.7753402919624932, 0.7915812594583258, 0.8088062900933437, 0.8249267669743858, 0.8420466670650057, 0.8582661305554211, 0.8754430332337506, 0.8916017394512892, 0.9087247115094215, 0.925162969448138, 0.9421900269226171, 0.9584388450603001, 0.9754556625266559]
6	animate/a72.jpg	inanimate	animate	right	1.246	[0.0, 0.0, 0.0, 0.0, 0.0, 0.0, 0.0, 0.0, 0.0, 0.0, 0.0, 0.0, 0.0, 0.0, 0.0, 0.0, 0.0, 1.0, -3.0, -19.0, -43.0, -85.0, -121.0, -173.0, -237.0, -294.0, -362.0, -453.0, -508.0, -558.0, -590.0, -618.0, -636.0, -646.0, -648.0, -651.0, -650.0, -644.0, -628.0, -575.0, -387.0, -201.0, -2.0, 210.0, 430.0, 637.0, 787.0, 904.0, 959.0, 959.0, 959.0, 959.0, 959.0, 959.0, 959.0, 959.0, 959.0, 959.0, 959.0, 959.0, 959.0, 959.0, 959.0, 959.0, 959.0, 959.0, 959.0, 959.0, 959.0, 959.0, 959.0, 959.0, 959.0, 959.0, 959.0]	[-490.0, -490.0, -490.0, -490.0, -490.0, -490.0, -490.0, -490.0, -490.0, -490.0, -490.0, -490.0, -490.0, -490.0, -490.0, -490.0, -490.0, -489.0, -482.0, -469.0, -449.0, -407.0, -367.0, -293.0, -206.0, -117.0, -31.0, 80.0, 144.0, 213.0, 266.0, 316.0, 364.0, 394.0, 414.0, 430.0, 444.0, 458.0, 474.0, 498.0, 520.0, 520.0, 522.0, 507.0, 496.0, 496.0, 501.0, 521.0, 540.0, 540.0, 540.0, 540.0, 540.0, 540.0, 540.0, 540.0, 540.0, 540.0, 540.0, 540.0, 540.0, 540.0, 540.0, 540.0, 540.0, 540.0, 540.0, 540.0, 540.0, 540.0, 540.0, 540.0, 540.0, 540.0, 540.0]	[0.003072611754760146, 0.01038635487202555, 0.02079086867161095, 0.03714140399824828, 0.054084834875538945, 0.07056917285080999, 0.08738016651477665, 0.10500148480059579, 0.12070075672818348, 0.13827224040869623, 0.15420054679270834, 0.17140202544396743, 0.18741907842922956, 0.20525782590266317, 0.22051677823765203, 0.2390709597384557, 0.2540469469386153, 0.27195020631188527, 0.28741532377898693, 0.304298680042848, 0.3207953059463762, 0.3378305554506369, 0.35406298958696425, 0.3709524898440577, 0.3873770944774151, 0.40438571997219697, 0.42068915138952434, 0.4375520276953466, 0.45407049893401563, 0.4710941430530511, 0.48745150509057567, 0.5042505520978011, 0.5207946232985705, 0.537685830204282, 0.554029880266171, 0.5709999351529405, 0.5874265877646394, 0.6043314480339177, 0.6204758182284422, 0.6373772651422769, 0.6540926855523139, 0.6705466448329389, 0.6875399103737436, 0.7038286644383334, 0.7208901965641417, 0.7373946731677279, 0.7544650799245574, 0.7704459516098723, 0.7877324221772142, 0.8038426591083407, 0.8209871351136826, 0.8374120811349712, 0.8543804293149151, 0.8706292474525981, 0.8877658728160895, 0.9040819335496053, 0.9210424310876988, 0.937361222517211, 0.9542684720945545, 0.9706295887590386, 0.9875655103242025, 1.0040846642223187, 1.020992937788833, 1.037290225212928, 1.0542708613793366, 1.0707664633519016, 1.087764166179113, 1.104067938926164, 1.1210898763965815, 1.137386822490953, 1.154439821257256, 1.170750079327263, 1.1880549819325097, 1.2040450695785694, 1.22134041483514]
7	animate/a20.jpg	inanimate	animate	right	0.844	[0.0, 0.0, 0.0, 0.0, 0.0, 0.0, 0.0, 0.0, 0.0, 2.0, 2.0, 2.0, 2.0, 2.0, 1.0, -2.0, -3.0, -5.0, -7.0, -9.0, -15.0, -22.0, -39.0, -76.0, -131.0, -194.0, -273.0, -352.0, -439.0, -529.0, -611.0, -717.0, -758.0, -774.0, -783.0, -783.0, -768.0, -731.0, -640.0, -512.0, -347.0, -143.0, 97.0, 472.0, 694.0, 859.0, 959.0, 959.0, 959.0, 959.0, 959.0]	[-490.0, -490.0, -490.0, -490.0, -490.0, -490.0, -490.0, -490.0, -490.0, -486.0, -469.0, -468.0, -468.0, -468.0, -467.0, -467.0, -469.0, -471.0, -471.0, -471.0, -470.0, -454.0, -423.0, -359.0, -285.0, -215.0, -133.0, -46.0, 37.0, 124.0, 207.0, 312.0, 365.0, 395.0, 427.0, 444.0, 459.0, 474.0, 491.0, 497.0, 497.0, 497.0, 497.0, 501.0, 536.0, 540.0, 540.0, 540.0, 540.0, 540.0, 540.0]	[0.01377166184829548, 0.019275315804407, 0.025624110421631485, 0.042680522543378174, 0.05997996375663206, 0.07590622216230258, 0.09292167430976406, 0.10923227370949462, 0.12642078171484172, 0.14254979195538908, 0.1598645931808278, 0.17592363012954593, 0.19599196501076221, 0.2093677829252556, 0.2293729712255299, 0.24275561579270288, 0.26258467620937154, 0.2760871286736801, 0.2955823653610423, 0.30921008705627173, 0.32931801659287885, 0.34268018120201305, 0.3623959190445021, 0.37577378493733704, 0.39580901054432616, 0.40935378830181435, 0.4286479798029177, 0.4427143145003356, 0.4600803156499751, 0.47600418474758044, 0.4953301202622242, 0.5093756336136721, 0.5263767497381195, 0.5424617280368693, 0.559831483871676, 0.5757625209516846, 0.5934753165347502, 0.6093418416567147, 0.6262313419138081, 0.6428576743928716, 0.6596058627474122, 0.6760099874227308, 0.6929837969364598, 0.7093650522874668, 0.7262047179392539, 0.7426760852104053, 0.7596918786875904, 0.7760683553642593, 0.7929967675590888, 0.8096005721017718, 0.8261944779078476]
8	inanimate/n72.jpg	animate	inanimate	right	0.813	[0.0, 0.0, 0.0, 0.0, 0.0, 0.0, 0.0, 1.0, 2.0, 2.0, 2.0, 2.0, 2.0, 2.0, 2.0, 2.0, 2.0, 1.0, 0.0, -7.0, -30.0, -77.0, -157.0, -252.0, -344.0, -466.0, -498.0, -492.0, -436.0, -319.0, -152.0, 65.0, 305.0, 535.0, 737.0, 883.0, 959.0, 959.0, 959.0, 959.0, 959.0, 959.0, 959.0, 959.0, 956.0, 951.0, 949.0, 944.0, 942.0]	[-490.0, -490.0, -490.0, -490.0, -490.0, -490.0, -487.0, -484.0, -483.0, -483.0, -483.0, -483.0, -483.0, -483.0, -483.0, -483.0, -483.0, -483.0, -483.0, -480.0, -469.0, -435.0, -366.0, -275.0, -160.0, 24.0, 132.0, 207.0, 289.0, 369.0, 442.0, 485.0, 520.0, 536.0, 536.0, 536.0, 536.0, 537.0, 537.0, 537.0, 537.0, 537.0, 537.0, 537.0, 530.0, 523.0, 520.0, 514.0, 511.0]	[0.015070400026161224, 0.02064812323078513, 0.027940362342633307, 0.04455645487178117, 0.06133092590607703, 0.07832316739950329, 0.09481399063952267, 0.11174445087090135, 0.1278686824371107, 0.14504251308972016, 0.16156678699189797, 0.17836993001401424, 0.19472763338126242, 0.21165365626802668, 0.22820387146202847, 0.24519269965821877, 0.2618446320993826, 0.2808254798874259, 0.29459417215548456, 0.31158914434490725, 0.3280106769525446, 0.3448233773233369, 0.36125446727965027, 0.37838392466073856, 0.3950471210991964, 0.4139323956333101, 0.42789291706867516, 0.44498516916064546, 0.4639977609622292, 0.4783699300023727, 0.49460953212110326, 0.5116229362902232, 0.5277434132294729, 0.5450431957724504, 0.5614544884301722, 0.5783719780156389, 0.5947716653463431, 0.6116321522858925, 0.6279615249950439, 0.6450329557992518, 0.6636629131971858, 0.6782897167140618, 0.6947675693663768, 0.7116598002612591, 0.7308160932734609, 0.7449319211882539, 0.764007318241056, 0.7782620687503368, 0.7955232806853019]
9	animate/a27.jpg	inanimate	animate	right	0.955	[0.0, 0.0, 0.0, 0.0, 0.0, 0.0, 0.0, 0.0, 0.0, -5.0, -12.0, -22.0, -37.0, -56.0, -83.0, -122.0, -172.0, -227.0, -323.0, -394.0, -464.0, -541.0, -611.0, -674.0, -726.0, -769.0, -811.0, -836.0, -855.0, -856.0, -856.0, -853.0, -851.0, -846.0, -842.0, -840.0, -839.0, -838.0, -838.0, -838.0, -838.0, -838.0, -838.0, -828.0, -762.0, -612.0, -395.0, -147.0, 122.0, 389.0, 631.0, 836.0, 959.0, 959.0, 959.0, 959.0, 959.0]	[-490.0, -490.0, -490.0, -490.0, -490.0, -490.0, -490.0, -490.0, -490.0, -482.0, -471.0, -456.0, -435.0, -409.0, -374.0, -322.0, -248.0, -174.0, -65.0, 13.0, 78.0, 133.0, 182.0, 225.0, 264.0, 300.0, 342.0, 373.0, 417.0, 429.0, 461.0, 475.0, 483.0, 492.0, 500.0, 502.0, 504.0, 505.0, 505.0, 505.0, 505.0, 505.0, 505.0, 508.0, 517.0, 534.0, 539.0, 540.0, 540.0, 540.0, 540.0, 540.0, 540.0, 540.0, 540.0, 540.0, 540.0]	[0.005163583904504776, 0.01519467931939289, 0.025376643985509872, 0.04206612304551527, 0.059178513824008405, 0.07530923071317375, 0.09240694413892925, 0.10910086054354906, 0.12595417950069532, 0.14221801626263186, 0.15913106850348413, 0.17601101141190156, 0.19248681602766737, 0.2090226952568628, 0.22565960907377303, 0.242047349747736, 0.2588139700819738, 0.27829521213425323, 0.2920475204009563, 0.3115516317775473, 0.32544968923320994, 0.343646495079156, 0.3588760927086696, 0.37601988611277193, 0.3922799682477489, 0.40921520709525794, 0.4255561851314269, 0.442502346704714, 0.45863784226821736, 0.47580279828980565, 0.4922349122352898, 0.5092022364260629, 0.5255971451406367, 0.5424265707843006, 0.5588812127243727, 0.5758618488907814, 0.5921543576405384, 0.6091346524772234, 0.6256176251336001, 0.6423801494529471, 0.6587033782270737, 0.6755979984300211, 0.6924816960236058, 0.7088837727205828, 0.7259623714489862, 0.7419545071898028, 0.7592379057314247, 0.7755191505420953, 0.7924898880301043, 0.8086759009165689, 0.8256985210464336, 0.8422047042986378, 0.859187388443388, 0.875550894474145, 0.8925175360054709, 0.9086229942622595, 0.9256974970339797]
10	animate/a61.jpg	animate	inanimate	left	1.072	[0.0, 0.0, 0.0, 0.0, 0.0, 0.0, 0.0, 0.0, 0.0, -2.0, -7.0, -20.0, -38.0, -58.0, -80.0, -102.0, -120.0, -140.0, -161.0, -202.0, -242.0, -287.0, -327.0, -346.0, -352.0, -352.0, -352.0, -352.0, -351.0, -338.0, -334.0, -332.0, -333.0, -337.0, -338.0, -325.0, -231.0, -25.0, 258.0, 573.0, 879.0, 959.0, 959.0, 959.0, 959.0, 957.0, 929.0, 852.0, 730.0, 563.0, 354.0, 147.0, -189.0, -302.0, -576.0, -727.0, -849.0, -960.0, -960.0, -960.0, -960.0, -960.0, -960.0, -960.0, -956.0]	[-490.0, -491.0, -491.0, -491.0, -491.0, -491.0, -491.0, -491.0, -491.0, -491.0, -486.0, -476.0, -462.0, -447.0, -431.0, -415.0, -402.0, -388.0, -371.0, -336.0, -292.0, -238.0, -190.0, -159.0, -135.0, -117.0, -95.0, -70.0, -38.0, 3.0, 32.0, 68.0, 88.0, 112.0, 140.0, 169.0, 219.0, 267.0, 302.0, 307.0, 323.0, 354.0, 388.0, 450.0, 461.0, 466.0, 469.0, 468.0, 443.0, 404.0, 361.0, 334.0, 323.0, 323.0, 359.0, 383.0, 401.0, 423.0, 440.0, 453.0, 457.0, 457.0, 459.0, 462.0, 464.0]	[0.010847461642697453, 0.017280565516557544, 0.022907440667040646, 0.036593188997358084, 0.05343626800458878, 0.06979431270156056, 0.0896056237979792, 0.10294901503948495, 0.12327334971632808, 0.13693281536689028, 0.1534444599528797, 0.1697342380648479, 0.18746887892484665, 0.20315381488762796, 0.22100723965559155, 0.23650171176996082, 0.2539093555533327, 0.26982298464281484, 0.28706986061297357, 0.30317463621031493, 0.32060514931799844, 0.33638224517926574, 0.3537431263830513, 0.36972092610085383, 0.3869282074156217, 0.4033364280476235, 0.42017677635885775, 0.4364406131207943, 0.453490539919585, 0.4697257047519088, 0.48697019135579467, 0.5030527802882716, 0.5201064617722295, 0.5367413275525905, 0.5535833825124428, 0.5697205847245641, 0.5868613061029464, 0.6033480333862826, 0.6202184190042317, 0.6366901276051067, 0.6534157880232669, 0.6697837313404307, 0.6869299140525982, 0.7031568868551403, 0.7202194429701194, 0.7364320798078552, 0.7538096863427199, 0.7697147820726968, 0.7869503940455616, 0.8030753082712181, 0.82024367764825, 0.8364242291427217, 0.8534359266632237, 0.869938013900537, 0.8868425327818841, 0.9032326628221199, 0.920240264327731, 0.9388521310756914, 0.9536267318180762, 0.9722123159444891, 0.9868131781695411, 1.0039788168505765, 1.0202218323247507, 1.0365942129865289, 1.05324990011286]
11	inanimate/n17.jpg	animate	inanimate	right	0.641	[0.0, 0.0, 0.0, 0.0, 0.0, 0.0, 0.0, 0.0, 0.0, 0.0, 2.0, 8.0, 13.0, 18.0, 25.0, 34.0, 50.0, 55.0, 72.0, 81.0, 125.0, 176.0, 258.0, 366.0, 492.0, 611.0, 722.0, 818.0, 941.0, 959.0, 959.0, 959.0, 959.0, 959.0, 959.0, 959.0, 959.0, 959.0, 959.0]	[-490.0, -490.0, -490.0, -490.0, -490.0, -490.0, -490.0, -490.0, -490.0, -490.0, -483.0, -473.0, -462.0, -450.0, -434.0, -417.0, -369.0, -357.0, -295.0, -270.0, -159.0, -86.0, -8.0, 69.0, 139.0, 198.0, 249.0, 288.0, 343.0, 359.0, 399.0, 413.0, 421.0, 423.0, 423.0, 423.0, 423.0, 423.0, 423.0]	[0.0006238885689526796, 0.006075659941416234, 0.011695708439219743, 0.025596155261155218, 0.042852929851505905, 0.058937566820532084, 0.07624997873790562, 0.09226942103123292, 0.10945588105823845, 0.1256268752622418, 0.14294782048091292, 0.15893790812697262, 0.17611105617834255, 0.19227488234173506, 0.20944632374448702, 0.22566646989434958, 0.242625602055341, 0.2592341852141544, 0.27596223494037986, 0.2923765996238217, 0.3094555396819487, 0.32575897115748376, 0.34294372447766364, 0.3592055132612586, 0.37614518945338205, 0.3951721172197722, 0.4093831771169789, 0.42849168344400823, 0.44269659934798256, 0.46156514855101705, 0.4760274295695126, 0.4930544870439917, 0.5094128730706871, 0.5259446562849917, 0.5425092075020075, 0.5591249586432241, 0.5759765709517524, 0.5924708075472154, 0.6091370759531856]
12	animate/a50.jpg	animate	inanimate	left	0.843	[0.0, 0.0, 0.0, 0.0, 0.0, 0.0, 0.0, 0.0, 0.0, 0.0, 5.0, 8.0, 8.0, 8.0, 8.0, 9.0, 12.0, 19.0, 28.0, 36.0, 39.0, 40.0, 41.0, 41.0, 38.0, 15.0, -45.0, -142.0, -264.0, -410.0, -560.0, -692.0, -802.0, -894.0, -951.0, -960.0, -960.0, -954.0, -942.0, -928.0, -913.0, -900.0, -893.0, -893.0, -893.0, -890.0, -881.0, -869.0, -857.0, -856.0, -856.0]	[-490.0, -490.0, -490.0, -490.0, -490.0, -490.0, -490.0, -490.0, -490.0, -482.0, -471.0, -465.0, -465.0, -465.0, -465.0, -464.0, -464.0, -463.0, -462.0, -462.0, -462.0, -462.0, -462.0, -462.0, -456.0, -428.0, -361.0, -260.0, -138.0, -6.0, 125.0, 234.0, 332.0, 418.0, 480.0, 527.0, 540.0, 540.0, 540.0, 540.0, 540.0, 540.0, 540.0, 540.0, 540.0, 540.0, 518.0, 482.0, 427.0, 406.0, 402.0]	[0.014531469147186726, 0.019636104814708233, 0.025786584883462638, 0.042554911924526095, 0.05955807608552277, 0.07577310223132372, 0.09276056505041197, 0.10901245521381497, 0.12632520840270445, 0.14254808524856344, 0.1594191535259597, 0.17785796447424218, 0.19292474625399336, 0.20921042835107073, 0.22602483537048101, 0.2433901538606733, 0.2596027906984091, 0.2759516194346361, 0.29275066644186154, 0.30942888150457293, 0.3262753738090396, 0.3428409490152262, 0.3596324866521172, 0.3759703927207738, 0.39257010124856606, 0.4109259682591073, 0.4258429048350081, 0.4436591243138537, 0.45955227338708937, 0.47635370976058766, 0.4924782826565206, 0.5095544920768589, 0.5258425634820014, 0.5428924902807921, 0.5592508763074875, 0.5763025097548962, 0.5927097064559348, 0.6096855639480054, 0.625829592871014, 0.6430242448695935, 0.6591402844060212, 0.6763264031033032, 0.6925076373154297, 0.7096893186098896, 0.7258056995342486, 0.7429167249356396, 0.7593747802311555, 0.7762936351355165, 0.7927800210309215, 0.8096848813001998, 0.8258452941663563]
13	inanimate/n75.jpg	animate	inanimate	right	0.722	[0.0, 0.0, 0.0, 0.0, 0.0, 0.0, 0.0, 0.0, 0.0, 0.0, 0.0, 1.0, 1.0, 3.0, 11.0, 27.0, 51.0, 92.0, 194.0, 265.0, 352.0, 446.0, 535.0, 601.0, 656.0, 720.0, 773.0, 832.0, 884.0, 923.0, 940.0, 942.0, 943.0, 943.0, 943.0, 943.0, 943.0, 943.0, 943.0, 943.0, 943.0, 943.0, 943.0, 943.0]	[-490.0, -490.0, -490.0, -490.0, -490.0, -490.0, -490.0, -490.0, -490.0, -490.0, -490.0, -490.0, -485.0, -476.0, -465.0, -445.0, -417.0, -371.0, -275.0, -210.0, -121.0, -8.0, 92.0, 182.0, 246.0, 310.0, 356.0, 406.0, 443.0, 469.0, 485.0, 488.0, 488.0, 488.0, 488.0, 488.0, 488.0, 488.0, 488.0, 488.0, 488.0, 488.0, 488.0, 488.0]	[0.00698152364930138, 0.012000143353361636, 0.017327328154351562, 0.03139127348549664, 0.04524837096687406, 0.06509381538489833, 0.07824401214020327, 0.09828128572553396, 0.11170727957505733, 0.12862920650513843, 0.14504425378981978, 0.16327689960598946, 0.17845188395585865, 0.19565779995173216, 0.21168202097760513, 0.22931562724988908, 0.24505210446659476, 0.26218019652878866, 0.278432086633984, 0.2954864507773891, 0.31186463410267606, 0.3290306141716428, 0.3449892991920933, 0.36216312990291044, 0.3785477985511534, 0.3955134160933085, 0.41187931143213063, 0.42882444901624694, 0.4452132136793807, 0.4620894019608386, 0.4785955852130428, 0.49542671750532463, 0.5119984367047437, 0.5288234250037931, 0.5450367445009761, 0.5622754284413531, 0.5786423478275537, 0.5955779280047864, 0.6117844208492897, 0.6288794036372565, 0.645007731160149, 0.6622225218452513, 0.6783375373925082, 0.6954844027641229]
14	animate/a35.jpg	inanimate	animate	right	0.926	[0.0, 0.0, 0.0, 0.0, 0.0, 0.0, 0.0, 0.0, 0.0, 0.0, -5.0, -11.0, -17.0, -23.0, -34.0, -50.0, -78.0, -129.0, -248.0, -350.0, -482.0, -634.0, -779.0, -900.0, -960.0, -960.0, -960.0, -960.0, -956.0, -942.0, -931.0, -917.0, -909.0, -898.0, -889.0, -881.0, -876.0, -875.0, -874.0, -874.0, -874.0, -874.0, -874.0, -870.0, -835.0, -718.0, -540.0, -325.0, -82.0, 181.0, 434.0, 652.0, 869.0, 907.0, 938.0, 938.0]	[-490.0, -490.0, -490.0, -490.0, -490.0, -490.0, -490.0, -490.0, -490.0, -490.0, -489.0, -484.0, -477.0, -467.0, -449.0, -428.0, -393.0, -337.0, -239.0, -158.0, -72.0, 42.0, 162.0, 266.0, 346.0, 404.0, 456.0, 465.0, 481.0, 505.0, 518.0, 527.0, 533.0, 540.0, 540.0, 540.0, 540.0, 540.0, 540.0, 540.0, 540.0, 540.0, 540.0, 540.0, 540.0, 524.0, 502.0, 482.0, 466.0, 456.0, 456.0, 456.0, 457.0, 459.0, 466.0, 466.0]	[0.0007945550605654716, 0.007358048111200333, 0.016224173887167126, 0.03311299148481339, 0.05031822482123971, 0.06863074249122292, 0.08330840466078371, 0.10209435131400824, 0.11657745362026617, 0.13341780187329277, 0.15001000108895823, 0.16638852574396878, 0.1833039673510939, 0.1999787691165693, 0.2163948404486291, 0.2330307302181609, 0.24986800650367513, 0.26626018452225253, 0.283114186138846, 0.299516262835823, 0.3163487604469992, 0.33595493040047586, 0.3495915267849341, 0.3691830193856731, 0.38292338099563494, 0.4024271509842947, 0.41644467506557703, 0.4333348579821177, 0.44954681216040626, 0.4666325788712129, 0.4831281807855703, 0.49999924906296656, 0.5164474057382904, 0.5332962873508222, 0.5495338414912112, 0.5666830961708911, 0.58295614895178, 0.5998439425602555, 0.6163566111354157, 0.633381279243622, 0.6498966785147786, 0.6666520348517224, 0.6830715195392258, 0.7001142782974057, 0.7166228509158827, 0.7334225805825554, 0.750054374395404, 0.7666551068541594, 0.7830100795836188, 0.7999145984649658, 0.8161890166229568, 0.8334932365105487, 0.8494867375120521, 0.8663786270772107, 0.8834667832124978, 0.8995282094692811]
15	inanimate/n59.jpg	inanimate	animate	left	0.83	[0.0, 0.0, 0.0, 0.0, 0.0, 0.0, 0.0, 0.0, 0.0, 0.0, 0.0, 0.0, 0.0, 0.0, 0.0, 0.0, 0.0, -24.0, -61.0, -110.0, -157.0, -189.0, -242.0, -317.0, -407.0, -504.0, -609.0, -687.0, -764.0, -788.0, -800.0, -806.0, -809.0, -809.0, -809.0, -809.0, -809.0, -809.0, -809.0, -809.0, -809.0, -809.0, -809.0, -809.0, -809.0, -809.0, -809.0, -809.0, -809.0, -809.0]	[-490.0, -490.0, -490.0, -490.0, -490.0, -490.0, -490.0, -490.0, -490.0, -490.0, -490.0, -490.0, -490.0, -490.0, -490.0, -490.0, -482.0, -453.0, -405.0, -335.0, -245.0, -174.0, -88.0, 8.0, 107.0, 199.0, 282.0, 332.0, 376.0, 395.0, 404.0, 408.0, 410.0, 410.0, 410.0, 410.0, 410.0, 410.0, 410.0, 410.0, 410.0, 410.0, 410.0, 410.0, 410.0, 410.0, 410.0, 410.0, 410.0, 410.0]	[0.011727418226655573, 0.016543286154046655, 0.024827097717206925, 0.04095679061720148, 0.05542555695865303, 0.07449412735877559, 0.08842222212115303, 0.10555372748058289, 0.12178479629801586, 0.13891834969399497, 0.15519379178294912, 0.17225361726013944, 0.1885894752922468, 0.20562267675995827, 0.2219329348881729, 0.23890503769507632, 0.2554054182837717, 0.2722911639139056, 0.28860449395142496, 0.30562370078405365, 0.3217482736799866, 0.3389381470042281, 0.35516238916898146, 0.3723123265081085, 0.3884577207500115, 0.4054851195542142, 0.421762268349994, 0.43896954966476187, 0.45512245321879163, 0.47188873222330585, 0.4889707443071529, 0.5051294505246915, 0.5223817878286354, 0.5386671285959892, 0.5556873594177887, 0.571766534994822, 0.5889502643258311, 0.6051188692217693, 0.6222404759027995, 0.6386790752294473, 0.6557068153633736, 0.6719986414536834, 0.6890509575605392, 0.7053359569981694, 0.7223118145484477, 0.7386613259441219, 0.7557313913712278, 0.7719747481751256, 0.789027405611705, 0.8053677009884268]
16	animate/a22.jpg	inanimate	animate	right	1.819	[0.0, 0.0, 0.0, 0.0, 0.0, 0.0, 0.0, 0.0, 0.0, 0.0, 0.0, 0.0, 0.0, 0.0, 0.0, 0.0, 0.0, 0.0, 0.0, -2.0, -7.0, -23.0, -50.0, -105.0, -159.0, -214.0, -280.0, -340.0, -394.0, -433.0, -460.0, -472.0, -478.0, -477.0, -410.0, -300.0, -149.0, 59.0, 301.0, 554.0, 759.0, 916.0, 959.0, 959.0, 959.0, 959.0, 959.0, 959.0, 959.0, 959.0, 959.0, 959.0, 959.0, 958.0, 946.0, 943.0, 925.0, 918.0, 899.0, 886.0, 873.0, 858.0, 841.0, 824.0, 806.0, 789.0, 775.0, 771.0, 770.0, 770.0, 770.0, 770.0, 770.0, 770.0, 770.0, 769.0, 767.0, 767.0, 767.0, 767.0, 767.0, 767.0, 768.0, 768.0, 768.0, 768.0, 768.0, 769.0, 769.0, 770.0, 771.0, 771.0, 771.0, 772.0, 773.0, 774.0, 775.0, 776.0, 778.0, 779.0, 781.0, 781.0, 781.0, 781.0, 781.0, 781.0, 781.0, 782.0, 782.0, 782.0]	[-490.0, -490.0, -490.0, -490.0, -490.0, -490.0, -490.0, -490.0, -490.0, -490.0, -490.0, -490.0, -490.0, -487.0, -484.0, -478.0, -472.0, -460.0, -444.0, -417.0, -381.0, -326.0, -254.0, -132.0, -36.0, 53.0, 128.0, 196.0, 247.0, 290.0, 324.0, 347.0, 379.0, 391.0, 446.0, 491.0, 534.0, 540.0, 540.0, 540.0, 540.0, 540.0, 540.0, 540.0, 531.0, 530.0, 516.0, 503.0, 485.0, 469.0, 456.0, 446.0, 439.0, 432.0, 416.0, 413.0, 404.0, 401.0, 399.0, 399.0, 399.0, 399.0, 399.0, 401.0, 403.0, 406.0, 407.0, 408.0, 409.0, 409.0, 409.0, 409.0, 409.0, 409.0, 409.0, 410.0, 411.0, 412.0, 414.0, 415.0, 416.0, 418.0, 419.0, 419.0, 420.0, 422.0, 422.0, 423.0, 424.0, 425.0, 426.0, 427.0, 428.0, 429.0, 432.0, 434.0, 436.0, 438.0, 441.0, 444.0, 446.0, 446.0, 446.0, 446.0, 446.0, 446.0, 446.0, 447.0, 447.0, 447.0]	[0.0167026887065731, 0.022925872704945505, 0.028189910924993455, 0.03948223195038736, 0.05665947595844045, 0.07285231543937698, 0.08971280237892643, 0.10678593983175233, 0.12299448065459728, 0.14015499938977882, 0.15651543339481577, 0.17348753625992686, 0.18986401293659583, 0.20688765711383894, 0.22284395282622427, 0.24004850344499573, 0.25618570565711707, 0.273316869745031, 0.28952745854621753, 0.3066442866111174, 0.32309414993505925, 0.3400983380852267, 0.3564205428119749, 0.3734516963013448, 0.38991179957520217, 0.40664599329466, 0.42285009677289054, 0.4401000447687693, 0.45647208410082385, 0.4734766135807149, 0.48952165589435026, 0.5068473797873594, 0.5230682085966691, 0.5402556926128455, 0.5564301001140848, 0.5735704801627435, 0.58950629591709, 0.6068497691303492, 0.6228760381345637, 0.6401997139910236, 0.6561604470480233, 0.6763782858033665, 0.689496397273615, 0.7102016595890746, 0.7231794832041487, 0.7420432537328452, 0.7564458014676347, 0.7761700726114213, 0.7898148609674536, 0.8082304612617008, 0.8228978834231384, 0.8411496438202448, 0.8563928948133253, 0.8757621796685271, 0.8897902850294486, 0.9078887869254686, 0.9228391741635278, 0.942497568030376, 0.9562444149632938, 0.974398554128129, 0.9896284931455739, 1.0087745461496525, 1.022893104760442, 1.0400061781401746, 1.0562645536265336, 1.0732448484632187, 1.0895097092725337, 1.1066599879413843, 1.1229012967669405, 1.1400467967614532, 1.1561570336925797, 1.1732963897520676, 1.1898691329406574, 1.2067087985924445, 1.2228712594369426, 1.2400519168004394, 1.2564260041690432, 1.2732496271491982, 1.2895308719016612, 1.3066456519300118, 1.3230992699391209, 1.340048844809644, 1.356403476151172, 1.3733107257285155, 1.3898285143077374, 1.4068572784308344, 1.4230975632672198, 1.440142370061949, 1.4564816414494999, 1.4733308643917553, 1.4894994692294858, 1.5067808198509738, 1.5229146087658592, 1.5399372288957238, 1.5562457803171128, 1.573368069715798, 1.589562957175076, 1.6067753584939055, 1.6228367848088965, 1.6400423594750464, 1.6561781963682733, 1.6733673870330676, 1.6895056132343598, 1.7067309851991013, 1.722877403430175, 1.7400659114355221, 1.7562379296286963, 1.7734049336286262, 1.7895465732435696, 1.8067265478894114]
17	inanimate/n25.jpg	animate	inanimate	right	0.922	[0.0, 0.0, 0.0, 0.0, 0.0, 0.0, 0.0, 0.0, 0.0, 0.0, -4.0, -10.0, -17.0, -27.0, -40.0, -65.0, -100.0, -153.0, -218.0, -288.0, -371.0, -461.0, -621.0, -725.0, -822.0, -893.0, -938.0, -959.0, -960.0, -960.0, -960.0, -960.0, -960.0, -960.0, -960.0, -960.0, -960.0, -960.0, -960.0, -944.0, -920.0, -873.0, -792.0, -681.0, -551.0, -322.0, -228.0, 114.0, 351.0, 567.0, 721.0, 813.0, 846.0, 851.0, 851.0, 851.0]	[-490.0, -490.0, -490.0, -490.0, -490.0, -490.0, -490.0, -490.0, -490.0, -486.0, -479.0, -458.0, -442.0, -420.0, -389.0, -339.0, -280.0, -214.0, -143.0, -81.0, -14.0, 50.0, 160.0, 224.0, 286.0, 334.0, 372.0, 390.0, 401.0, 406.0, 410.0, 411.0, 411.0, 411.0, 411.0, 411.0, 411.0, 411.0, 416.0, 426.0, 436.0, 452.0, 474.0, 488.0, 508.0, 521.0, 521.0, 521.0, 521.0, 520.0, 520.0, 520.0, 520.0, 520.0, 520.0, 520.0]	[0.009791718621272594, 0.014929804892744869, 0.024525018059648573, 0.032158590212929994, 0.048779802687931806, 0.0661021132254973, 0.08264208846958354, 0.09945581277133897, 0.11584082280751318, 0.13232652604347095, 0.14938157284632325, 0.16561093501513824, 0.18236629135208204, 0.19937218620907515, 0.21552201773738489, 0.23263474978739396, 0.24897641054121777, 0.26607173460070044, 0.2823103127302602, 0.29939812747761607, 0.31559676968026906, 0.33273441903293133, 0.34893135458696634, 0.3660567159531638, 0.38219733152072877, 0.3994817541097291, 0.4155230417381972, 0.4327292990637943, 0.44887947192182764, 0.46607275860151276, 0.4822167874663137, 0.4994005167973228, 0.5155575163662434, 0.5327217897283845, 0.5489074612269178, 0.5660522786201909, 0.5823553687077947, 0.599412122159265, 0.6157036069198512, 0.6328084883280098, 0.648985285195522, 0.6660434039658867, 0.6825431018951349, 0.6993547782185487, 0.7156687909155153, 0.7326893630670384, 0.7490569651126862, 0.7660942625952885, 0.7823587820166722, 0.7993762822006829, 0.8157967908191495, 0.8327217897167429, 0.8490706184529699, 0.8660775372409262, 0.8852980008814484, 0.8992827569018118]
18	animate/a49.jpg	inanimate	animate	right	2.428	[0.0, 0.0, 0.0, 0.0, 0.0, -3.0, -7.0, -10.0, -14.0, -16.0, -18.0, -18.0, -18.0, -18.0, -18.0, -18.0, -18.0, -18.0, -18.0, -20.0, -21.0, -25.0, -32.0, -41.0, -68.0, -133.0, -191.0, -257.0, -334.0, -406.0, -469.0, -526.0, -573.0, -607.0, -630.0, -639.0, -643.0, -643.0, -636.0, -614.0, -563.0, -481.0, -378.0, -248.0, -113.0, 25.0, 170.0, 319.0, 459.0, 660.0, 764.0, 845.0, 886.0, 907.0, 910.0, 910.0, 910.0, 910.0, 910.0, 910.0, 837.0, 782.0, 570.0, 400.0, 240.0, 105.0, 2.0, -73.0, -113.0, -141.0, -167.0, -178.0, -219.0, -273.0, -358.0, -458.0, -551.0, -613.0, -648.0, -664.0, -676.0, -687.0, -705.0, -728.0, -760.0, -805.0, -872.0, -892.0, -896.0, -896.0, -896.0, -896.0, -896.0, -896.0, -896.0, -896.0, -896.0, -896.0, -896.0, -896.0, -896.0, -896.0, -896.0, -896.0, -896.0, -896.0, -896.0, -881.0, -818.0, -622.0, -442.0, -231.0, -26.0, 147.0, 277.0, 383.0, 454.0, 499.0, 521.0, 530.0, 531.0, 531.0, 531.0, 531.0, 531.0, 531.0, 531.0, 531.0, 531.0, 531.0, 531.0, 531.0, 531.0, 541.0, 567.0, 727.0, 832.0, 903.0, 947.0, 959.0, 959.0, 959.0, 959.0, 959.0, 959.0, 959.0]	[-490.0, -490.0, -490.0, -490.0, -490.0, -490.0, -491.0, -491.0, -491.0, -491.0, -491.0, -491.0, -491.0, -491.0, -491.0, -491.0, -491.0, -491.0, -489.0, -482.0, -470.0, -449.0, -426.0, -393.0, -346.0, -251.0, -181.0, -106.0, -26.0, 45.0, 111.0, 171.0, 220.0, 261.0, 289.0, 305.0, 319.0, 333.0, 346.0, 361.0, 383.0, 411.0, 441.0, 462.0, 480.0, 499.0, 512.0, 516.0, 516.0, 522.0, 526.0, 535.0, 540.0, 540.0, 540.0, 540.0, 540.0, 540.0, 540.0, 540.0, 527.0, 517.0, 490.0, 470.0, 464.0, 464.0, 464.0, 468.0, 477.0, 483.0, 490.0, 493.0, 499.0, 505.0, 507.0, 507.0, 509.0, 509.0, 509.0, 509.0, 506.0, 500.0, 490.0, 480.0, 472.0, 462.0, 459.0, 459.0, 459.0, 459.0, 459.0, 459.0, 459.0, 459.0, 459.0, 459.0, 459.0, 459.0, 459.0, 459.0, 459.0, 459.0, 459.0, 459.0, 459.0, 459.0, 459.0, 460.0, 468.0, 493.0, 493.0, 493.0, 493.0, 495.0, 501.0, 501.0, 505.0, 512.0, 516.0, 517.0, 517.0, 517.0, 517.0, 517.0, 517.0, 517.0, 517.0, 517.0, 517.0, 517.0, 517.0, 517.0, 517.0, 517.0, 517.0, 517.0, 517.0, 517.0, 517.0, 517.0, 517.0, 517.0, 517.0, 517.0, 517.0, 517.0]	[0.010246715566609055, 0.019025460060220212, 0.025783854303881526, 0.04023726063314825, 0.05644853209378198, 0.07353327487362549, 0.08973908505868167, 0.10641149745788425, 0.12331704038660973, 0.14006215677363798, 0.15677211584988981, 0.17318136052927002, 0.19019817799562588, 0.20648215344408527, 0.22366793075343594, 0.23970785306300968, 0.2568584731197916, 0.2730096699669957, 0.290174625988584, 0.3064811294316314, 0.32355938683031127, 0.3399252822273411, 0.35687588108703494, 0.3732479204190895, 0.3901951059815474, 0.4066279026446864, 0.42349521623691544, 0.44001983146881685, 0.4567997638368979, 0.47301547264214605, 0.4900811007246375, 0.5066231239470653, 0.5235044322325848, 0.5397737303283066, 0.5568393584690057, 0.5730874938890338, 0.5902923858957365, 0.6063981854822487, 0.6235027255606838, 0.6397334530483931, 0.6569724783184938, 0.6730113766388968, 0.6901906686834991, 0.7063527881982736, 0.7235440268414095, 0.7396836184198037, 0.7568035184522159, 0.7730397072737105, 0.790236065920908, 0.8064210548182018, 0.8234016909846105, 0.8398245889693499, 0.857001832977403, 0.8730540432734415, 0.890229239303153, 0.9063978441408835, 0.9234112483100034, 0.940039970097132, 0.9567775771720335, 0.9731588325230405, 0.990271223243326, 1.0065678280079737, 1.0235259361797944, 1.0420046831131913, 1.0569687236566097, 1.0757270223111846, 1.0901831593364477, 1.1090469299233519, 1.1235450508538634, 1.142320416169241, 1.1567246705526486, 1.1758126969216391, 1.190082807384897, 1.2092401243862696, 1.2234214883064851, 1.242645706573967, 1.2568103451631032, 1.27556079311762, 1.2901619966723956, 1.3074989845626988, 1.3235576801816933, 1.3404014417901635, 1.3568315078155138, 1.3730734992423095, 1.3898377302684821, 1.406424809480086, 1.423182213853579, 1.4427532264962792, 1.4565994013100863, 1.4759744887705892, 1.4899087275844067, 1.50799664814258, 1.5233207950368524, 1.5427156798541546, 1.5566516252583824, 1.5735138189047575, 1.5899046315462328, 1.6073955606552772, 1.6233388857217506, 1.640851660107728, 1.6565973533433862, 1.6743944581248797, 1.6897588823339902, 1.7065743133425713, 1.723213275137823, 1.7400696660624817, 1.7567287665442564, 1.7732400698005222, 1.7897541036945768, 1.8066555506084114, 1.823154907207936, 1.8396890797303058, 1.8567475398886018, 1.8731226512463763, 1.8901026047533378, 1.9065770439920016, 1.923101659223903, 1.9396484611206688, 1.9569639450055547, 1.9732434831093997, 1.9901299113989808, 2.006686953245662, 2.023549488163553, 2.039677133085206, 2.056963603652548, 2.073231195099652, 2.0902439166093245, 2.106662035919726, 2.123631066759117, 2.1399522474966943, 2.156917523709126, 2.173316187050659, 2.1902268499834463, 2.2064644041238353, 2.2236191201373003, 2.2400000341585837, 2.2569878383073956, 2.27312060323311, 2.290342561842408, 2.3065633907099254, 2.3235856695100665, 2.3400597674190067, 2.3569151343544945, 2.3733356430311687, 2.390215585939586, 2.406565438664984]
19	animate/a9.jpg	animate	inanimate	right	1.141	[0.0, 0.0, 0.0, 0.0, 0.0, 0.0, 0.0, 0.0, 0.0, 0.0, -4.0, -5.0, -6.0, -8.0, -11.0, -14.0, -16.0, -23.0, -29.0, -39.0, -52.0, -71.0, -96.0, -124.0, -167.0, -220.0, -294.0, -377.0, -458.0, -527.0, -608.0, -640.0, -656.0, -665.0, -670.0, -672.0, -672.0, -673.0, -678.0, -687.0, -697.0, -707.0, -709.0, -709.0, -710.0, -703.0, -677.0, -617.0, -520.0, -436.0, -387.0, -372.0, -287.0, -239.0, -27.0, 172.0, 374.0, 554.0, 700.0, 800.0, 857.0, 878.0, 882.0, 882.0, 882.0, 884.0, 893.0, 895.0, 895.0]	[-490.0, -490.0, -490.0, -490.0, -490.0, -490.0, -490.0, -490.0, -490.0, -486.0, -480.0, -478.0, -473.0, -471.0, -467.0, -462.0, -459.0, -444.0, -431.0, -413.0, -390.0, -351.0, -313.0, -277.0, -221.0, -157.0, -71.0, 26.0, 130.0, 227.0, 347.0, 402.0, 431.0, 449.0, 461.0, 465.0, 467.0, 470.0, 477.0, 485.0, 491.0, 495.0, 495.0, 495.0, 495.0, 490.0, 484.0, 476.0, 463.0, 452.0, 445.0, 445.0, 452.0, 459.0, 485.0, 514.0, 539.0, 540.0, 540.0, 540.0, 540.0, 540.0, 540.0, 540.0, 540.0, 540.0, 540.0, 540.0, 540.0]	[0.008747546700760722, 0.018917223322205245, 0.023780195217113942, 0.03147486597299576, 0.05148892890429124, 0.06506203731987625, 0.08502285229042172, 0.09839252621168271, 0.11831989052006975, 0.13168171379948035, 0.15125238505424932, 0.16514054388972, 0.18283285945653915, 0.19835122488439083, 0.21660093730315566, 0.23193122824886814, 0.24987442360725254, 0.26525864511495456, 0.28228638524888083, 0.2983563448651694, 0.3155370022286661, 0.33185272163245827, 0.3488463284447789, 0.3650289279757999, 0.3822327959933318, 0.3987587765441276, 0.41548785025952384, 0.431856817624066, 0.4488575924769975, 0.4652951677562669, 0.48222016665386036, 0.498742051247973, 0.5154902396025136, 0.5317673883982934, 0.5489122057333589, 0.5650337066617794, 0.5820935320807621, 0.5983307448914275, 0.6154677116428502, 0.6316926364088431, 0.6488886537845246, 0.6650627199560404, 0.6822839959058911, 0.6984959500841796, 0.7155400742194615, 0.7317161884275265, 0.7489139123936184, 0.765059647965245, 0.7834885602351278, 0.7986270220135339, 0.8154287996585481, 0.8317974256933667, 0.8488333577988669, 0.8651859411620535, 0.8821928600082174, 0.9009900706587359, 0.9155349542270415, 0.9344489007489756, 0.9488036618568003, 0.9663294068886898, 0.9822304066619836, 0.9993554266984574, 1.0155209595686756, 1.031840433657635, 1.0485643873689696, 1.0651043626130559, 1.0819047749391757, 1.098582990001887, 1.1153260584105738]
20	inanimate/n68.jpg	animate	inanimate	right	1.079	[0.0, 0.0, 0.0, 0.0, 0.0, 0.0, 0.0, 0.0, 0.0, 0.0, 0.0, 0.0, 0.0, 0.0, 2.0, 5.0, 7.0, 12.0, 26.0, 38.0, 57.0, 76.0, 93.0, 107.0, 120.0, 138.0, 163.0, 209.0, 293.0, 440.0, 494.0, 655.0, 760.0, 864.0, 959.0, 959.0, 959.0, 959.0, 959.0, 959.0, 959.0, 959.0, 959.0, 959.0, 959.0, 959.0, 959.0, 959.0, 959.0, 959.0, 959.0, 959.0, 958.0, 956.0, 954.0, 953.0, 952.0, 952.0, 952.0, 952.0, 952.0, 952.0, 952.0, 952.0, 952.0]	[-490.0, -491.0, -491.0, -491.0, -491.0, -491.0, -491.0, -491.0, -491.0, -491.0, -491.0, -491.0, -492.0, -494.0, -495.0, -496.0, -496.0, -496.0, -496.0, -495.0, -488.0, -480.0, -467.0, -451.0, -427.0, -395.0, -348.0, -282.0, -202.0, -98.0, -61.0, 38.0, 104.0, 161.0, 228.0, 272.0, 295.0, 307.0, 314.0, 319.0, 325.0, 329.0, 337.0, 340.0, 343.0, 345.0, 347.0, 350.0, 353.0, 354.0, 355.0, 356.0, 362.0, 368.0, 374.0, 379.0, 381.0, 382.0, 382.0, 382.0, 382.0, 382.0, 382.0, 382.0, 382.0]	[0.014512695837765932, 0.020742023829370737, 0.03196880896575749, 0.04398646269692108, 0.06109953607665375, 0.07722240232396871, 0.09442763566039503, 0.11065153643721715, 0.12784482311690226, 0.14397690538316965, 0.1610568694304675, 0.17725482897367328, 0.19424638780765235, 0.21079250698676333, 0.227698732574936, 0.2441346012055874, 0.2610630134586245, 0.2775524713797495, 0.2943344517261721, 0.3107948963297531, 0.32785915909335017, 0.34393560409080237, 0.3608623096370138, 0.377213527681306, 0.39433888904750347, 0.41075666702818125, 0.4276813245960511, 0.4442202757927589, 0.461064720118884, 0.4773357249214314, 0.49436039302963763, 0.510639589803759, 0.5275676606688648, 0.5439274120726623, 0.5609670988633297, 0.5773135382332839, 0.5941187292337418, 0.6111324747325853, 0.6272485143272206, 0.6442895664367825, 0.6608701602672227, 0.6778572817565873, 0.6940347612835467, 0.7110713761067018, 0.7275963326683268, 0.7445793582010083, 0.76065341377398, 0.7778484071022831, 0.7938999347388744, 0.8109911628416739, 0.827580631361343, 0.8444755929522216, 0.8608524109586142, 0.8778565991087817, 0.8939555720426142, 0.9110822987859137, 0.9272348609520122, 0.9443755823303945, 0.9608599203056656, 0.9780252176569775, 0.9942815451067872, 1.011307237262372, 1.0272488556220196, 1.0445810648379847, 1.0608568483148701]
21	inanimate/n6.jpg	inanimate	animate	right	1.034	[0.0, 0.0, 0.0, 0.0, 0.0, 0.0, 0.0, 0.0, 0.0, 0.0, 1.0, 3.0, 3.0, 3.0, 3.0, -1.0, -6.0, -15.0, -35.0, -54.0, -70.0, -85.0, -97.0, -109.0, -122.0, -143.0, -179.0, -215.0, -246.0, -270.0, -314.0, -359.0, -405.0, -438.0, -458.0, -475.0, -495.0, -513.0, -537.0, -568.0, -602.0, -622.0, -642.0, -649.0, -654.0, -657.0, -659.0, -661.0, -661.0, -639.0, -563.0, -427.0, -260.0, -73.0, 254.0, 469.0, 675.0, 839.0, 959.0, 959.0, 959.0, 959.0]	[-490.0, -490.0, -490.0, -490.0, -490.0, -490.0, -490.0, -490.0, -487.0, -482.0, -474.0, -460.0, -435.0, -425.0, -393.0, -382.0, -355.0, -321.0, -258.0, -217.0, -186.0, -162.0, -145.0, -128.0, -114.0, -94.0, -68.0, -44.0, -25.0, -6.0, 41.0, 79.0, 111.0, 133.0, 144.0, 153.0, 163.0, 171.0, 181.0, 199.0, 218.0, 232.0, 248.0, 252.0, 257.0, 260.0, 262.0, 265.0, 272.0, 290.0, 313.0, 334.0, 360.0, 367.0, 367.0, 367.0, 375.0, 393.0, 414.0, 427.0, 436.0, 439.0]	[0.013790742435958236, 0.019042833941057324, 0.025845260126516223, 0.04278869100380689, 0.05899962113471702, 0.07860374310985208, 0.09259327780455351, 0.109472879441455, 0.12610535591375083, 0.14288392290472984, 0.15930852753808722, 0.17958166229072958, 0.19261512311641127, 0.20942543412093073, 0.22559915902093053, 0.2429849574691616, 0.2587494240142405, 0.27614204917335883, 0.29321552795590833, 0.30949779675574973, 0.32612310524564236, 0.34223948611179367, 0.35919861833099276, 0.37561161763733253, 0.3924659605836496, 0.4095094020594843, 0.42565616162028164, 0.4428828989039175, 0.4590825650957413, 0.4760672972770408, 0.49229188077151775, 0.509426116826944, 0.525670156290289, 0.5428586642956361, 0.5591067997156642, 0.5761720865266398, 0.5923185047577135, 0.609521348727867, 0.6257414948777296, 0.6428439869778231, 0.6592136370018125, 0.6761925665196031, 0.6926673470879905, 0.7094544474384747, 0.7257660708273761, 0.7428938215598464, 0.7590846130624413, 0.7761833504773676, 0.7922956354450434, 0.8095114500611089, 0.8256295376340859, 0.8428426216123626, 0.8589709491934627, 0.8761922251433134, 0.8923478593933396, 0.9095152047229931, 0.9256534309242852, 0.9430119228200056, 0.9590713010984473, 0.9763195423875004, 0.9924837099388242, 1.0095233967294917]
22	animate/a42.jpg	animate	inanimate	right	1.231	[0.0, 0.0, 0.0, 0.0, 0.0, 0.0, -2.0, -6.0, -10.0, -13.0, -18.0, -21.0, -21.0, -22.0, -22.0, -22.0, -22.0, -22.0, -22.0, -21.0, -14.0, -9.0, -3.0, 0.0, 5.0, 10.0, 9.0, 2.0, -21.0, -88.0, -149.0, -217.0, -303.0, -394.0, -489.0, -582.0, -660.0, -720.0, -793.0, -808.0, -829.0, -830.0, -830.0, -830.0, -830.0, -830.0, -830.0, -830.0, -830.0, -830.0, -830.0, -830.0, -830.0, -830.0, -830.0, -830.0, -830.0, -831.0, -773.0, -666.0, -517.0, -316.0, -80.0, 161.0, 477.0, 636.0, 752.0, 815.0, 836.0, 837.0, 837.0, 837.0, 837.0, 837.0]	[-490.0, -490.0, -490.0, -490.0, -490.0, -490.0, -489.0, -487.0, -483.0, -481.0, -474.0, -469.0, -466.0, -465.0, -463.0, -462.0, -458.0, -443.0, -422.0, -395.0, -355.0, -314.0, -270.0, -239.0, -205.0, -173.0, -130.0, -111.0, -64.0, 0.0, 39.0, 69.0, 106.0, 143.0, 184.0, 240.0, 287.0, 330.0, 386.0, 399.0, 424.0, 424.0, 424.0, 424.0, 424.0, 424.0, 424.0, 424.0, 424.0, 424.0, 424.0, 424.0, 424.0, 424.0, 424.0, 424.0, 424.0, 426.0, 444.0, 470.0, 491.0, 512.0, 530.0, 540.0, 540.0, 540.0, 540.0, 540.0, 540.0, 540.0, 540.0, 540.0, 540.0, 540.0]	[0.0162701855879277, 0.025557516317348927, 0.031384071335196495, 0.044948305119760334, 0.06220917572500184, 0.07837266061687842, 0.09555536595871672, 0.11232130363350734, 0.12885342817753553, 0.14521864091511816, 0.162208151712548, 0.1787570015876554, 0.19617898139404133, 0.21173284546239302, 0.22884694283129647, 0.24508347298251465, 0.26223033835412934, 0.27872525760903955, 0.2956198778701946, 0.3117178268148564, 0.3289251081296243, 0.3456081018666737, 0.3620938051608391, 0.3784945164807141, 0.39551508863223717, 0.4123032129718922, 0.4291179613210261, 0.4450749396928586, 0.46188934665406123, 0.47914680396206677, 0.4950928596663289, 0.5123745515593328, 0.5284707938553765, 0.5457572644227184, 0.561772269429639, 0.5789013854810037, 0.5950621396768838, 0.6124069782090373, 0.6286428257008083, 0.6486548405955546, 0.6620050585479476, 0.6816143004689366, 0.6950443903915584, 0.7149103147676215, 0.7286250763572752, 0.7473444630741142, 0.7619859438855201, 0.7811558902030811, 0.7950873983209021, 0.8123151596519165, 0.828578996413853, 0.8462747253361158, 0.8621156504959799, 0.8798468780005351, 0.8950686249881983, 0.9126684393268079, 0.9285585164325312, 0.945455867331475, 0.9619425946148112, 0.9787959135719575, 0.9950570196961053, 1.012131181138102, 1.0286202977295034, 1.045439483365044, 1.0619743386050686, 1.0788092255825177, 1.0950679423403926, 1.112394348892849, 1.1283803405822255, 1.1456111738807522, 1.1617514481185935, 1.1788969481713139, 1.1950460970401764, 1.212146199773997]
23	animate/a57.jpg	inanimate	animate	left	2.447	[0.0, 0.0, 0.0, 0.0, 0.0, 0.0, 0.0, 0.0, 0.0, 0.0, 0.0, 0.0, 0.0, 1.0, 5.0, 10.0, 15.0, 20.0, 25.0, 26.0, 30.0, 31.0, 31.0, 31.0, 31.0, 22.0, 6.0, -21.0, -65.0, -127.0, -192.0, -260.0, -309.0, -346.0, -392.0, -407.0, -446.0, -476.0, -512.0, -551.0, -578.0, -603.0, -616.0, -626.0, -629.0, -632.0, -637.0, -650.0, -656.0, -664.0, -668.0, -673.0, -678.0, -684.0, -687.0, -691.0, -696.0, -700.0, -703.0, -709.0, -717.0, -720.0, -723.0, -724.0, -725.0, -725.0, -725.0, -725.0, -725.0, -725.0, -725.0, -725.0, -725.0, -725.0, -725.0, -725.0, -725.0, -725.0, -725.0, -725.0, -725.0, -725.0, -725.0, -725.0, -725.0, -725.0, -725.0, -725.0, -725.0, -725.0, -725.0, -725.0, -725.0, -725.0, -725.0, -725.0, -725.0, -725.0, -725.0, -725.0, -725.0, -725.0, -725.0, -725.0, -725.0, -725.0, -725.0, -725.0, -725.0, -725.0, -725.0, -725.0, -725.0, -725.0, -725.0, -725.0, -725.0, -725.0, -725.0, -725.0, -725.0, -725.0, -725.0, -725.0, -725.0, -725.0, -725.0, -725.0, -725.0, -725.0, -725.0, -725.0, -725.0, -725.0, -725.0, -725.0, -725.0, -725.0, -725.0, -725.0, -725.0, -725.0, -725.0, -725.0, -725.0, -725.0, -725.0]	[-490.0, -490.0, -490.0, -490.0, -490.0, -490.0, -490.0, -490.0, -490.0, -490.0, -488.0, -485.0, -480.0, -467.0, -454.0, -441.0, -426.0, -408.0, -390.0, -374.0, -354.0, -331.0, -306.0, -279.0, -233.0, -196.0, -153.0, -115.0, -64.0, -11.0, 34.0, 80.0, 115.0, 134.0, 163.0, 171.0, 194.0, 212.0, 231.0, 250.0, 266.0, 277.0, 287.0, 293.0, 295.0, 298.0, 302.0, 313.0, 320.0, 330.0, 334.0, 341.0, 347.0, 353.0, 357.0, 361.0, 365.0, 369.0, 373.0, 377.0, 384.0, 387.0, 389.0, 390.0, 390.0, 390.0, 390.0, 390.0, 390.0, 390.0, 390.0, 390.0, 390.0, 390.0, 390.0, 390.0, 390.0, 390.0, 390.0, 390.0, 390.0, 390.0, 390.0, 390.0, 390.0, 390.0, 390.0, 390.0, 390.0, 390.0, 390.0, 390.0, 390.0, 390.0, 390.0, 390.0, 390.0, 390.0, 390.0, 390.0, 390.0, 390.0, 390.0, 390.0, 390.0, 390.0, 390.0, 390.0, 390.0, 390.0, 390.0, 390.0, 390.0, 390.0, 390.0, 390.0, 390.0, 390.0, 390.0, 390.0, 390.0, 390.0, 390.0, 390.0, 390.0, 390.0, 390.0, 390.0, 390.0, 390.0, 390.0, 390.0, 390.0, 390.0, 390.0, 390.0, 390.0, 390.0, 390.0, 390.0, 390.0, 390.0, 390.0, 390.0, 390.0, 390.0, 390.0]	[0.010859408357646316, 0.016330635698977858, 0.02186739898752421, 0.03815239842515439, 0.052570306113921106, 0.07022405101452023, 0.08599022426642478, 0.10346954799024388, 0.11939136910950765, 0.13580368575640023, 0.15246142086107284, 0.16892357217147946, 0.18571681645698845, 0.20545713033061475, 0.21923435589997098, 0.23771173745626584, 0.2524709781864658, 0.2702209790586494, 0.2857195471297018, 0.30286811920814216, 0.3191101106349379, 0.33603033085819334, 0.3522064450662583, 0.36937515577301383, 0.3857615311280824, 0.4025360021041706, 0.41918520390754566, 0.4360931361443363, 0.4522320450632833, 0.4691485106013715, 0.48564854986034334, 0.5026233833632432, 0.5188479668577202, 0.5359088163240813, 0.5525331008248031, 0.5692355505307205, 0.5857485604356043, 0.6027442152844742, 0.6191336626070552, 0.6359043790143915, 0.6521770904655568, 0.6692980144871399, 0.6859267363324761, 0.70277083927067, 0.7191834972472861, 0.735935440286994, 0.7526221887092106, 0.769161139964126, 0.7855403472785838, 0.8023155009723268, 0.8188718602177687, 0.8358767310273834, 0.8521139438380487, 0.8692754865041934, 0.8854959739837795, 0.9027681085863151, 0.9188353375648148, 0.9357466830988415, 0.9521910850889981, 0.9692379398620687, 0.9855062139686197, 1.002322327636648, 1.0194439343758859, 1.0356657871743664, 1.052742337982636, 1.0690334814134985, 1.0861004748148844, 1.1021451757987961, 1.119325150444638, 1.1357453177915886, 1.1528082152362913, 1.1691058439901099, 1.1862875253427774, 1.2021496131201275, 1.2195036676712334, 1.2358634190168232, 1.2529065191629343, 1.2690631773439236, 1.2863574986113235, 1.3022605463629588, 1.3196132355369627, 1.3357166458154097, 1.3554337489767931, 1.3690764893544838, 1.3892008028342389, 1.402141421160195, 1.4219039215822704, 1.435740539105609, 1.4557416313909926, 1.4690853640204296, 1.4888819977641106, 1.5021642904612236, 1.5220302148372866, 1.5357620430877432, 1.5533215801115148, 1.5690713693620637, 1.5865435251034796, 1.6021578051149845, 1.6196903767995536, 1.635775696428027, 1.6527088872971945, 1.6691867399495095, 1.6860195788904093, 1.7021656557917595, 1.7193292464944534, 1.735772283107508, 1.7527812499320135, 1.7690730760223232, 1.7859789602807723, 1.802141762454994, 1.819271561165806, 1.8357565818005241, 1.8526382313575596, 1.8690648840274662, 1.8860175308655016, 1.9021745304344222, 1.9193343664519489, 1.935567483305931, 1.952579522097949, 1.9689174281666055, 1.9860209441976622, 2.002253719721921, 2.0193217371124774, 2.03554802731378, 2.052653591381386, 2.0688826121622697, 2.0859410723205656, 2.102163949108217, 2.119363721110858, 2.1354876113473438, 2.1526812393567525, 2.168814345553983, 2.1859967095660977, 2.202160535787698, 2.219415262399707, 2.2354927313281223, 2.2528030952089466, 2.268851892207749, 2.286046202876605, 2.302194327756297, 2.3207232506247237, 2.3355196966440417, 2.3526914793183096, 2.3688628148520365, 2.3858769016806036, 2.4023066263180226, 2.4193432411411777]
24	animate/a77.jpg	inanimate	animate	right	0.79	[0.0, 0.0, 0.0, 0.0, 0.0, 0.0, 0.0, 0.0, 0.0, -1.0, -2.0, -2.0, -2.0, -2.0, -2.0, -2.0, -2.0, -2.0, -2.0, -2.0, -2.0, 5.0, 19.0, 54.0, 112.0, 241.0, 291.0, 452.0, 561.0, 676.0, 782.0, 865.0, 919.0, 939.0, 944.0, 945.0, 945.0, 945.0, 945.0, 945.0, 945.0, 945.0, 945.0, 945.0, 935.0, 926.0, 921.0]	[-490.0, -490.0, -490.0, -490.0, -490.0, -490.0, -490.0, -490.0, -490.0, -490.0, -484.0, -481.0, -481.0, -481.0, -481.0, -481.0, -481.0, -481.0, -481.0, -481.0, -475.0, -463.0, -445.0, -410.0, -350.0, -211.0, -148.0, 42.0, 168.0, 290.0, 387.0, 463.0, 508.0, 526.0, 531.0, 532.0, 532.0, 532.0, 532.0, 532.0, 532.0, 532.0, 532.0, 527.0, 509.0, 492.0, 482.0]	[0.010464827355463058, 0.015427809790708125, 0.021778993715997785, 0.03578900842694566, 0.052659394044894725, 0.069759838108439, 0.08595813892316073, 0.10303366568405181, 0.11923435586504638, 0.1364092105650343, 0.15312906831968576, 0.17178530839737505, 0.18595301895402372, 0.203029228374362, 0.22161924984538928, 0.23627540800953284, 0.2529345084913075, 0.26961443020263687, 0.2862492960412055, 0.303163030941505, 0.3218656923272647, 0.3363136373227462, 0.35312497231643647, 0.3697321901563555, 0.38834269158542156, 0.4029821244184859, 0.4192862384952605, 0.4361105441348627, 0.4558873806381598, 0.4695584516157396, 0.4863506719702855, 0.5030729190330021, 0.5196879875147715, 0.5362982773222029, 0.555855636659544, 0.5697086381260306, 0.5863144906470552, 0.6031964815920219, 0.6195412143133581, 0.6360480802250095, 0.6531208762899041, 0.6697915820986964, 0.686342821281869, 0.703106710978318, 0.7221817667013966, 0.7362801866838709, 0.7552026665071025]
25	animate/a48.jpg	inanimate	animate	right	0.809	[0.0, 0.0, 0.0, 0.0, 0.0, 0.0, 0.0, 0.0, 0.0, 0.0, 0.0, 0.0, 0.0, 0.0, 0.0, 0.0, 0.0, 0.0, -3.0, -3.0, -3.0, -9.0, -29.0, -70.0, -162.0, -231.0, -287.0, -331.0, -339.0, -335.0, -293.0, -204.0, -68.0, 122.0, 344.0, 707.0, 917.0, 959.0, 959.0, 959.0, 959.0, 959.0, 959.0, 959.0, 959.0, 959.0, 959.0, 959.0, 959.0]	[-490.0, -490.0, -490.0, -490.0, -490.0, -490.0, -490.0, -490.0, -490.0, -490.0, -490.0, -490.0, -490.0, -490.0, -490.0, -490.0, -488.0, -472.0, -452.0, -425.0, -394.0, -345.0, -287.0, -220.0, -97.0, -14.0, 65.0, 127.0, 162.0, 193.0, 241.0, 294.0, 338.0, 383.0, 422.0, 445.0, 445.0, 445.0, 449.0, 456.0, 456.0, 456.0, 456.0, 456.0, 456.0, 456.0, 456.0, 456.0, 456.0]	[0.01215954590588808, 0.016485600906889886, 0.0211505995830521, 0.03878352319588885, 0.054270485998131335, 0.07421662361593917, 0.08759210020070896, 0.10493284271797165, 0.12186262028990313, 0.13833193958271295, 0.15496817068196833, 0.1711575968656689, 0.18785390263656154, 0.2049072427325882, 0.22115571954054758, 0.23814727837452665, 0.2544094085460529, 0.27146684465697035, 0.2880133051658049, 0.3049980373471044, 0.321318194095511, 0.33830463292542845, 0.35480433085467666, 0.3716760817915201, 0.38801842514658347, 0.404885056137573, 0.42150831659091637, 0.4382947342819534, 0.45438926987117156, 0.47149517526850104, 0.48799623851664364, 0.5048676481237635, 0.5213192180963233, 0.5382377316709608, 0.5547138776164502, 0.571506439242512, 0.5877747134072706, 0.6046225710306317, 0.6215096819214523, 0.6380059664952569, 0.6548807894578204, 0.6713043701020069, 0.6881109264213592, 0.7044894511345774, 0.7213349193916656, 0.7379803665098734, 0.7544268164783716, 0.7713402100489475, 0.7882986596086994]
26	inanimate/n28.jpg	inanimate	animate	right	0.757	[0.0, 0.0, 0.0, 0.0, 0.0, 0.0, 0.0, -7.0, -16.0, -27.0, -34.0, -39.0, -46.0, -50.0, -52.0, -55.0, -55.0, -55.0, -55.0, -55.0, -55.0, -50.0, -47.0, -41.0, -38.0, -7.0, 42.0, 112.0, 207.0, 309.0, 422.0, 546.0, 656.0, 795.0, 834.0, 904.0, 920.0, 927.0, 929.0, 929.0, 929.0, 929.0, 929.0, 929.0, 929.0, 929.0]	[-490.0, -490.0, -490.0, -490.0, -490.0, -490.0, -490.0, -487.0, -485.0, -479.0, -476.0, -472.0, -465.0, -461.0, -456.0, -452.0, -445.0, -433.0, -418.0, -398.0, -377.0, -340.0, -328.0, -283.0, -265.0, -194.0, -130.0, -63.0, 8.0, 69.0, 119.0, 171.0, 220.0, 281.0, 299.0, 340.0, 352.0, 359.0, 363.0, 363.0, 363.0, 363.0, 363.0, 363.0, 363.0, 363.0]	[0.000939621648285538, 0.00591420941054821, 0.013792858691886067, 0.03041611920343712, 0.0475155392778106, 0.06377391470596194, 0.08080779883312061, 0.0970733423018828, 0.11421235703164712, 0.1305628924164921, 0.14753362990450114, 0.16387904528528452, 0.18115186254726723, 0.1973525527282618, 0.21437449019867927, 0.23058780969586223, 0.24767733115004376, 0.26373841607710347, 0.28098153736209497, 0.2969849370419979, 0.31434581824578345, 0.3305526524200104, 0.35017145168967545, 0.363670832128264, 0.38403817475773394, 0.3969801584025845, 0.41656892030732706, 0.43043045519152656, 0.4503045715391636, 0.4636425015050918, 0.4830336316372268, 0.497004734352231, 0.5169338053674437, 0.5305502630653791, 0.5503663528361358, 0.563878703978844, 0.5831274982192554, 0.5973136407556012, 0.6165085043758154, 0.6303430739208125, 0.6477667603758164, 0.6639070346136577, 0.680871969438158, 0.6969764037057757, 0.714146138401702, 0.7305560657405294]
27	animate/a23.jpg	inanimate	animate	right	1.043	[0.0, 0.0, 0.0, 0.0, 0.0, 0.0, -1.0, -2.0, -4.0, -5.0, -6.0, -7.0, -12.0, -20.0, -36.0, -46.0, -58.0, -72.0, -90.0, -116.0, -151.0, -198.0, -280.0, -316.0, -425.0, -494.0, -545.0, -590.0, -628.0, -654.0, -673.0, -686.0, -693.0, -695.0, -697.0, -696.0, -694.0, -690.0, -682.0, -674.0, -664.0, -652.0, -633.0, -598.0, -541.0, -489.0, -458.0, -448.0, -448.0, -448.0, -442.0, -391.0, -261.0, -86.0, 143.0, 367.0, 575.0, 737.0, 812.0, 824.0, 824.0, 824.0, 824.0]	[-490.0, -490.0, -490.0, -490.0, -490.0, -490.0, -491.0, -491.0, -491.0, -490.0, -490.0, -485.0, -478.0, -467.0, -440.0, -418.0, -389.0, -355.0, -312.0, -266.0, -215.0, -156.0, -70.0, -42.0, 35.0, 74.0, 105.0, 140.0, 181.0, 221.0, 262.0, 297.0, 333.0, 357.0, 377.0, 387.0, 392.0, 395.0, 398.0, 399.0, 400.0, 402.0, 405.0, 410.0, 418.0, 426.0, 431.0, 433.0, 433.0, 433.0, 433.0, 440.0, 454.0, 456.0, 456.0, 456.0, 456.0, 458.0, 474.0, 479.0, 479.0, 479.0, 479.0]	[0.0013103093369863927, 0.008660233695991337, 0.01747174619231373, 0.0345360089559108, 0.050838416384067386, 0.06796650844626129, 0.08405080402735621, 0.10125398938544095, 0.11739358096383512, 0.13461929425830022, 0.15083705104188994, 0.16788800182985142, 0.1840333960717544, 0.20130245864856988, 0.21766664739698172, 0.234718622174114, 0.2507012005080469, 0.2680586683563888, 0.28397605213103816, 0.30132805864559487, 0.31745502090780064, 0.3346902914927341, 0.35082612838596106, 0.37063914618920535, 0.38401462277397513, 0.4040297096944414, 0.41749359149252996, 0.437108977464959, 0.45082066708710045, 0.4706374395173043, 0.4841101960046217, 0.5025189696461894, 0.5174485355382785, 0.5358798371744342, 0.5507916537462734, 0.5681890575797297, 0.5841187293408439, 0.6015035037999041, 0.6173819756368175, 0.6345373743097298, 0.6508032591082156, 0.667716994008515, 0.6841477426351048, 0.7011468107812107, 0.7176311487564817, 0.7344868570216931, 0.7509032696834765, 0.7676347327069379, 0.7840248627471738, 0.8012212213943712, 0.8175697088008747, 0.8346080302726477, 0.8508059897576459, 0.867928279156331, 0.8841132679954171, 0.9011659254319966, 0.9176256873761304, 0.9346370435669087, 0.9510469709057361, 0.9676463380455971, 0.9840917640249245, 1.0011908427695744, 1.0174283969099633]
28	animate/a8.jpg	inanimate	animate	right	1.137	[0.0, 0.0, 0.0, 0.0, 0.0, 0.0, 0.0, 0.0, -2.0, -7.0, -12.0, -17.0, -19.0, -19.0, -21.0, -22.0, -29.0, -42.0, -56.0, -79.0, -109.0, -147.0, -188.0, -234.0, -288.0, -310.0, -318.0, -323.0, -325.0, -325.0, -325.0, -326.0, -328.0, -340.0, -404.0, -461.0, -510.0, -546.0, -573.0, -595.0, -613.0, -624.0, -638.0, -656.0, -691.0, -705.0, -736.0, -747.0, -748.0, -748.0, -748.0, -748.0, -748.0, -748.0, -735.0, -718.0, -583.0, -509.0, -193.0, -66.0, 341.0, 629.0, 904.0, 959.0, 959.0, 959.0, 959.0, 959.0]	[-490.0, -490.0, -490.0, -490.0, -490.0, -490.0, -490.0, -490.0, -490.0, -490.0, -487.0, -486.0, -485.0, -484.0, -482.0, -470.0, -442.0, -398.0, -341.0, -275.0, -208.0, -139.0, -67.0, 13.0, 119.0, 165.0, 188.0, 206.0, 220.0, 232.0, 242.0, 251.0, 260.0, 270.0, 284.0, 294.0, 300.0, 305.0, 305.0, 305.0, 306.0, 308.0, 312.0, 317.0, 327.0, 331.0, 339.0, 342.0, 342.0, 342.0, 342.0, 342.0, 342.0, 342.0, 353.0, 359.0, 395.0, 405.0, 439.0, 439.0, 439.0, 439.0, 439.0, 439.0, 439.0, 439.0, 440.0, 442.0]	[0.0041696561966091394, 0.009643614175729454, 0.02379152743378654, 0.04037348664132878, 0.057349685463123024, 0.07377531414385885, 0.0906900730333291, 0.10708498168969527, 0.12394410331035033, 0.1401338708237745, 0.15695476316614076, 0.1738046687678434, 0.19071703834924847, 0.20712662435835227, 0.22419361775973812, 0.24031272938009351, 0.25722373358439654, 0.27349473838694394, 0.29025623871712014, 0.307326304144226, 0.32381132477894425, 0.3407288143062033, 0.35682642192114145, 0.3739630472846329, 0.3901494015008211, 0.407283978885971, 0.42356658895732835, 0.44075407297350466, 0.4570411203894764, 0.4740808071801439, 0.4901521321735345, 0.5072914881748147, 0.5237256501568481, 0.5406919503584504, 0.5570271257311106, 0.5740784178487957, 0.590271940047387, 0.6073290348285809, 0.6237621728214435, 0.6406612303690054, 0.6570387310930528, 0.6742217777646147, 0.6902302974485792, 0.7074775146902539, 0.7237652448238805, 0.7411251019802876, 0.7570513603859581, 0.7742286043940112, 0.7901357481605373, 0.8075976639520377, 0.8235771703184582, 0.8436850997968577, 0.8569049285142682, 0.876982479414437, 0.8902248360682279, 0.9103006803197786, 0.9235628343303688, 0.9437386891222559, 0.9568950298707932, 0.9767107783118263, 0.9901528148329817, 1.0103976188693196, 1.023566588992253, 1.042936897778418, 1.0570981230121106, 1.0765070024644956, 1.0901255081989802, 1.108646580367349]
29	inanimate/n55.jpg	animate	inanimate	right	1.311	[0.0, 0.0, 0.0, 0.0, 0.0, 0.0, 0.0, -4.0, -13.0, -25.0, -37.0, -44.0, -46.0, -46.0, -46.0, -46.0, -46.0, -46.0, -46.0, -46.0, -46.0, -46.0, -46.0, -46.0, -46.0, -46.0, -46.0, -46.0, -47.0, -51.0, -62.0, -86.0, -114.0, -153.0, -191.0, -219.0, -251.0, -290.0, -300.0, -344.0, -371.0, -393.0, -409.0, -428.0, -456.0, -488.0, -514.0, -541.0, -568.0, -592.0, -615.0, -636.0, -672.0, -695.0, -802.0, -878.0, -932.0, -960.0, -960.0, -960.0, -960.0, -960.0, -960.0, -865.0, -781.0, -434.0, -167.0, 143.0, 420.0, 682.0, 903.0, 959.0, 959.0, 959.0, 959.0, 959.0, 959.0, 959.0, 959.0]	[-490.0, -490.0, -490.0, -490.0, -490.0, -490.0, -490.0, -487.0, -482.0, -476.0, -468.0, -464.0, -462.0, -462.0, -462.0, -462.0, -462.0, -462.0, -462.0, -462.0, -462.0, -462.0, -462.0, -462.0, -458.0, -447.0, -435.0, -423.0, -405.0, -395.0, -375.0, -345.0, -313.0, -274.0, -240.0, -214.0, -186.0, -141.0, -127.0, -73.0, -34.0, -1.0, 28.0, 62.0, 105.0, 149.0, 185.0, 219.0, 254.0, 285.0, 312.0, 334.0, 365.0, 377.0, 426.0, 457.0, 484.0, 501.0, 511.0, 512.0, 512.0, 512.0, 512.0, 512.0, 512.0, 512.0, 512.0, 512.0, 512.0, 512.0, 512.0, 520.0, 533.0, 540.0, 540.0, 540.0, 540.0, 540.0, 540.0]	[0.002233615145087242, 0.008316852618008852, 0.019300608604680747, 0.036503793904557824, 0.05269560945453122, 0.06985954148694873, 0.08628790080547333, 0.10324088897323236, 0.11951291776495054, 0.1366198471514508, 0.15263826551381499, 0.16977318422868848, 0.1859728503623046, 0.20315896905958652, 0.21927261928794906, 0.23647853528382257, 0.2526270014932379, 0.269870464107953, 0.28606739960378036, 0.30323235562536865, 0.3193238192470744, 0.33654065791051835, 0.35267444676719606, 0.36969570157816634, 0.38612986356019974, 0.4031924196751788, 0.41980612283805385, 0.4364669299684465, 0.45506377809215337, 0.46981653349939734, 0.4887168267159723, 0.5030616891453974, 0.5216397639596835, 0.5364508873317391, 0.5528010813286528, 0.5697940055397339, 0.5887553973589092, 0.6030019558384083, 0.6199255894171074, 0.6365549938636832, 0.6553610791452229, 0.6697335895732976, 0.6874228331143968, 0.7031616996973753, 0.7200795306125656, 0.7365157405729406, 0.7536731872824021, 0.7697981015080586, 0.7866435698233545, 0.8031425850349478, 0.8198900907882489, 0.8365311005618423, 0.8528533052885905, 0.8695083097554743, 0.8860636449535377, 0.9029371025972068, 0.9204625062993728, 0.9360115916933864, 0.953931235068012, 0.9695178670808673, 0.9878522300859913, 1.0027067027403973, 1.0212820469168946, 1.0359805303742178, 1.0537445258814842, 1.0695694083697163, 1.0872787905973382, 1.1029470012290403, 1.1202092371531762, 1.136052210291382, 1.1531417317455634, 1.169518549751956, 1.1865773511817679, 1.2028599613113329, 1.219772330892738, 1.235998621035833, 1.2531584570533596, 1.269373141869437, 1.2863619700656272]
30	animate/a53.jpg	inanimate	animate	right	0.934	[0.0, 0.0, 0.0, 0.0, 0.0, 0.0, 0.0, 0.0, 0.0, -3.0, -11.0, -16.0, -17.0, -8.0, 1.0, 13.0, 24.0, 32.0, 38.0, 38.0, 32.0, 0.0, -42.0, -99.0, -164.0, -272.0, -339.0, -406.0, -466.0, -521.0, -568.0, -601.0, -636.0, -665.0, -683.0, -694.0, -705.0, -713.0, -724.0, -740.0, -758.0, -779.0, -790.0, -793.0, -793.0, -766.0, -653.0, -483.0, -262.0, 127.0, 399.0, 672.0, 906.0, 959.0, 959.0, 959.0]	[-490.0, -490.0, -490.0, -490.0, -490.0, -490.0, -490.0, -490.0, -490.0, -490.0, -484.0, -471.0, -461.0, -441.0, -429.0, -414.0, -396.0, -375.0, -352.0, -333.0, -306.0, -259.0, -211.0, -161.0, -114.0, -43.0, -5.0, 38.0, 79.0, 118.0, 161.0, 206.0, 267.0, 329.0, 370.0, 394.0, 419.0, 434.0, 448.0, 465.0, 481.0, 498.0, 509.0, 516.0, 521.0, 533.0, 540.0, 540.0, 540.0, 527.0, 527.0, 527.0, 527.0, 527.0, 530.0, 536.0]	[0.0004569767042994499, 0.009408777055796236, 0.016192771261557937, 0.0329911356093362, 0.0501369769917801, 0.06613116065273061, 0.08314183412585407, 0.09970297198742628, 0.11663957621203735, 0.13298362627392635, 0.1497772119473666, 0.16614276595646515, 0.18321999942418188, 0.19970536133041605, 0.21653854165924713, 0.23301639425335452, 0.2498625452280976, 0.26607142738066614, 0.2829127996810712, 0.3002255529281683, 0.31630370451603085, 0.3333276899647899, 0.3494222256122157, 0.36671791214030236, 0.3827373544918373, 0.3998319958918728, 0.4161811659578234, 0.43342121521709487, 0.44974683329928666, 0.46677389077376574, 0.4828615997103043, 0.49990845448337495, 0.5161477153305896, 0.5332624953589402, 0.5496918786666356, 0.5667650161194615, 0.5829732156125829, 0.5999941290938295, 0.6161374752991833, 0.6333464633207768, 0.6497198679717258, 0.6667237148503773, 0.6829841382568702, 0.6998705665464513, 0.7160756940138526, 0.7331867194152437, 0.7496215640567243, 0.7667220081784762, 0.7829919889336452, 0.7999640917987563, 0.8163030218565837, 0.8332942393608391, 0.8497082626563497, 0.8668285040766932, 0.8830035942373797, 0.9000289450632408]
31	animate/a42.jpg	inanimate	animate	right	0.933	[0.0, 0.0, 0.0, 0.0, 0.0, 0.0, -1.0, -2.0, -4.0, -8.0, -11.0, -13.0, -13.0, -13.0, -14.0, -14.0, -12.0, -3.0, 12.0, 29.0, 50.0, 72.0, 103.0, 141.0, 182.0, 250.0, 291.0, 344.0, 396.0, 448.0, 500.0, 545.0, 575.0, 595.0, 603.0, 610.0, 610.0, 610.0, 610.0, 610.0, 610.0, 610.0, 610.0, 610.0, 610.0, 610.0, 610.0, 627.0, 642.0, 705.0, 752.0, 800.0, 833.0, 858.0, 872.0, 876.0]	[-490.0, -490.0, -490.0, -490.0, -490.0, -490.0, -491.0, -491.0, -491.0, -491.0, -491.0, -490.0, -490.0, -490.0, -488.0, -486.0, -480.0, -470.0, -454.0, -433.0, -403.0, -363.0, -322.0, -281.0, -245.0, -184.0, -150.0, -107.0, -70.0, -31.0, 15.0, 60.0, 99.0, 130.0, 148.0, 168.0, 173.0, 189.0, 198.0, 204.0, 209.0, 209.0, 209.0, 209.0, 209.0, 209.0, 209.0, 238.0, 255.0, 331.0, 381.0, 428.0, 462.0, 484.0, 496.0, 497.0]	[0.0007225338486023247, 0.006137782533187419, 0.0163258911925368, 0.03295324766077101, 0.04968129738699645, 0.06665954424533993, 0.08311725821113214, 0.0999944704817608, 0.11635626980569214, 0.13330345536815003, 0.149708945362363, 0.16673941619228572, 0.18285818642470986, 0.20001358509762213, 0.21640576311619952, 0.23333451669896021, 0.24963965476490557, 0.26681416807696223, 0.2828561384230852, 0.3000982357189059, 0.3163112138863653, 0.33334816998103634, 0.3495423748390749, 0.3666916295187548, 0.3828646717593074, 0.39999822509707883, 0.41620676597813144, 0.4333567033172585, 0.4495734361698851, 0.4666663709213026, 0.48288515175227076, 0.499947025149595, 0.516271619242616, 0.5333843512926251, 0.5496417027316056, 0.5666742215398699, 0.5829629756626673, 0.5999432704993524, 0.6188363957335241, 0.633327690011356, 0.6521597165847197, 0.6667411228409037, 0.6858083279221319, 0.6999548758030869, 0.718426113424357, 0.7333601166610606, 0.7520293273846619, 0.7665725043043494, 0.7853191976319067, 0.7998951425543055, 0.8175393301644363, 0.8334328205673955, 0.8505298513337038, 0.8666015175986104, 0.8836674870690331, 0.8999562411336228]
32	animate/a21.jpg	animate	inanimate	right	0.825	[0.0, 0.0, 0.0, 0.0, 0.0, 0.0, 0.0, 0.0, 0.0, 0.0, 0.0, 0.0, 0.0, 0.0, 0.0, 0.0, 0.0, 0.0, 4.0, 18.0, 34.0, 53.0, 79.0, 117.0, 187.0, 212.0, 285.0, 310.0, 384.0, 436.0, 487.0, 539.0, 648.0, 688.0, 800.0, 832.0, 900.0, 913.0, 935.0, 936.0, 936.0, 936.0, 936.0, 936.0, 936.0, 936.0, 936.0, 936.0, 936.0, 936.0]	[-490.0, -490.0, -490.0, -490.0, -490.0, -490.0, -490.0, -490.0, -490.0, -490.0, -490.0, -490.0, -490.0, -490.0, -490.0, -490.0, -490.0, -490.0, -489.0, -487.0, -485.0, -482.0, -475.0, -464.0, -430.0, -412.0, -352.0, -323.0, -222.0, -139.0, -56.0, 28.0, 165.0, 210.0, 335.0, 367.0, 432.0, 445.0, 467.0, 469.0, 469.0, 469.0, 469.0, 469.0, 469.0, 469.0, 469.0, 469.0, 469.0, 469.0]	[0.0071692909696139395, 0.021016148501075804, 0.026219429390039295, 0.042572012811433524, 0.05949940101709217, 0.0763916319119744, 0.09278722328599542, 0.1098695766995661, 0.12598186160903424, 0.14302154839970171, 0.15938915044534951, 0.17640118923736736, 0.19278927124105394, 0.20982315542642027, 0.2259791309479624, 0.2431256549898535, 0.25923043058719486, 0.27654045313829556, 0.29285617254208773, 0.309606067603454, 0.3261627681204118, 0.34305022039916366, 0.35954479832435027, 0.37679201556602493, 0.39254180481657386, 0.4100255658850074, 0.42610440019052476, 0.443201772228349, 0.459219507931266, 0.47665275167673826, 0.49285890319151804, 0.5128985660849139, 0.5261262455023825, 0.5458399353083223, 0.5592311132350005, 0.5789591390639544, 0.5928404712467454, 0.6121489987708628, 0.6261398987844586, 0.6432454628520645, 0.6592509105685167, 0.676801914232783, 0.6928169192397036, 0.7106167547171935, 0.7261730080936104, 0.7435250146663748, 0.7592266759020276, 0.7765459144720808, 0.7928684605285525, 0.8104672508779913]
33	inanimate/n62.jpg	inanimate	animate	left	1.66	[0.0, 0.0, 0.0, 0.0, 0.0, 0.0, 0.0, 0.0, 0.0, 0.0, 0.0, 0.0, 1.0, 2.0, 5.0, 10.0, 20.0, 36.0, 62.0, 88.0, 115.0, 147.0, 181.0, 207.0, 231.0, 261.0, 296.0, 356.0, 404.0, 456.0, 513.0, 555.0, 581.0, 597.0, 601.0, 603.0, 603.0, 603.0, 603.0, 603.0, 603.0, 603.0, 603.0, 607.0, 618.0, 636.0, 649.0, 660.0, 668.0, 671.0, 672.0, 673.0, 674.0, 677.0, 679.0, 683.0, 687.0, 690.0, 690.0, 690.0, 690.0, 671.0, 593.0, 458.0, 274.0, 56.0, -168.0, -382.0, -550.0, -666.0, -726.0, -744.0, -746.0, -746.0, -749.0, -760.0, -779.0, -801.0, -820.0, -828.0, -830.0, -830.0, -830.0, -830.0, -830.0, -830.0, -830.0, -830.0, -830.0, -830.0, -830.0, -830.0, -830.0, -830.0, -830.0, -830.0, -830.0, -830.0, -830.0, -830.0]	[-490.0, -489.0, -489.0, -489.0, -489.0, -489.0, -489.0, -489.0, -489.0, -489.0, -489.0, -489.0, -479.0, -470.0, -462.0, -449.0, -427.0, -384.0, -330.0, -265.0, -208.0, -145.0, -87.0, -46.0, -16.0, 17.0, 48.0, 80.0, 103.0, 125.0, 150.0, 168.0, 180.0, 190.0, 195.0, 197.0, 197.0, 197.0, 197.0, 197.0, 197.0, 197.0, 200.0, 215.0, 246.0, 271.0, 291.0, 308.0, 324.0, 331.0, 340.0, 346.0, 357.0, 375.0, 390.0, 406.0, 422.0, 433.0, 437.0, 438.0, 438.0, 438.0, 438.0, 438.0, 438.0, 438.0, 443.0, 445.0, 454.0, 468.0, 478.0, 481.0, 481.0, 481.0, 481.0, 481.0, 477.0, 466.0, 456.0, 450.0, 448.0, 448.0, 448.0, 448.0, 448.0, 448.0, 448.0, 448.0, 448.0, 448.0, 448.0, 448.0, 448.0, 448.0, 448.0, 448.0, 448.0, 448.0, 448.0, 448.0]	[0.013921848440077156, 0.01989244599826634, 0.025113476207479835, 0.03703760472126305, 0.054431253869552165, 0.0704169042292051, 0.08782864402746782, 0.10394843824906275, 0.12120316486107185, 0.1376636095228605, 0.1544486618367955, 0.17084937315667048, 0.1878853053203784, 0.20633708691457286, 0.220946823770646, 0.23875997122377157, 0.2546019203728065, 0.27146206598263234, 0.28785834001610056, 0.3039184009539895, 0.32081165589625016, 0.33733866043621674, 0.3541667207609862, 0.37085415184265, 0.38758868689183146, 0.40416313672903925, 0.42094614112284034, 0.4372813164955005, 0.45406909950543195, 0.47126921283779666, 0.4873033324838616, 0.5044635098311119, 0.520834183844272, 0.5378851346322335, 0.5541431687888689, 0.5710910369525664, 0.5873483884497546, 0.6042669019661844, 0.6209191757952794, 0.6372642498463392, 0.6543145179748535, 0.6709722530795261, 0.6876897214679047, 0.7042058033985086, 0.7211919008987024, 0.7372833644622006, 0.7544203312136233, 0.7708674638415687, 0.7878706280025654, 0.8042610993143171, 0.8211929248645902, 0.8374666603049263, 0.8544141871971078, 0.870913885126356, 0.8879146599210799, 0.9041839580750093, 0.9211768822278827, 0.9373755244305357, 0.9545397977344692, 0.970660274673719, 0.9878283026628196, 1.0041679154383019, 1.0211751755559817, 1.0376380095258355, 1.0544947417802177, 1.070666759973392, 1.0878788199624978, 1.1041805447312072, 1.1212096501840279, 1.137255716486834, 1.1544356911908835, 1.1705657254206017, 1.1878283026744612, 1.2041464114445262, 1.2212024822365493, 1.237265273812227, 1.2545107844634913, 1.2708756558131427, 1.287840249366127, 1.3040733661619015, 1.3214420980075374, 1.3372898498200811, 1.3548900054884143, 1.3708725838223472, 1.388012963871006, 1.4040706355008297, 1.4242109916522168, 1.4372587885009125, 1.4546848643221892, 1.4705882534035482, 1.4905804709997028, 1.5040228488505818, 1.5241430663736537, 1.5372468418790959, 1.556933566404041, 1.5705858640722, 1.5901138687622733, 1.60391976631945, 1.6219001669669524, 1.6372611778206192]
34	inanimate/n9.jpg	animate	inanimate	right	0.85	[0.0, 0.0, 0.0, 0.0, 0.0, 0.0, 0.0, 0.0, 5.0, 8.0, 10.0, 13.0, 14.0, 17.0, 19.0, 27.0, 35.0, 38.0, 43.0, 57.0, 80.0, 120.0, 161.0, 195.0, 244.0, 308.0, 331.0, 402.0, 465.0, 532.0, 591.0, 654.0, 724.0, 784.0, 831.0, 860.0, 874.0, 881.0, 881.0, 882.0, 882.0, 882.0, 882.0, 882.0, 882.0, 882.0, 882.0, 882.0, 882.0, 882.0, 882.0]	[-490.0, -490.0, -490.0, -490.0, -490.0, -490.0, -490.0, -486.0, -481.0, -477.0, -473.0, -469.0, -464.0, -457.0, -453.0, -439.0, -431.0, -413.0, -394.0, -366.0, -322.0, -243.0, -149.0, -75.0, 13.0, 96.0, 118.0, 175.0, 220.0, 260.0, 298.0, 343.0, 388.0, 417.0, 442.0, 459.0, 467.0, 473.0, 473.0, 474.0, 474.0, 474.0, 474.0, 474.0, 474.0, 474.0, 474.0, 474.0, 474.0, 474.0, 474.0]	[0.010352528828661889, 0.016306401055771858, 0.02572685165796429, 0.036060026846826077, 0.05353764398023486, 0.06908570532687008, 0.08929159742547199, 0.10236909030936658, 0.12186603364534676, 0.13565759523771703, 0.15364379854872823, 0.16944888373836875, 0.18649403180461377, 0.20254590082913637, 0.21990234463009983, 0.23642354656476527, 0.2529781991033815, 0.26925910252612084, 0.28634930663974956, 0.30305755900917575, 0.319452126394026, 0.3360009762691334, 0.35294679645448923, 0.36946287838509306, 0.3885580727364868, 0.4028670951956883, 0.42195034289034083, 0.43629008531570435, 0.45536650641588494, 0.46964788087643683, 0.4877074707765132, 0.5032995641813613, 0.5226825022837147, 0.5359350990038365, 0.5529880977701396, 0.5697868034476414, 0.5864083572523668, 0.602580375445541, 0.6197688834508881, 0.6364566558622755, 0.6554460370098241, 0.6696683608461171, 0.6863271199981682, 0.7027786899125203, 0.719555550313089, 0.7362358134123497, 0.7527986579225399, 0.7692973318626173, 0.7864626292139292, 0.803048343048431, 0.81961699022213]
35	inanimate/n60.jpg	animate	inanimate	right	0.896	[0.0, 0.0, 0.0, 0.0, 0.0, 0.0, -3.0, -10.0, -17.0, -26.0, -36.0, -38.0, -42.0, -47.0, -51.0, -61.0, -88.0, -114.0, -156.0, -219.0, -290.0, -364.0, -440.0, -511.0, -606.0, -661.0, -708.0, -745.0, -770.0, -788.0, -799.0, -804.0, -806.0, -807.0, -807.0, -807.0, -807.0, -807.0, -807.0, -807.0, -807.0, -807.0, -807.0, -711.0, -503.0, -69.0, 92.0, 563.0, 703.0, 959.0, 959.0, 959.0, 959.0, 959.0]	[-490.0, -490.0, -490.0, -490.0, -490.0, -490.0, -489.0, -482.0, -472.0, -458.0, -434.0, -425.0, -394.0, -368.0, -342.0, -299.0, -232.0, -180.0, -101.0, -16.0, 65.0, 141.0, 211.0, 262.0, 324.0, 355.0, 376.0, 391.0, 399.0, 405.0, 408.0, 409.0, 409.0, 409.0, 409.0, 409.0, 409.0, 409.0, 409.0, 409.0, 409.0, 409.0, 409.0, 409.0, 409.0, 409.0, 409.0, 409.0, 409.0, 447.0, 460.0, 466.0, 466.0, 466.0]	[0.0008505337173119187, 0.006627936789300293, 0.01676586945541203, 0.0334785592276603, 0.050323686155024916, 0.06669128820067272, 0.08378319896291941, 0.09995726513443515, 0.116835160064511, 0.13465957151493058, 0.15004584105918184, 0.1671285358024761, 0.1833991992752999, 0.2005286566563882, 0.21673924545757473, 0.23396530013997108, 0.25002536107786, 0.2671039598644711, 0.2835579191450961, 0.30072048580041155, 0.3169215173111297, 0.3337290976778604, 0.3500205824384466, 0.3671005464857444, 0.38360297511098906, 0.4005808805814013, 0.41664333088556305, 0.43364444706821814, 0.45009021437726915, 0.46692339464789256, 0.483417289913632, 0.5002173609100282, 0.5171990210656077, 0.5335830071126111, 0.550589925958775, 0.5668704880517907, 0.5838026549317874, 0.5999801344587468, 0.6172375917085446, 0.633311647339724, 0.6504895740072243, 0.6668650266947225, 0.6838951561949216, 0.7001849343068898, 0.7172672877204604, 0.7333983459393494, 0.7506035792757757, 0.7667209841893055, 0.7840470494120382, 0.8000832170364447, 0.8172867436660454, 0.8335604791063815, 0.8531833743909374, 0.8667097201687284]
36	inanimate/n18.jpg	inanimate	animate	left	1.325	[0.0, 0.0, 0.0, 0.0, 0.0, 0.0, 0.0, 0.0, 0.0, 0.0, 0.0, -1.0, -3.0, -17.0, -33.0, -49.0, -77.0, -113.0, -153.0, -198.0, -248.0, -322.0, -347.0, -419.0, -466.0, -509.0, -542.0, -571.0, -587.0, -606.0, -620.0, -636.0, -652.0, -671.0, -687.0, -705.0, -712.0, -716.0, -717.0, -717.0, -717.0, -717.0, -717.0, -717.0, -717.0, -717.0, -717.0, -717.0, -717.0, -717.0, -717.0, -717.0, -717.0, -717.0, -717.0, -717.0, -713.0, -685.0, -655.0, -626.0, -604.0, -603.0, -603.0, -603.0, -603.0, -603.0, -603.0, -603.0, -603.0, -603.0, -618.0, -649.0, -709.0, -772.0, -803.0, -812.0, -812.0, -812.0, -812.0, -812.0]	[-490.0, -490.0, -490.0, -490.0, -490.0, -490.0, -490.0, -490.0, -490.0, -490.0, -490.0, -490.0, -489.0, -474.0, -458.0, -438.0, -407.0, -364.0, -309.0, -255.0, -196.0, -111.0, -81.0, 4.0, 58.0, 109.0, 153.0, 194.0, 216.0, 248.0, 273.0, 302.0, 331.0, 359.0, 383.0, 415.0, 427.0, 436.0, 437.0, 437.0, 437.0, 437.0, 437.0, 437.0, 437.0, 437.0, 437.0, 437.0, 437.0, 437.0, 437.0, 437.0, 437.0, 437.0, 437.0, 437.0, 440.0, 441.0, 441.0, 441.0, 440.0, 439.0, 439.0, 439.0, 439.0, 439.0, 439.0, 439.0, 439.0, 439.0, 436.0, 435.0, 435.0, 435.0, 435.0, 435.0, 435.0, 435.0, 435.0, 435.0]	[0.00804750673705712, 0.01377370988484472, 0.021271431469358504, 0.031333246850408614, 0.0484080909518525, 0.0644667866290547, 0.08175462251529098, 0.09775051288306713, 0.11509125540032983, 0.13139775884337723, 0.14857466152170673, 0.16460878116777167, 0.18377292482182384, 0.19788909406634048, 0.21913024928653613, 0.23132505489047617, 0.2511131553328596, 0.2646142424782738, 0.28385313804028556, 0.29768565960694104, 0.3161152545362711, 0.3312724895658903, 0.3492993115214631, 0.36458795983344316, 0.38169454789021984, 0.3978764647617936, 0.4149298048578203, 0.43123118829680607, 0.44843437359668314, 0.4645923971547745, 0.4815402653766796, 0.4977518782252446, 0.514822284982074, 0.5312912628869526, 0.5481517498847097, 0.5646022958098911, 0.5815348040196113, 0.5977034089155495, 0.6147789356764406, 0.6313271028921008, 0.6481715471600182, 0.6646736343973316, 0.6815392413409427, 0.6981263205525465, 0.7148755328962579, 0.7311089910799637, 0.7482927204109728, 0.7644254852784798, 0.7815743986866437, 0.7977863528067246, 0.8148311596014537, 0.8310492577729747, 0.848307739070151, 0.8643920346512459, 0.881603070651181, 0.897789083479438, 0.9149386795470491, 0.9310724684037268, 0.9481449231971055, 0.9645251545589417, 0.9815726919914596, 0.9979273233911954, 1.0149106901953928, 1.0312141216709279, 1.048304325726349, 1.0672834668657742, 1.0814450334291905, 1.1005552464630455, 1.1148164822952822, 1.1338765193941072, 1.1480967952520587, 1.167219637602102, 1.1814231881289743, 1.2007511716219597, 1.2147512877127156, 1.2320237636449747, 1.2483845389797352, 1.2646156077971682, 1.281259348266758, 1.2977064808947034]
37	animate/a64.jpg	animate	inanimate	left	1.898	[0.0, 0.0, 0.0, 0.0, 0.0, 0.0, 0.0, 0.0, 0.0, 0.0, 0.0, 0.0, 0.0, 9.0, 26.0, 50.0, 91.0, 152.0, 229.0, 311.0, 405.0, 486.0, 567.0, 649.0, 708.0, 786.0, 819.0, 853.0, 871.0, 884.0, 895.0, 901.0, 904.0, 905.0, 905.0, 906.0, 906.0, 906.0, 906.0, 906.0, 906.0, 906.0, 906.0, 906.0, 906.0, 906.0, 904.0, 903.0, 893.0, 877.0, 834.0, 752.0, 630.0, 471.0, 281.0, 70.0, -142.0, -296.0, -407.0, -419.0, -425.0, -425.0, -425.0, -425.0, -427.0, -434.0, -440.0, -442.0, -443.0, -444.0, -448.0, -458.0, -528.0, -583.0, -752.0, -862.0, -954.0, -960.0, -960.0, -960.0, -960.0, -960.0, -960.0, -960.0, -960.0, -960.0, -960.0, -960.0, -960.0, -960.0, -960.0, -960.0, -960.0, -960.0, -960.0, -960.0, -956.0, -949.0, -926.0, -913.0, -904.0, -894.0, -887.0, -884.0, -883.0, -883.0, -883.0, -883.0, -883.0, -883.0, -883.0, -883.0, -883.0, -880.0]	[-490.0, -490.0, -490.0, -490.0, -490.0, -490.0, -490.0, -490.0, -490.0, -490.0, -490.0, -490.0, -481.0, -453.0, -420.0, -380.0, -323.0, -250.0, -164.0, -67.0, 30.0, 124.0, 214.0, 293.0, 365.0, 449.0, 487.0, 527.0, 540.0, 540.0, 540.0, 540.0, 540.0, 540.0, 540.0, 540.0, 540.0, 540.0, 540.0, 540.0, 540.0, 540.0, 540.0, 540.0, 540.0, 540.0, 530.0, 524.0, 505.0, 485.0, 452.0, 412.0, 375.0, 349.0, 341.0, 341.0, 365.0, 386.0, 400.0, 400.0, 400.0, 400.0, 400.0, 400.0, 400.0, 400.0, 400.0, 400.0, 400.0, 400.0, 400.0, 400.0, 400.0, 400.0, 408.0, 420.0, 435.0, 447.0, 452.0, 452.0, 452.0, 452.0, 452.0, 452.0, 452.0, 452.0, 452.0, 452.0, 452.0, 452.0, 452.0, 452.0, 452.0, 452.0, 452.0, 452.0, 456.0, 461.0, 477.0, 485.0, 492.0, 498.0, 503.0, 505.0, 505.0, 505.0, 505.0, 505.0, 505.0, 505.0, 505.0, 505.0, 505.0, 505.0]	[0.013936184404883534, 0.018870153522584587, 0.026282541861291975, 0.043421556532848626, 0.059609276067931205, 0.07668753352481872, 0.09293259697733447, 0.10976953193312511, 0.126795906748157, 0.14304916223045439, 0.16011001163860783, 0.1762922698399052, 0.19346063915872946, 0.20968453999375924, 0.22682730940869078, 0.24340380722424015, 0.2601963689085096, 0.276323672500439, 0.2931210128008388, 0.31015592091716826, 0.3262856138171628, 0.34332018066197634, 0.3598475265316665, 0.3766745628672652, 0.39319201005855575, 0.41009721165755764, 0.426345688465517, 0.4434038072358817, 0.4599082838394679, 0.47692851460305974, 0.4931889380677603, 0.5101777662639506, 0.5262818592018448, 0.543413023231551, 0.559837969194632, 0.5768227013759315, 0.5929186023422517, 0.6100224597030319, 0.6262678645434789, 0.6434454498812556, 0.6599386624875478, 0.6767725254176185, 0.6931742607848719, 0.7101726462715305, 0.7264637897023931, 0.7434812898281962, 0.7598625451792032, 0.7767250801553018, 0.793192692741286, 0.8102910888264887, 0.8263941577752121, 0.8437267083209008, 0.8599236438167281, 0.8770070212194696, 0.8931773327640258, 0.9101716222357936, 0.9266071495949291, 0.9435536524397321, 0.9598458198597655, 0.9780180496745743, 0.9932251193677075, 1.0133610382326879, 1.0262572832289152, 1.0466754844528623, 1.0598905344959348, 1.0794328751508147, 1.0929083623341285, 1.112524430907797, 1.1263791390811093, 1.1446933634579182, 1.1598386518890038, 1.1774521195329726, 1.1932111247442663, 1.2106409551925026, 1.2262907338445075, 1.2439868040964939, 1.2599420757615007, 1.2768326000659727, 1.2932193167507648, 1.3101146196131594, 1.3266815601964481, 1.3435413644765504, 1.3598758571897633, 1.3767247388022952, 1.3931978127220646, 1.4100651263725013, 1.4263337418087758, 1.4434048312250525, 1.4598724438692443, 1.476820994692389, 1.4931602661381476, 1.5101849342463538, 1.5262880031950772, 1.5434079032274894, 1.5599181824945845, 1.576843181392178, 1.5932411620160565, 1.6100524970097467, 1.626260013843421, 1.6435021111392416, 1.659757073270157, 1.6768271386972629, 1.6929104103473946, 1.7100685396580957, 1.726371971075423, 1.7434850445133634, 1.7596256600809284, 1.7769172506523319, 1.7931520740967244, 1.8100463530281559, 1.82629244052805, 1.8432911673444323, 1.859900433162693, 1.8768462533480488]
38	animate/a3.jpg	inanimate	animate	right	0.8	[0.0, 0.0, 0.0, 0.0, 0.0, 0.0, 0.0, 0.0, 0.0, 0.0, 3.0, 15.0, 25.0, 34.0, 40.0, 44.0, 47.0, 48.0, 54.0, 59.0, 66.0, 75.0, 86.0, 86.0, 99.0, 139.0, 226.0, 367.0, 534.0, 776.0, 847.0, 959.0, 959.0, 959.0, 959.0, 959.0, 959.0, 959.0, 958.0, 956.0, 954.0, 952.0, 952.0, 949.0, 947.0, 945.0, 945.0, 945.0]	[-490.0, -490.0, -490.0, -490.0, -490.0, -490.0, -490.0, -490.0, -490.0, -490.0, -487.0, -468.0, -451.0, -435.0, -422.0, -413.0, -405.0, -402.0, -388.0, -366.0, -316.0, -240.0, -97.0, -7.0, 85.0, 161.0, 227.0, 294.0, 338.0, 372.0, 383.0, 401.0, 422.0, 444.0, 446.0, 452.0, 462.0, 469.0, 477.0, 485.0, 490.0, 496.0, 497.0, 503.0, 505.0, 507.0, 507.0, 507.0]	[0.00812430662335828, 0.013317347562406212, 0.022253446571994573, 0.03944058925844729, 0.05557540216250345, 0.07251780899241567, 0.08947625855216756, 0.1056315514142625, 0.12270161684136838, 0.13897432829253376, 0.15615225496003404, 0.17227375588845462, 0.18939331459114328, 0.20581587124615908, 0.22282449674094096, 0.23911973618669435, 0.2560887670260854, 0.2722389399423264, 0.2893499653437175, 0.30580460728378966, 0.3227364328340627, 0.3389828616636805, 0.35596793511649594, 0.37220787862315774, 0.3895202905405313, 0.40589540189830586, 0.4228497553849593, 0.4390944775659591, 0.456429417419713, 0.4724092651158571, 0.48969812504947186, 0.5056769486982375, 0.5229115366819315, 0.5390808242373168, 0.5561543029616587, 0.5723925398197025, 0.589529165183194, 0.6058380579343066, 0.622982875269372, 0.6392456881003454, 0.6591184391290881, 0.6722058306331746, 0.6921349015901797, 0.7057609166367911, 0.7254742651712149, 0.7391624028095976, 0.7589016926358454, 0.7723512384691276]
39	inanimate/n69.jpg	inanimate	animate	left	1.363	[0.0, 0.0, 0.0, 0.0, 0.0, 0.0, 0.0, 0.0, 0.0, 0.0, 0.0, 0.0, 0.0, 0.0, 0.0, 0.0, 0.0, -1.0, -3.0, -13.0, -22.0, -31.0, -37.0, -46.0, -59.0, -89.0, -140.0, -258.0, -302.0, -445.0, -487.0, -581.0, -629.0, -654.0, -672.0, -682.0, -684.0, -686.0, -687.0, -689.0, -699.0, -723.0, -752.0, -793.0, -812.0, -830.0, -843.0, -847.0, -849.0, -850.0, -850.0, -850.0, -850.0, -850.0, -850.0, -850.0, -850.0, -850.0, -850.0, -850.0, -850.0, -850.0, -850.0, -850.0, -850.0, -850.0, -850.0, -850.0, -850.0, -850.0, -850.0, -850.0, -850.0, -850.0, -850.0, -850.0, -850.0, -850.0, -850.0, -850.0, -850.0, -850.0]	[-490.0, -490.0, -490.0, -490.0, -490.0, -490.0, -490.0, -490.0, -490.0, -490.0, -490.0, -490.0, -490.0, -490.0, -490.0, -490.0, -490.0, -485.0, -479.0, -454.0, -436.0, -414.0, -385.0, -346.0, -293.0, -222.0, -137.0, -13.0, 28.0, 164.0, 202.0, 286.0, 326.0, 348.0, 364.0, 372.0, 374.0, 375.0, 375.0, 377.0, 387.0, 409.0, 431.0, 454.0, 463.0, 471.0, 476.0, 477.0, 479.0, 479.0, 479.0, 479.0, 479.0, 479.0, 479.0, 479.0, 479.0, 479.0, 479.0, 479.0, 479.0, 479.0, 479.0, 479.0, 479.0, 479.0, 479.0, 479.0, 479.0, 479.0, 479.0, 479.0, 479.0, 479.0, 479.0, 479.0, 479.0, 479.0, 479.0, 479.0, 479.0, 479.0]	[0.0022452205303125083, 0.006903392553795129, 0.022055848909076303, 0.03595083439722657, 0.052931129233911633, 0.06925504066748545, 0.08658417785773054, 0.10261181218083948, 0.1199802026967518, 0.13594264240236953, 0.15623762243194506, 0.16920896066585556, 0.1894469381077215, 0.2028452840168029, 0.2223459820379503, 0.2360965835978277, 0.2559778679860756, 0.2694226352032274, 0.2890666931052692, 0.3027930600219406, 0.32140492682810873, 0.33593581576133147, 0.35410326690180227, 0.3691970140207559, 0.3893827674910426, 0.4026206868584268, 0.42260607780190185, 0.4359532237285748, 0.45554027904290706, 0.4693106779595837, 0.48857824550941586, 0.5026189801865257, 0.5205683195381425, 0.5361092129605822, 0.5532847502618097, 0.5692779099917971, 0.5864889459335245, 0.6025486655998975, 0.619741952221375, 0.6360894156387076, 0.6529959825566038, 0.6693939631804824, 0.6863909833482467, 0.702723428083118, 0.7197692588670179, 0.7359265997656621, 0.7531352463993244, 0.7692536753020249, 0.7863042847602628, 0.8027220627409406, 0.8197607255424373, 0.8361071649123915, 0.8529451239155605, 0.8692106673843227, 0.886343538062647, 0.9028722493094392, 0.9199232000974007, 0.9360761036514305, 0.9529765265178867, 0.9693704112432897, 0.9863210101029836, 1.0026203455054201, 1.0196893869433552, 1.0361440288834274, 1.0530884838080965, 1.0693253552890383, 1.086349682067521, 1.1025865535484627, 1.119816021528095, 1.1359317197347991, 1.1530523024848662, 1.1692290993523784, 1.1863947380334139, 1.202518286940176, 1.2198593707871623, 1.2358494584914297, 1.2530069052008912, 1.2692420699750073, 1.286090268928092, 1.3030565691296943, 1.319427243201062, 1.3364594206213951]
40	animate/a61.jpg	inanimate	animate	right	0.748	[0.0, 0.0, 0.0, 0.0, 0.0, 0.0, 0.0, 0.0, 0.0, 0.0, 0.0, 0.0, 0.0, 0.0, 0.0, -3.0, -4.0, -4.0, -6.0, -7.0, -7.0, -10.0, -15.0, -21.0, -23.0, -23.0, 10.0, 64.0, 140.0, 248.0, 359.0, 467.0, 575.0, 662.0, 735.0, 812.0, 839.0, 852.0, 858.0, 859.0, 859.0, 860.0, 860.0, 860.0, 860.0]	[-490.0, -490.0, -490.0, -490.0, -490.0, -490.0, -490.0, -490.0, -490.0, -490.0, -490.0, -490.0, -490.0, -490.0, -490.0, -483.0, -476.0, -470.0, -457.0, -450.0, -441.0, -419.0, -383.0, -345.0, -313.0, -278.0, -197.0, -104.0, 15.0, 136.0, 245.0, 340.0, 431.0, 498.0, 540.0, 540.0, 540.0, 540.0, 540.0, 540.0, 540.0, 540.0, 540.0, 540.0, 540.0]	[0.00541480490937829, 0.011023589468095452, 0.026946775906253606, 0.04075915878638625, 0.058729319425765425, 0.07411900232546031, 0.09158399008447304, 0.10741433390649036, 0.12468954047653824, 0.14073628943879157, 0.15811457863310352, 0.17426372750196606, 0.19209121097810566, 0.2076553149963729, 0.22459942853311077, 0.24092436395585537, 0.2578763281344436, 0.2740582450060174, 0.29111704643582925, 0.30744027520995587, 0.32457007392076775, 0.3410134518635459, 0.3577623229357414, 0.3740104584139772, 0.3911450357409194, 0.40745495253941044, 0.4244192047044635, 0.44068713748129085, 0.4577940668677911, 0.47429717815248296, 0.4911262624664232, 0.5073941952432506, 0.5245407192851417, 0.5407444814336486, 0.5578507281607017, 0.5741862449212931, 0.5911962357349694, 0.6074972777860239, 0.6244915673159994, 0.6406618788605556, 0.6578708668239415, 0.674024794367142, 0.69123514770763, 0.7073300246265717, 0.7247233324451372]
