trialIndex	stimulus	isAnimate	left_option	right_option	response	response_time	xTrajectory	yTrajectory	tTrajectory
0	枕头	False	animate	inanimate	right	1.464	[0.0, 0.0, 0.0, 0.0, 0.0, 0.0, 0.0, 0.0, 0.0, 0.0, 0.0, 0.0, 0.0, 0.0, 0.0, 0.0, 0.0, 0.0, 0.0, 0.0, 0.0, 0.0, 0.0, 0.0, 0.0, 0.0, 0.0, 0.0, 0.0, 0.0, 0.0, 0.0, 0.0, 0.0, 0.0, 0.0, 0.0, 0.0, 0.0, 0.0, 0.0, 0.0, 0.0, 0.0, 0.0, 0.0, 0.0, 0.0, 0.0, 0.0, 0.0, 0.0, 0.0, 50.0, 214.0, 337.0, 472.0, 622.0, 840.0, 893.0, 959.0, 959.0, 959.0, 959.0, 959.0, 959.0, 959.0, 959.0, 959.0, 958.0, 955.0, 953.0, 951.0, 946.0, 932.0, 925.0, 901.0, 882.0, 864.0, 849.0, 834.0, 818.0, 802.0, 792.0, 789.0, 789.0, 789.0, 789.0]	[-490.0, -490.0, -490.0, -490.0, -490.0, -490.0, -490.0, -490.0, -490.0, -490.0, -490.0, -490.0, -490.0, -490.0, -490.0, -490.0, -490.0, -490.0, -490.0, -490.0, -490.0, -490.0, -490.0, -490.0, -490.0, -490.0, -490.0, -490.0, -490.0, -490.0, -490.0, -490.0, -490.0, -490.0, -490.0, -490.0, -490.0, -490.0, -490.0, -490.0, -490.0, -490.0, -490.0, -490.0, -490.0, -490.0, -490.0, -490.0, -490.0, -490.0, -490.0, -490.0, -490.0, -479.0, -417.0, -345.0, -256.0, -123.0, 110.0, 181.0, 298.0, 396.0, 509.0, 530.0, 540.0, 540.0, 540.0, 540.0, 540.0, 540.0, 537.0, 534.0, 532.0, 527.0, 517.0, 512.0, 501.0, 497.0, 492.0, 486.0, 480.0, 470.0, 458.0, 452.0, 451.0, 451.0, 451.0, 451.0]	[0.006132730766694294, 0.01057961763945059, 0.01620546883714269, 0.029247463044157485, 0.045746819629130187, 0.06118155845979345, 0.07891517532698344, 0.09596134744788287, 0.11072604951550602, 0.1290583645386505, 0.14559321976048523, 0.1616116380901076, 0.1790643378662935, 0.19594428079290083, 0.21088784137464245, 0.22925258303803275, 0.24574067563662538, 0.2610658465564484, 0.2791209991519281, 0.29588352351493086, 0.3109247053434956, 0.3291983110830188, 0.3455546491277346, 0.3610965665320691, 0.379167761777353, 0.39597841409704415, 0.4109653239756881, 0.4292628230286937, 0.4456191610734095, 0.4611225078442658, 0.4790947165056423, 0.49591219548892695, 0.5106052176161029, 0.5290276445630298, 0.5457000570022501, 0.5618556912158965, 0.5791261191443482, 0.5959214114809583, 0.6108550734024902, 0.6292088924092241, 0.6457806116013671, 0.6611115851846989, 0.6790435165494273, 0.6959200461496948, 0.7107680334775068, 0.7292443910446309, 0.7457062009962101, 0.7611068065234576, 0.7791083698284638, 0.7959511074550392, 0.810906614693522, 0.8291839750963845, 0.8457809529354563, 0.8610938358688145, 0.8790616072001285, 0.8959644194437715, 0.9108461987452756, 0.9292368817186798, 0.9454464465525234, 0.9617420273134485, 0.9790974471688969, 0.9958705528588325, 1.0108427854138426, 1.0292041137472552, 1.0456980090057186, 1.0611054411892837, 1.0790305458940566, 1.0959173154842574, 1.1108731640561018, 1.1292867163429037, 1.1455153958268056, 1.1609996279476036, 1.1791169031530444, 1.195914243486186, 1.2108444920813781, 1.2292843270115554, 1.245665923699562, 1.2610262519265234, 1.278957159291167, 1.2959152674848156, 1.31086940939349, 1.3293686362740118, 1.3453925159337814, 1.3617778672851273, 1.3790155272399716, 1.395964760777133, 1.4106007802874956, 1.4290709938613873]
1	松鼠	True	inanimate	animate	right	1.067	[0.0, 0.0, 0.0, 0.0, 0.0, 0.0, 0.0, 0.0, 0.0, 0.0, 0.0, 0.0, 0.0, -1.0, -1.0, -1.0, -1.0, -1.0, -1.0, -1.0, -1.0, -1.0, -1.0, -1.0, -1.0, -4.0, -4.0, -4.0, -4.0, -4.0, -4.0, -4.0, -4.0, -4.0, -4.0, -4.0, -4.0, -4.0, -4.0, -4.0, -4.0, 119.0, 330.0, 433.0, 482.0, 514.0, 550.0, 585.0, 622.0, 673.0, 722.0, 767.0, 791.0, 795.0, 799.0, 799.0, 802.0, 803.0, 805.0, 806.0, 806.0, 806.0, 806.0, 806.0]	[-490.0, -490.0, -490.0, -490.0, -490.0, -490.0, -490.0, -490.0, -490.0, -490.0, -490.0, -490.0, -490.0, -491.0, -491.0, -491.0, -491.0, -491.0, -491.0, -491.0, -491.0, -491.0, -491.0, -491.0, -491.0, -488.0, -488.0, -488.0, -488.0, -488.0, -488.0, -488.0, -488.0, -488.0, -488.0, -488.0, -488.0, -488.0, -488.0, -488.0, -488.0, -470.0, -439.0, -423.0, -392.0, -337.0, -245.0, -132.0, -12.0, 99.0, 186.0, 261.0, 341.0, 381.0, 405.0, 424.0, 433.0, 437.0, 445.0, 445.0, 446.0, 446.0, 446.0, 446.0]	[0.0001570132044435013, 0.004954107778758043, 0.015289672290236922, 0.03386057911120588, 0.050141823885496706, 0.065594312032772, 0.08355116070742952, 0.10034372237714706, 0.11509579512494383, 0.13349808342172764, 0.1501257812305994, 0.16549805611430202, 0.1834600247857452, 0.20035293836917845, 0.21530230161442887, 0.23372472856135573, 0.2500134826586873, 0.2655676880531246, 0.2836146486552025, 0.30035566903461586, 0.3151162751055381, 0.3335124194090895, 0.35005410129087977, 0.36551375743511016, 0.38350371541673667, 0.40037034635679447, 0.4152838696281833, 0.4335503073743894, 0.4502094078270602, 0.46551580543018645, 0.483459683451656, 0.5003150504016958, 0.5152773843001341, 0.5336172086535953, 0.5501844905156759, 0.565612061349384, 0.5835730060243804, 0.6003563517006114, 0.6152831869621878, 0.633660899282404, 0.6502261331443151, 0.6655584720610932, 0.6835873420095595, 0.7003280210592493, 0.7150872617967252, 0.7336919605877483, 0.7499114240818017, 0.7654878161229135, 0.7833941475073516, 0.8002341544706724, 0.8153043496131431, 0.8335445047123358, 0.8499168854104937, 0.8655140987648338, 0.8834118968261464, 0.900335189053294, 0.9153183442685986, 0.9337100512384495, 0.9499636480359186, 0.9655649573905976, 0.9832337209772959, 1.0002918397549365, 1.015387293540698, 1.0336342753034842]
2	核桃	False	inanimate	animate	left	1.166	[0.0, 0.0, 0.0, 0.0, 0.0, 0.0, 0.0, 1.0, 1.0, 1.0, 1.0, 1.0, 1.0, 1.0, 1.0, 1.0, 1.0, 1.0, 1.0, 1.0, 1.0, 1.0, 1.0, 1.0, 1.0, 6.0, 13.0, 32.0, 66.0, 105.0, 148.0, 182.0, 202.0, 210.0, 207.0, 198.0, 177.0, 105.0, 42.0, 20.0, 20.0, 59.0, 138.0, 229.0, 318.0, 354.0, 363.0, 363.0, 344.0, 214.0, 68.0, -102.0, -309.0, -500.0, -652.0, -753.0, -805.0, -828.0, -833.0, -833.0, -833.0, -832.0, -831.0, -831.0, -831.0, -831.0, -831.0, -830.0, -823.0, -815.0, -811.0]	[-490.0, -490.0, -490.0, -490.0, -488.0, -488.0, -486.0, -484.0, -484.0, -484.0, -484.0, -484.0, -484.0, -484.0, -484.0, -484.0, -484.0, -484.0, -484.0, -484.0, -484.0, -484.0, -484.0, -484.0, -476.0, -449.0, -420.0, -370.0, -289.0, -195.0, -100.0, -20.0, 26.0, 71.0, 126.0, 139.0, 159.0, 189.0, 219.0, 234.0, 240.0, 272.0, 315.0, 350.0, 389.0, 413.0, 424.0, 426.0, 426.0, 417.0, 396.0, 372.0, 347.0, 330.0, 319.0, 317.0, 317.0, 322.0, 325.0, 326.0, 330.0, 335.0, 337.0, 343.0, 348.0, 355.0, 362.0, 370.0, 382.0, 391.0, 392.0]	[0.013747870936640538, 0.019658052558952477, 0.025728660712047713, 0.04442210609340691, 0.060632353593973676, 0.07626506558881374, 0.09413146100996528, 0.1109257293464907, 0.1259925111553457, 0.14438353546211147, 0.16083408142367261, 0.17623298028411227, 0.19408265038509853, 0.2110247159289429, 0.22573378070956096, 0.24415586632312625, 0.26082145210239105, 0.27623059095276403, 0.2941434076674341, 0.31107932921440806, 0.32605463376967236, 0.3443681754724821, 0.36071495619034977, 0.37615276701762923, 0.3941952902896446, 0.4109765879693441, 0.4259911458211718, 0.4442261809272168, 0.4608944973733742, 0.4762490229368268, 0.49389321054695756, 0.5109557666510227, 0.5260109431401361, 0.5442927408730611, 0.5606658042343042, 0.576151060351549, 0.5940290610960801, 0.6109185613495356, 0.6259747618350957, 0.6443299461716379, 0.660855585403624, 0.6762479989374697, 0.6938918452142389, 0.7109625933117059, 0.7260051404773549, 0.7442439302467392, 0.7604947963809536, 0.7762292256193177, 0.7941300956772466, 0.8109438199971919, 0.8259812471660553, 0.8442053596118058, 0.860696182873653, 0.8762486816012824, 0.8938440585880016, 0.9109107106924057, 0.9260167458014621, 0.9441964849538635, 0.9606845775524562, 0.9762258122900676, 0.9940662663975672, 1.0109079800276959, 1.0260443937768287, 1.0442712368894718, 1.0606678522308357, 1.0762609695921128, 1.0938075359517825, 1.1109148066861962, 1.125989780492091, 1.1443715888053703, 1.1607016442030726]
3	厨师	True	animate	inanimate	left	1.078	[0.0, 0.0, 0.0, 0.0, 0.0, 0.0, 0.0, 0.0, 0.0, 0.0, 0.0, 0.0, 0.0, 0.0, 0.0, 0.0, 0.0, 0.0, 0.0, 0.0, 0.0, 0.0, 0.0, 0.0, 0.0, 0.0, 0.0, 0.0, 0.0, 4.0, 29.0, 79.0, 113.0, 132.0, 227.0, 290.0, 346.0, 400.0, 443.0, 479.0, 516.0, 528.0, 532.0, 531.0, 513.0, 501.0, 409.0, 306.0, 171.0, 9.0, -161.0, -320.0, -455.0, -567.0, -661.0, -769.0, -814.0, -832.0, -859.0, -865.0, -868.0, -869.0, -869.0, -869.0, -869.0]	[-490.0, -490.0, -490.0, -490.0, -490.0, -490.0, -490.0, -490.0, -490.0, -490.0, -490.0, -490.0, -490.0, -490.0, -490.0, -490.0, -490.0, -490.0, -490.0, -490.0, -490.0, -490.0, -490.0, -490.0, -490.0, -490.0, -490.0, -490.0, -490.0, -488.0, -475.0, -449.0, -414.0, -385.0, -236.0, -122.0, -23.0, 70.0, 145.0, 204.0, 270.0, 289.0, 309.0, 323.0, 342.0, 347.0, 358.0, 358.0, 358.0, 358.0, 358.0, 358.0, 375.0, 395.0, 420.0, 448.0, 457.0, 459.0, 462.0, 464.0, 465.0, 465.0, 465.0, 465.0, 465.0]	[0.0014745587432116736, 0.006632783675740939, 0.01787288075138349, 0.036399414275365416, 0.05277247763660853, 0.06812700320006115, 0.0861162785149645, 0.10295935747490148, 0.11790018739338848, 0.13625093439986813, 0.15270864835838438, 0.168222235119174, 0.18592171868294827, 0.20299417344722315, 0.21787219808538794, 0.23627789971214952, 0.25274517099387594, 0.2681850298176869, 0.28611730251577683, 0.30295082414886565, 0.31788721673729015, 0.33630452368743136, 0.3527223016790231, 0.3681744484929368, 0.3860927265341161, 0.40295218948085676, 0.41789779806276783, 0.4362632223892433, 0.4526816830475582, 0.4681280271979631, 0.48611525451633497, 0.503055954726733, 0.5179025767247367, 0.5362205557612469, 0.5528219709267432, 0.5681826404870662, 0.5859968119511905, 0.6030050961053348, 0.6176510142722691, 0.6361103051858663, 0.6527246910081885, 0.6681686458323384, 0.6860189986000478, 0.7028962108634005, 0.7177913021514541, 0.7361836917916662, 0.7527393683303671, 0.7681570405075036, 0.7859875959584315, 0.8029378534956777, 0.8176858302431356, 0.8362454730704485, 0.8526762217188661, 0.8680891152325785, 0.8859336653367791, 0.9028443282404623, 0.9177633128419984, 0.9361662838055054, 0.9526028351137938, 0.9681198352045612, 0.9860370892492938, 1.0030443494033534, 1.0179373926948756, 1.0362062197709747, 1.0524772245553322]
4	葡萄	False	animate	inanimate	right	1.078	[0.0, 0.0, 0.0, 0.0, 0.0, 0.0, 0.0, 0.0, 0.0, 0.0, 0.0, 0.0, 0.0, 0.0, 0.0, 0.0, 0.0, 0.0, 0.0, 0.0, 0.0, 0.0, 0.0, 0.0, 0.0, 0.0, 0.0, 0.0, 0.0, 36.0, 82.0, 184.0, 194.0, 199.0, 204.0, 209.0, 217.0, 246.0, 258.0, 275.0, 284.0, 268.0, 247.0, 121.0, 48.0, 20.0, 20.0, 30.0, 60.0, 158.0, 207.0, 323.0, 461.0, 633.0, 672.0, 717.0, 722.0, 722.0, 722.0, 722.0, 722.0, 722.0, 722.0, 722.0, 722.0]	[-490.0, -490.0, -490.0, -490.0, -490.0, -490.0, -490.0, -490.0, -490.0, -490.0, -490.0, -490.0, -490.0, -490.0, -490.0, -490.0, -490.0, -490.0, -490.0, -490.0, -490.0, -490.0, -490.0, -490.0, -490.0, -490.0, -490.0, -490.0, -490.0, -484.0, -471.0, -434.0, -426.0, -417.0, -395.0, -355.0, -295.0, -188.0, -152.0, -95.0, -23.0, 31.0, 61.0, 155.0, 189.0, 200.0, 202.0, 214.0, 243.0, 306.0, 328.0, 377.0, 422.0, 463.0, 468.0, 478.0, 481.0, 481.0, 481.0, 481.0, 481.0, 481.0, 481.0, 481.0, 481.0]	[0.013395615234912839, 0.018226501779281534, 0.02485792012157617, 0.043354416338843293, 0.06014595400847611, 0.07494922670957749, 0.09343070427348721, 0.10995907416872797, 0.12533476238240837, 0.14312299253651872, 0.1600995327135024, 0.17495434670490795, 0.1933409336816112, 0.2097638316663506, 0.22527878376058652, 0.2433557816693792, 0.2602449405894731, 0.27505777061742265, 0.29347541890092543, 0.30999047680961667, 0.32535012236621697, 0.34329195239115506, 0.36012718069105176, 0.37513081588986097, 0.3933559523356962, 0.41003860476848786, 0.4253647996883956, 0.4432827363998513, 0.460151074003079, 0.47507381327159237, 0.49338394164442434, 0.5099392768534017, 0.52532793572027, 0.5432953657218604, 0.5602343592654506, 0.5748502401293081, 0.593325915029709, 0.6099652181619604, 0.6253931303326681, 0.643185797813203, 0.6600592554168543, 0.6750936105854635, 0.6933211363648297, 0.709772364993114, 0.7253030184074305, 0.7430175206245622, 0.7602254846060532, 0.7748618454497773, 0.7932808590667264, 0.8099399595193972, 0.8253333970496897, 0.8428990780594177, 0.86003331410393, 0.874857066788536, 0.8932637924153823, 0.9098860288977448, 0.9253521703649312, 0.9431700964960328, 0.9601592659964808, 0.9751413972117007, 0.9933409336808836, 1.0099327915231697, 1.0253630930237705, 1.0432103737948637, 1.060052428754716]
5	电视	False	inanimate	animate	left	1.039	[0.0, 0.0, 0.0, 0.0, 0.0, 0.0, 0.0, 0.0, 0.0, 0.0, 0.0, 0.0, 0.0, 0.0, 0.0, 0.0, 0.0, 0.0, 0.0, 0.0, 0.0, 0.0, 0.0, 0.0, 0.0, 0.0, 0.0, 0.0, 0.0, 0.0, 0.0, 2.0, 13.0, 26.0, 59.0, 94.0, 143.0, 205.0, 259.0, 281.0, 272.0, 225.0, 161.0, 74.0, -47.0, -190.0, -421.0, -553.0, -606.0, -732.0, -760.0, -775.0, -782.0, -785.0, -790.0, -791.0, -793.0, -793.0, -793.0, -793.0, -793.0, -793.0]	[-490.0, -490.0, -490.0, -490.0, -490.0, -490.0, -490.0, -490.0, -490.0, -490.0, -490.0, -490.0, -490.0, -490.0, -490.0, -490.0, -490.0, -490.0, -490.0, -490.0, -490.0, -490.0, -490.0, -490.0, -490.0, -490.0, -490.0, -490.0, -490.0, -490.0, -489.0, -473.0, -460.0, -444.0, -405.0, -366.0, -303.0, -211.0, -92.0, 12.0, 101.0, 181.0, 242.0, 285.0, 320.0, 336.0, 366.0, 385.0, 395.0, 420.0, 430.0, 443.0, 454.0, 467.0, 476.0, 478.0, 481.0, 481.0, 481.0, 481.0, 481.0, 481.0]	[0.00098201516084373, 0.006007461539411452, 0.016657735115586547, 0.0355662203146494, 0.05158566264435649, 0.06716854001570027, 0.08516907932062168, 0.10204048892410356, 0.11689530291550909, 0.13520577262170264, 0.15175667050061747, 0.16715420402761083, 0.18517692997920676, 0.20195925165899098, 0.21703422546124784, 0.23533616184431594, 0.2517832944758993, 0.2672142786432232, 0.2851427966779738, 0.3020200089413265, 0.3169222682226973, 0.3352361512625066, 0.3515825906470127, 0.36712109472136945, 0.3851127593698038, 0.4020322969299741, 0.4169038362415449, 0.4352480979214306, 0.4517518918364658, 0.46714020937361056, 0.48492980485752923, 0.5019514009982231, 0.5169703961837513, 0.5351788073130592, 0.5515662066609366, 0.5671535213587049, 0.5851192446971254, 0.6020763288943272, 0.6170328601292567, 0.635242636592011, 0.6514617587490648, 0.6671118787307933, 0.6848533462580235, 0.7018670917386771, 0.7167553563667752, 0.7351276073568442, 0.7514641480811406, 0.7671477186995617, 0.7850079701238428, 0.8018971290475747, 0.816671388438408, 0.8353344551796908, 0.85141840945289, 0.8671685400149727, 0.8849956821359228, 0.9019636889897811, 0.9166792390969931, 0.935008823456883, 0.9516559772528126, 0.9671405507033342, 0.9847355863566918, 1.0036232502388884]
6	楼梯	False	animate	inanimate	right	1.264	[0.0, 0.0, 0.0, 0.0, 0.0, 0.0, 1.0, 1.0, 1.0, 1.0, 1.0, 1.0, 1.0, 1.0, 1.0, 1.0, 1.0, 1.0, 1.0, 1.0, 1.0, 1.0, 1.0, 1.0, 1.0, 1.0, 1.0, 1.0, 1.0, 1.0, 1.0, 1.0, 1.0, 1.0, 1.0, 1.0, 1.0, -1.0, -3.0, -3.0, -6.0, -32.0, -79.0, -127.0, -155.0, -161.0, -145.0, -89.0, 13.0, 129.0, 342.0, 415.0, 585.0, 630.0, 642.0, 647.0, 648.0, 650.0, 654.0, 656.0, 658.0, 660.0, 663.0, 663.0, 670.0, 673.0, 675.0, 680.0, 685.0, 691.0, 700.0, 711.0, 718.0, 719.0, 719.0, 719.0]	[-490.0, -490.0, -490.0, -490.0, -490.0, -490.0, -491.0, -491.0, -491.0, -491.0, -491.0, -491.0, -491.0, -491.0, -491.0, -491.0, -491.0, -491.0, -491.0, -491.0, -491.0, -491.0, -491.0, -491.0, -491.0, -491.0, -491.0, -491.0, -491.0, -491.0, -491.0, -491.0, -491.0, -490.0, -480.0, -473.0, -464.0, -449.0, -427.0, -399.0, -310.0, -231.0, -160.0, -99.0, -56.0, -20.0, 12.0, 55.0, 100.0, 149.0, 211.0, 233.0, 281.0, 304.0, 314.0, 321.0, 327.0, 330.0, 338.0, 342.0, 346.0, 350.0, 355.0, 357.0, 365.0, 369.0, 372.0, 378.0, 382.0, 386.0, 390.0, 396.0, 402.0, 403.0, 403.0, 403.0]	[0.0060177015329827555, 0.010728780180215836, 0.015872327789111296, 0.029031057896645507, 0.04535633463092381, 0.060727585514541715, 0.07870627950615017, 0.09564834504635655, 0.110615457608219, 0.128978833938163, 0.14554065447373432, 0.16082896142688696, 0.17884008205874125, 0.19563776372524444, 0.21053763367672218, 0.22896961794685922, 0.24550856916903285, 0.2609706146395183, 0.2788332553973305, 0.29566472903388785, 0.31062501493579475, 0.3289703006121272, 0.3455406544744619, 0.3608658253942849, 0.37871686082871747, 0.3956732623591961, 0.41062330827116966, 0.429032423227909, 0.44552051582286367, 0.4609289720101515, 0.4786789728605072, 0.495665070367977, 0.5106253562662459, 0.5289723486130242, 0.5454331345645187, 0.560808140111476, 0.578780690109852, 0.5955855397696723, 0.6106966948718764, 0.6289231966547959, 0.6454102652496658, 0.660791756126855, 0.6786199222442519, 0.6955882704314718, 0.7107246841842425, 0.728981905936962, 0.7453314173180843, 0.7608245240990072, 0.7787414368103782, 0.7955961210936948, 0.8106021456223971, 0.8288696073650499, 0.8453778386137856, 0.8608088227774715, 0.8786759008653462, 0.8955824677723285, 0.9104168017802294, 0.9288972553440544, 0.945197273431404, 0.9608504654097487, 0.9786810208606767, 0.9956309370645613, 1.0106151162763126, 1.0289081779992557, 1.0453495079709683, 1.0608955213720037, 1.078736316812865, 1.095672921026562, 1.1103512658337422, 1.1298854144988582, 1.1451054548451793, 1.160793462790025, 1.1787154954981816, 1.1955971450915968, 1.2106195536071027, 1.2288832606864162]
7	兔子	True	animate	inanimate	left	1.047	[0.0, 0.0, 0.0, 0.0, 0.0, 0.0, 0.0, 0.0, 0.0, 0.0, 0.0, 0.0, 0.0, 0.0, 0.0, 0.0, 0.0, 0.0, 0.0, 0.0, 0.0, 0.0, 0.0, 0.0, 0.0, 0.0, 0.0, 0.0, 0.0, 0.0, 0.0, 0.0, 0.0, 0.0, 0.0, 0.0, 0.0, 5.0, 12.0, 13.0, -11.0, -29.0, -54.0, -104.0, -191.0, -304.0, -414.0, -528.0, -622.0, -694.0, -771.0, -791.0, -836.0, -848.0, -853.0, -855.0, -856.0, -857.0, -857.0, -857.0, -857.0, -856.0, -856.0, -856.0]	[-490.0, -490.0, -490.0, -490.0, -490.0, -490.0, -489.0, -489.0, -489.0, -489.0, -489.0, -489.0, -489.0, -489.0, -489.0, -489.0, -489.0, -489.0, -489.0, -489.0, -489.0, -489.0, -489.0, -489.0, -489.0, -489.0, -489.0, -489.0, -489.0, -489.0, -489.0, -489.0, -489.0, -489.0, -489.0, -489.0, -489.0, -460.0, -393.0, -344.0, -246.0, -216.0, -180.0, -130.0, -69.0, 2.0, 64.0, 120.0, 166.0, 204.0, 257.0, 274.0, 326.0, 347.0, 359.0, 369.0, 376.0, 382.0, 389.0, 390.0, 392.0, 395.0, 396.0, 396.0]	[0.013514057809516089, 0.019322522184666013, 0.02546276227803901, 0.04419614362632274, 0.06049650305067189, 0.07600496981467586, 0.09379729596548714, 0.11084619874964119, 0.12556584485719213, 0.14404902908427175, 0.16052722302265465, 0.17596605785001884, 0.1939584051615384, 0.21085575607503415, 0.2256982820763369, 0.24409681570978137, 0.26041628978418885, 0.27600974847882753, 0.2938338186031615, 0.31085575607721694, 0.3257467513685697, 0.3440817970549688, 0.36066648690393777, 0.376008383147564, 0.39381197328839335, 0.4108410787557659, 0.42582184463753947, 0.4440585864103923, 0.4606528335825715, 0.47599609515600605, 0.493895258550765, 0.5108318627644621, 0.525780884672713, 0.5441248050192371, 0.560590028304432, 0.5759541111910949, 0.5939386078462121, 0.6107782734761713, 0.6256713167676935, 0.6440910130477278, 0.6605715963196417, 0.6759356792063045, 0.6938822878946667, 0.7109131000288471, 0.7255644795259286, 0.7440258184360573, 0.7605572603315522, 0.7759592311886081, 0.7938310879362689, 0.810705569536367, 0.8256911140852026, 0.8440203571080929, 0.8604657830765063, 0.8759605965205992, 0.8937706719880225, 0.9108130894455826, 0.9255402448798122, 0.9439718878165877, 0.96045383641831, 0.9759565005224431, 0.9937833013100317, 1.0108301560976543, 1.0257730340126727, 1.0440196744420973]
8	白菜	False	animate	inanimate	right	0.884	[0.0, 0.0, 0.0, 0.0, 0.0, 0.0, 0.0, 0.0, 0.0, 0.0, 0.0, 0.0, 0.0, 0.0, 0.0, 0.0, 0.0, 0.0, 0.0, 0.0, 0.0, 0.0, 0.0, 0.0, 0.0, 0.0, 0.0, 0.0, 0.0, 0.0, 2.0, 31.0, 57.0, 80.0, 103.0, 129.0, 157.0, 232.0, 313.0, 415.0, 513.0, 608.0, 685.0, 735.0, 753.0, 762.0, 764.0, 766.0, 766.0, 766.0, 768.0, 768.0, 770.0, 770.0]	[-490.0, -490.0, -490.0, -490.0, -490.0, -490.0, -490.0, -490.0, -490.0, -490.0, -490.0, -490.0, -490.0, -490.0, -490.0, -490.0, -490.0, -490.0, -490.0, -490.0, -490.0, -490.0, -490.0, -490.0, -490.0, -490.0, -490.0, -490.0, -490.0, -490.0, -483.0, -436.0, -359.0, -270.0, -191.0, -130.0, -77.0, 6.0, 75.0, 145.0, 212.0, 276.0, 334.0, 374.0, 392.0, 405.0, 411.0, 414.0, 414.0, 415.0, 419.0, 420.0, 422.0, 422.0]	[0.014898504621669417, 0.019484314041619655, 0.028010130765323993, 0.04626803518840461, 0.06326573801561608, 0.0781540026437142, 0.09657472292383318, 0.11305667152555543, 0.12846990637262934, 0.1463625844407943, 0.16329918865449145, 0.1782396772359789, 0.19658735224584234, 0.21304404220427386, 0.2284357730713964, 0.24644006703965715, 0.2632025914026599, 0.2781557093076117, 0.29651498964085476, 0.3130450662029034, 0.3284716130401648, 0.34653154429543065, 0.3632343353747274, 0.37814239731960697, 0.3965276189665019, 0.41308943949843524, 0.42844737839186564, 0.44637248309663846, 0.4632415033702273, 0.4781751652917592, 0.4965334216285555, 0.5129515409498708, 0.5284125624239095, 0.5463803337588615, 0.5631268154684221, 0.5781652666337322, 0.5963927924130985, 0.6129443729550985, 0.6283712611257215, 0.6462844191737531, 0.6631790394239943, 0.6780816400387266, 0.6965641415990831, 0.7127757544330962, 0.7284156344212533, 0.7460895180047373, 0.7631472954490164, 0.7779399868268229, 0.796199939246435, 0.8126716478545859, 0.8284009570998023, 0.8462731551808247, 0.8631650447678112, 0.8779860667855246]
9	记者	True	animate	inanimate	left	1.08	[0.0, 0.0, 0.0, 0.0, 0.0, 0.0, 0.0, 0.0, 0.0, 0.0, 0.0, 0.0, 0.0, 0.0, 0.0, 0.0, 0.0, 0.0, 0.0, 0.0, 0.0, 0.0, 0.0, 0.0, 0.0, 0.0, 0.0, 0.0, 0.0, 0.0, 0.0, 0.0, 5.0, 13.0, 20.0, 27.0, 33.0, 43.0, 57.0, 85.0, 122.0, 174.0, 184.0, 193.0, 193.0, 181.0, 168.0, 147.0, 85.0, -18.0, -154.0, -294.0, -434.0, -559.0, -657.0, -749.0, -774.0, -780.0, -780.0, -780.0, -780.0, -780.0, -780.0, -781.0, -781.0, -781.0]	[-490.0, -490.0, -490.0, -490.0, -490.0, -490.0, -490.0, -490.0, -490.0, -490.0, -490.0, -490.0, -490.0, -490.0, -490.0, -490.0, -490.0, -490.0, -490.0, -490.0, -490.0, -490.0, -490.0, -490.0, -490.0, -490.0, -490.0, -490.0, -490.0, -490.0, -490.0, -487.0, -472.0, -460.0, -449.0, -435.0, -421.0, -399.0, -368.0, -300.0, -217.0, -109.0, -86.0, -37.0, -9.0, 17.0, 43.0, 69.0, 112.0, 156.0, 203.0, 241.0, 282.0, 319.0, 354.0, 401.0, 416.0, 421.0, 421.0, 421.0, 421.0, 421.0, 422.0, 425.0, 425.0, 425.0]	[0.014821704688074533, 0.021775682755105663, 0.0282258532497508, 0.04685376268753316, 0.06304591953812633, 0.07857247695574188, 0.09658086692070356, 0.11333042062688037, 0.12828763453217107, 0.14658684024834656, 0.16316879943406093, 0.17863869556458667, 0.19636992310188361, 0.21345705518615432, 0.22835863180443994, 0.2466834375009057, 0.26313876212589093, 0.27861343691984075, 0.29651294164796127, 0.3133700152611709, 0.3283084558461269, 0.34664077086927136, 0.36317084743132, 0.37854721831172355, 0.3964777843430056, 0.41338912991341203, 0.42831357584145735, 0.4466233628845657, 0.4631930340801773, 0.4786226529140549, 0.4965050909850106, 0.5133939085753809, 0.5283166478402563, 0.5466813895036466, 0.5631647034351772, 0.5786229942459613, 0.5963982537432457, 0.6133171086403308, 0.6283309838290734, 0.6465957149084716, 0.6630640101902827, 0.6785543863043131, 0.6963832350920711, 0.7132297273819859, 0.7283296184978099, 0.7465824029204668, 0.7629059729915753, 0.778623676913412, 0.7963330591337581, 0.8133198393043131, 0.8283944717732084, 0.846625752215914, 0.8631210128078237, 0.8785704289584828, 0.8964416030394204, 0.9133106233130093, 0.9283538531417435, 0.9466530588615569, 0.96314081012315, 0.9785755489538133, 0.9964088350679958, 1.0133495352783939, 1.0283422478169086, 1.0467107441436383, 1.0628977809974458, 1.0785192290022678]
10	画家	True	animate	inanimate	left	1.015	[0.0, 0.0, 0.0, 0.0, 0.0, 0.0, 0.0, 0.0, 0.0, 0.0, 0.0, 0.0, 0.0, 0.0, 0.0, 0.0, 0.0, 0.0, 0.0, 0.0, 0.0, 0.0, 0.0, 0.0, 0.0, 0.0, 0.0, 0.0, 0.0, 0.0, 0.0, 0.0, 0.0, 0.0, 0.0, 0.0, 0.0, 0.0, -23.0, -91.0, -328.0, -431.0, -647.0, -838.0, -960.0, -960.0, -960.0, -960.0, -960.0, -955.0, -941.0, -922.0, -903.0, -879.0, -859.0, -818.0, -799.0, -790.0, -781.0, -781.0, -781.0, -781.0]	[-490.0, -490.0, -490.0, -490.0, -490.0, -490.0, -490.0, -490.0, -490.0, -490.0, -490.0, -490.0, -490.0, -490.0, -490.0, -490.0, -490.0, -490.0, -490.0, -490.0, -490.0, -490.0, -490.0, -490.0, -490.0, -490.0, -490.0, -490.0, -490.0, -481.0, -465.0, -433.0, -402.0, -380.0, -298.0, -239.0, -173.0, -113.0, -47.0, 24.0, 155.0, 191.0, 248.0, 298.0, 344.0, 354.0, 371.0, 371.0, 371.0, 376.0, 379.0, 383.0, 386.0, 393.0, 400.0, 411.0, 414.0, 416.0, 417.0, 417.0, 417.0, 417.0]	[0.014757534074306022, 0.02194839727235376, 0.028006034772261046, 0.04662336288311053, 0.06284623970714165, 0.07829941052114009, 0.09621052056900226, 0.11307271417899756, 0.12790124552702764, 0.14630216849036515, 0.16291041031945497, 0.178237970572809, 0.19618935792095726, 0.2131170874745294, 0.22800603476935066, 0.24634858978606644, 0.26281654373087804, 0.2782738105415774, 0.29622417388964095, 0.31332632463090704, 0.3277565203170525, 0.3462250272241363, 0.36294488495695987, 0.378270738543506, 0.39624533653841354, 0.41306691151839914, 0.428015933430288, 0.446295341829682, 0.4627376957978413, 0.4782451385653985, 0.49622110189375235, 0.5130658875204972, 0.5280411920721235, 0.5462745205149986, 0.5628783250140259, 0.578270397210872, 0.596151811285381, 0.6130071782354207, 0.6279032935235591, 0.646292611167155, 0.6627888957555115, 0.678372797123302, 0.6959930914199504, 0.7129604156107234, 0.7280292454161099, 0.7462915871656151, 0.7628196157311322, 0.7782505998948182, 0.7961125579859072, 0.8131481487835117, 0.8277971389470622, 0.8463646324380534, 0.8627011731623497, 0.8783297891604889, 0.8961002699979872, 0.912936180964607, 0.9280050107699935, 0.9462147872327478, 0.9627786557648506, 0.9782983865225106, 0.996000942082901, 1.013149172780686]
11	月亮	False	inanimate	animate	left	1.597	[0.0, 0.0, 0.0, 0.0, 0.0, 0.0, 0.0, 0.0, 0.0, 0.0, 0.0, 0.0, -1.0, -8.0, -10.0, -12.0, -14.0, -16.0, -18.0, -24.0, -24.0, -24.0, -22.0, -19.0, -12.0, 17.0, 29.0, 59.0, 90.0, 163.0, 184.0, 256.0, 326.0, 393.0, 445.0, 493.0, 529.0, 551.0, 554.0, 564.0, 573.0, 577.0, 578.0, 578.0, 561.0, 516.0, 447.0, 349.0, 226.0, 18.0, -54.0, -197.0, -381.0, -468.0, -498.0, -561.0, -587.0, -612.0, -630.0, -643.0, -652.0, -660.0, -661.0, -661.0, -661.0, -661.0, -661.0, -665.0, -666.0, -666.0, -669.0, -672.0, -679.0, -685.0, -689.0, -692.0, -692.0, -692.0, -692.0, -692.0, -692.0, -692.0, -692.0, -693.0, -693.0, -694.0, -694.0, -694.0, -694.0, -694.0, -694.0, -694.0, -694.0, -694.0, -694.0, -694.0]	[-490.0, -490.0, -490.0, -490.0, -490.0, -490.0, -490.0, -490.0, -490.0, -490.0, -490.0, -490.0, -490.0, -466.0, -459.0, -452.0, -440.0, -428.0, -421.0, -393.0, -374.0, -350.0, -324.0, -292.0, -245.0, -154.0, -124.0, -68.0, -17.0, 49.0, 59.0, 92.0, 123.0, 151.0, 175.0, 194.0, 213.0, 232.0, 237.0, 250.0, 268.0, 279.0, 283.0, 300.0, 319.0, 333.0, 347.0, 350.0, 356.0, 379.0, 388.0, 409.0, 442.0, 468.0, 476.0, 503.0, 517.0, 529.0, 537.0, 540.0, 540.0, 540.0, 540.0, 540.0, 540.0, 540.0, 540.0, 525.0, 508.0, 488.0, 470.0, 455.0, 444.0, 438.0, 433.0, 431.0, 431.0, 431.0, 431.0, 431.0, 431.0, 431.0, 431.0, 430.0, 430.0, 428.0, 428.0, 428.0, 428.0, 428.0, 428.0, 428.0, 428.0, 428.0, 428.0, 428.0]	[0.004446886876394274, 0.009120077556872275, 0.02432202724958188, 0.042294235914596356, 0.05928613607829902, 0.07402216617265367, 0.09243264646283933, 0.10890333107454353, 0.12445275780555676, 0.14228399592320784, 0.15928818407701328, 0.17408087545481976, 0.19252105171835865, 0.2090750215938897, 0.224419307167409, 0.24237683850878966, 0.2591379975383461, 0.2742170673373039, 0.29251047039360856, 0.3090344029624248, 0.3244056538460427, 0.3423399745406641, 0.35933665337142884, 0.37411398475887836, 0.39245961177221034, 0.40909652557456866, 0.42442476849464583, 0.4422505452821497, 0.45915335752579267, 0.4741586993877718, 0.49237837450709776, 0.5089347337125218, 0.5244070191765786, 0.5422563479442033, 0.5592277681316773, 0.5740795101228287, 0.5924422037860495, 0.6089108404012222, 0.6243582085517119, 0.6423246145532175, 0.6592363014569855, 0.6742194566686521, 0.692491697078367, 0.7086903392555541, 0.7244152111707081, 0.7422447426215513, 0.7590789469250012, 0.7741324167436687, 0.7923920278299192, 0.8087852298413054, 0.8243701552091807, 0.8422304066334618, 0.8591550641904178, 0.8741716700460529, 0.8924097771487141, 0.9090415709542867, 0.9244759684515884, 0.942236550628877, 0.9592028508195654, 0.9740344541605737, 0.9924213824706385, 1.0089398537093075, 1.0244633391303068, 1.0422512279510556, 1.0592786267516203, 1.0739190835920454, 1.0923316118824005, 1.1086971659169649, 1.1244220378321188, 1.1422802412598685, 1.1591458481998416, 1.1740958941081772, 1.1924398144547013, 1.2090070963167818, 1.224390976523864, 1.242247473284806, 1.2591134215617785, 1.2740464008165873, 1.2923176172262174, 1.3089190323917137, 1.324390976522409, 1.3422276759702072, 1.3591963654907886, 1.3741607473857584, 1.392436401125451, 1.4090190429742506, 1.4244688004582713, 1.4422539586157654, 1.4592557574396778, 1.4740726834606903, 1.492370182513696, 1.5089497523658792, 1.5244230618300207, 1.5422368919607834, 1.5592479067781824, 1.574144704733044]
12	军人	True	inanimate	animate	right	0.953	[0.0, 0.0, 0.0, 0.0, 0.0, 0.0, 0.0, 0.0, 0.0, 0.0, 0.0, 0.0, 0.0, 0.0, 0.0, 0.0, 0.0, 0.0, 0.0, 0.0, 0.0, 0.0, 0.0, 0.0, 0.0, 0.0, -7.0, -10.0, -11.0, 0.0, 18.0, 43.0, 64.0, 98.0, 145.0, 187.0, 226.0, 243.0, 243.0, 234.0, 221.0, 223.0, 246.0, 299.0, 403.0, 513.0, 635.0, 743.0, 816.0, 855.0, 857.0, 858.0, 858.0, 858.0, 858.0, 858.0, 858.0, 858.0]	[-490.0, -490.0, -490.0, -490.0, -490.0, -490.0, -490.0, -490.0, -490.0, -490.0, -490.0, -490.0, -490.0, -490.0, -490.0, -490.0, -490.0, -490.0, -490.0, -490.0, -490.0, -490.0, -490.0, -490.0, -490.0, -490.0, -489.0, -487.0, -483.0, -461.0, -403.0, -314.0, -228.0, -145.0, -67.0, 3.0, 65.0, 124.0, 135.0, 152.0, 171.0, 182.0, 204.0, 245.0, 304.0, 351.0, 388.0, 418.0, 439.0, 454.0, 454.0, 455.0, 455.0, 455.0, 455.0, 455.0, 455.0, 455.0]	[0.016019783666706644, 0.021219992562691914, 0.03040833671911969, 0.048587051875074394, 0.06556427472241921, 0.08051670996064786, 0.09889783561084187, 0.11512480842793593, 0.13069505647581536, 0.1486860384575266, 0.16548747478736914, 0.18052626728604082, 0.19878997436899226, 0.21531049360419274, 0.23070734446446295, 0.24867477446605335, 0.26543354416571674, 0.2804805286577903, 0.2988319583309931, 0.31556820005062036, 0.3307172431232175, 0.3486679478046426, 0.3655123920980259, 0.3804545873463212, 0.39869542511587497, 0.41534906423839857, 0.4306766244917526, 0.44861504118307494, 0.4654922534500656, 0.48043991002850817, 0.49873024108455866, 0.5152452989932499, 0.5307500110939145, 0.5483873720440897, 0.5654376401616901, 0.5802108755560766, 0.5987141984332993, 0.615244274995348, 0.6306414671889797, 0.6484952332866669, 0.6654198908436229, 0.6804702886693121, 0.6986821131285978, 0.7152394963304687, 0.7307216804547352, 0.7484389133351215, 0.7654000935290242, 0.7804477606878208, 0.7986851851237589, 0.8152572456492635, 0.8306930084763735, 0.8485273185906408, 0.8655192187579814, 0.8804812113266962, 0.8987162464327412, 0.9152234536777542, 0.930733627108566, 0.9483341240920709]
13	漫画	False	animate	inanimate	right	1.368	[0.0, 0.0, 0.0, 0.0, 0.0, 0.0, 0.0, 0.0, 0.0, 0.0, 0.0, 0.0, 0.0, 0.0, 0.0, 0.0, 0.0, 0.0, 0.0, 0.0, 0.0, 0.0, 0.0, 0.0, 0.0, 5.0, 17.0, 23.0, 36.0, 42.0, 49.0, 53.0, 53.0, 53.0, 53.0, 46.0, 37.0, 13.0, -9.0, -27.0, -163.0, -282.0, -388.0, -435.0, -441.0, -441.0, -414.0, -330.0, -184.0, 115.0, 335.0, 448.0, 747.0, 875.0, 940.0, 953.0, 954.0, 954.0, 952.0, 947.0, 946.0, 945.0, 945.0, 945.0, 945.0, 945.0, 944.0, 943.0, 942.0, 942.0, 941.0, 940.0, 936.0, 926.0, 907.0, 900.0, 880.0, 871.0, 864.0, 863.0, 863.0, 863.0]	[-490.0, -490.0, -490.0, -490.0, -490.0, -490.0, -490.0, -490.0, -490.0, -490.0, -490.0, -490.0, -490.0, -490.0, -490.0, -490.0, -490.0, -490.0, -490.0, -490.0, -490.0, -490.0, -490.0, -490.0, -487.0, -465.0, -423.0, -411.0, -372.0, -342.0, -295.0, -233.0, -171.0, -108.0, -56.0, -17.0, 19.0, 69.0, 109.0, 131.0, 222.0, 264.0, 294.0, 309.0, 311.0, 311.0, 317.0, 317.0, 317.0, 295.0, 282.0, 282.0, 282.0, 287.0, 302.0, 311.0, 315.0, 320.0, 327.0, 334.0, 337.0, 338.0, 338.0, 338.0, 338.0, 338.0, 339.0, 341.0, 341.0, 342.0, 342.0, 344.0, 347.0, 354.0, 367.0, 370.0, 385.0, 390.0, 396.0, 396.0, 396.0, 396.0]	[0.0007243087129609194, 0.005755899088399019, 0.01612389024012373, 0.03490403421528754, 0.051277438909892226, 0.0665862258465495, 0.08453146919782739, 0.10142404145153705, 0.1163986633400782, 0.1346978690562537, 0.1512794869086065, 0.16656881786184385, 0.18450040789321065, 0.20145851608685916, 0.21634643938523368, 0.23473609835855314, 0.25126207892390084, 0.26659271117387107, 0.28451815721200546, 0.30149299072581925, 0.3163566793737118, 0.33471015704708407, 0.35131464420919656, 0.3666015858325409, 0.38456048250736785, 0.40140902279745205, 0.416329714065796, 0.4346633944187488, 0.4513494601815182, 0.46662718581137597, 0.4845116718825011, 0.5014049267992959, 0.5163092340808362, 0.5346289197841543, 0.5511917643161723, 0.5665896391765273, 0.5842631814266497, 0.6012434762706107, 0.6163515593798365, 0.6347135703763342, 0.6511695776680426, 0.6665985138351971, 0.6843976666459639, 0.7014254067835282, 0.7163088927482022, 0.7345780611576629, 0.750947028525843, 0.766581447183853, 0.7844157572981203, 0.8014260894487961, 0.8163959326739132, 0.8346231171199179, 0.8511760629953642, 0.8665903218425228, 0.8846089518010558, 0.9015018653844891, 0.9162778314421303, 0.9346435971019673, 0.9512620789209905, 0.9666002205012774, 0.9844993838923983, 1.001336318859103, 1.0163727220278815, 1.0346507650974672, 1.0512159989630163, 1.0665855431798263, 1.0845280558678496, 1.1015049373818329, 1.116351218046475, 1.134727565033245, 1.1512067829680745, 1.1665432178815536, 1.1844946052297018, 1.2013854708166036, 1.2163085514148406, 1.2346299437813286, 1.2511204257098143, 1.2665964658372104, 1.2844027866412944, 1.3015213213693642, 1.316220146156411, 1.3346671490835433]
14	军队	True	inanimate	animate	right	1.832	[0.0, 0.0, 0.0, 0.0, 0.0, 0.0, 0.0, 0.0, 0.0, 0.0, 0.0, 0.0, 0.0, 0.0, 0.0, 0.0, 0.0, 0.0, 0.0, 0.0, 0.0, 0.0, 0.0, 0.0, 0.0, 0.0, 0.0, 0.0, 0.0, 0.0, 0.0, 0.0, 0.0, 4.0, 12.0, 16.0, 21.0, 27.0, 38.0, 59.0, 86.0, 104.0, 114.0, 123.0, 146.0, 162.0, 203.0, 212.0, 212.0, 183.0, 119.0, 8.0, -198.0, -278.0, -451.0, -668.0, -779.0, -819.0, -870.0, -878.0, -879.0, -874.0, -867.0, -863.0, -863.0, -863.0, -863.0, -863.0, -863.0, -863.0, -863.0, -859.0, -853.0, -846.0, -832.0, -818.0, -804.0, -788.0, -781.0, -779.0, -779.0, -779.0, -763.0, -737.0, -680.0, -586.0, -471.0, -342.0, -176.0, 32.0, 256.0, 585.0, 745.0, 806.0, 903.0, 917.0, 917.0, 917.0, 917.0, 917.0, 917.0, 917.0, 917.0, 917.0, 917.0, 917.0, 916.0, 913.0, 910.0, 906.0]	[-490.0, -490.0, -490.0, -490.0, -490.0, -490.0, -490.0, -490.0, -490.0, -490.0, -490.0, -490.0, -490.0, -490.0, -490.0, -490.0, -490.0, -490.0, -490.0, -490.0, -490.0, -490.0, -490.0, -490.0, -490.0, -490.0, -490.0, -490.0, -490.0, -490.0, -490.0, -490.0, -483.0, -473.0, -445.0, -431.0, -421.0, -405.0, -381.0, -344.0, -296.0, -260.0, -237.0, -220.0, -192.0, -179.0, -133.0, -104.0, -78.0, -48.0, -22.0, 8.0, 52.0, 72.0, 116.0, 191.0, 245.0, 269.0, 305.0, 321.0, 336.0, 354.0, 368.0, 380.0, 385.0, 391.0, 393.0, 393.0, 395.0, 397.0, 401.0, 403.0, 407.0, 410.0, 416.0, 419.0, 421.0, 422.0, 422.0, 422.0, 422.0, 422.0, 418.0, 407.0, 389.0, 364.0, 344.0, 328.0, 317.0, 313.0, 313.0, 313.0, 318.0, 326.0, 343.0, 348.0, 348.0, 348.0, 348.0, 348.0, 348.0, 348.0, 348.0, 348.0, 348.0, 348.0, 358.0, 366.0, 373.0, 378.0]	[0.008146937052515568, 0.01296758360331296, 0.017303195905697066, 0.03351890473277308, 0.04975850687696948, 0.06516354973064153, 0.08311493707878981, 0.09999010134561104, 0.1149121579437633, 0.13330898491403786, 0.14984349880251102, 0.16519495236934745, 0.1830808037739189, 0.20003140264452668, 0.21489372595897294, 0.23324447296909057, 0.24985169079445768, 0.2652133843548654, 0.28309036109931185, 0.299993856009678, 0.3149101099479594, 0.3332291129809164, 0.3498035628363141, 0.36518164037988754, 0.3830705637810752, 0.40011298123863526, 0.41492205660324544, 0.43324071830284083, 0.4498441814685066, 0.46513658441836014, 0.48318320368707646, 0.4999354880565079, 0.5147466114176495, 0.5332369636416843, 0.549829162813694, 0.5651714003906818, 0.5830804624420125, 0.6001177599027869, 0.6149299072640133, 0.6332277476467425, 0.6497489495486661, 0.6651574057359539, 0.6828531346363889, 0.6998095361668675, 0.7148954326257808, 0.7331598223718174, 0.7495202564132342, 0.7651454590777576, 0.7830241424890119, 0.7999443627159053, 0.8146773208100058, 0.8331564090440224, 0.8494431151448225, 0.86515706440332, 0.8829821585241007, 0.8998849707677437, 0.9146380675119872, 0.9331912250127061, 0.9496967255945492, 0.96522225901208, 0.9829787451926677, 1.0005157542291272, 1.0148824619682273, 1.0331622117046209, 1.0497547522136301, 1.065138973750436, 1.0827524413871288, 1.0999225174018648, 1.1149507285772415, 1.133165966366505, 1.1494321924874384, 1.1651055231122882, 1.1829719185334397, 1.2001542825382785, 1.214867784648959, 1.2331861050188309, 1.2497595308741438, 1.2651908563748293, 1.283018339825503, 1.2998877014324535, 1.3149172779412766, 1.3331488997173437, 1.3496168536621553, 1.3651208830997348, 1.3829688465375511, 1.3999269547311997, 1.4148903126297228, 1.4332209209860594, 1.449656448294263, 1.4651550164053333, 1.4829698705361807, 1.4998709761130158, 1.514902941951732, 1.5331888356813579, 1.5496096856695658, 1.5651270270936948, 1.5830862651018833, 1.5999860053489101, 1.6146544514995185, 1.6330738064461912, 1.6496209496581287, 1.6651440937457664, 1.6829763558635022, 1.7000320853076119, 1.714916253942647, 1.733217507658992, 1.7498469121346716, 1.765162867064646, 1.7828896572718804, 1.7999860053496377]
15	橡皮	False	inanimate	animate	left	1.251	[0.0, 0.0, 0.0, 0.0, 0.0, 0.0, 0.0, 0.0, 0.0, 0.0, 0.0, 0.0, 0.0, 0.0, 0.0, 0.0, 0.0, 0.0, 0.0, 0.0, 0.0, 0.0, 0.0, 0.0, 0.0, 0.0, 0.0, 0.0, 0.0, -1.0, 25.0, 59.0, 82.0, 114.0, 147.0, 189.0, 230.0, 283.0, 345.0, 435.0, 542.0, 648.0, 737.0, 812.0, 835.0, 843.0, 858.0, 861.0, 861.0, 861.0, 859.0, 827.0, 759.0, 667.0, 556.0, 313.0, 140.0, 48.0, -195.0, -327.0, -435.0, -551.0, -575.0, -622.0, -657.0, -679.0, -695.0, -713.0, -721.0, -726.0, -739.0, -748.0, -752.0, -752.0, -752.0, -752.0]	[-490.0, -490.0, -490.0, -490.0, -490.0, -490.0, -490.0, -490.0, -490.0, -490.0, -490.0, -490.0, -490.0, -490.0, -490.0, -490.0, -490.0, -490.0, -490.0, -490.0, -490.0, -490.0, -490.0, -490.0, -490.0, -490.0, -490.0, -490.0, -490.0, -479.0, -404.0, -233.0, -139.0, -61.0, 2.0, 67.0, 122.0, 184.0, 243.0, 306.0, 368.0, 423.0, 462.0, 495.0, 510.0, 517.0, 528.0, 531.0, 531.0, 531.0, 533.0, 534.0, 531.0, 520.0, 504.0, 483.0, 483.0, 483.0, 483.0, 484.0, 494.0, 501.0, 501.0, 501.0, 501.0, 502.0, 503.0, 507.0, 510.0, 512.0, 517.0, 519.0, 521.0, 521.0, 521.0, 521.0]	[0.014380019729287596, 0.019116357023449382, 0.027028798271203414, 0.04531503333055298, 0.06216118429074413, 0.07721533677613479, 0.0956220624029811, 0.11198249644439784, 0.12743293659150368, 0.1453669159564015, 0.16225436820968753, 0.1771999767915986, 0.19552990248121205, 0.2120070724231482, 0.22737047264672583, 0.24537920394504908, 0.2622304748983879, 0.2771245421899948, 0.2955428731365828, 0.31198386177493376, 0.3273609153184225, 0.34538603060354944, 0.3621854189368605, 0.3771221528586466, 0.39553433981200214, 0.4120210670771485, 0.4274223552674812, 0.44539046793579473, 0.4623745174430951, 0.47715731016069185, 0.4955264891505067, 0.5119295898221026, 0.5273274646824575, 0.5452426707270206, 0.5621004270105914, 0.5769613849952293, 0.5956101157462399, 0.6119094511705043, 0.6273851499645389, 0.6452645160425163, 0.6620789230255468, 0.6771317101811292, 0.6953868839373172, 0.7118640538756154, 0.727364669983217, 0.7453293693215528, 0.7621649389548111, 0.7769651396592963, 0.7953476306392986, 0.8117568753004889, 0.8273851499652665, 0.8452696360363916, 0.86221648024366, 0.8771429741718748, 0.8953599186279462, 0.9116425287320453, 0.9274162112742488, 0.945365209288866, 0.9622181869090127, 0.9771754008106655, 0.9955606224575604, 1.0118729285350128, 1.0273769579725922, 1.0452791933639674, 1.062116128327034, 1.0769019930448849, 1.0954029265922145, 1.1119736217842728, 1.1273209793544083, 1.1450143189213122, 1.1621116909991542, 1.17715355549808, 1.195479043857631, 1.211847328559088, 1.2273551126563689, 1.2452102440875024]
16	军队	True	animate	inanimate	left	1.132	[0.0, 0.0, 0.0, 0.0, 0.0, 0.0, 0.0, 0.0, 0.0, 0.0, 0.0, 0.0, 0.0, 0.0, 0.0, 0.0, 0.0, 0.0, 0.0, 0.0, 1.0, 2.0, 6.0, 13.0, 26.0, 58.0, 93.0, 141.0, 194.0, 250.0, 304.0, 382.0, 431.0, 474.0, 510.0, 532.0, 549.0, 559.0, 561.0, 561.0, 561.0, 561.0, 561.0, 538.0, 494.0, 413.0, 336.0, 281.0, 240.0, 212.0, 165.0, 74.0, -56.0, -297.0, -370.0, -549.0, -638.0, -703.0, -734.0, -743.0, -743.0, -743.0, -741.0, -741.0, -741.0, -741.0, -741.0, -741.0]	[-490.0, -490.0, -490.0, -490.0, -490.0, -490.0, -490.0, -490.0, -490.0, -490.0, -490.0, -490.0, -490.0, -490.0, -490.0, -490.0, -490.0, -490.0, -490.0, -489.0, -485.0, -483.0, -478.0, -470.0, -452.0, -406.0, -351.0, -286.0, -200.0, -118.0, -47.0, 53.0, 109.0, 163.0, 219.0, 256.0, 288.0, 305.0, 312.0, 313.0, 313.0, 313.0, 313.0, 313.0, 313.0, 324.0, 336.0, 346.0, 359.0, 367.0, 378.0, 390.0, 408.0, 415.0, 415.0, 415.0, 415.0, 423.0, 428.0, 434.0, 434.0, 436.0, 438.0, 439.0, 439.0, 439.0, 439.0, 439.0]	[0.008749048534809845, 0.013324959294550354, 0.01840604296012316, 0.034564066503662616, 0.050911871221615, 0.06637494069218519, 0.0842191494666622, 0.10108953507005936, 0.11606518095868523, 0.13439237598504405, 0.1509221112137311, 0.16635138871424715, 0.1842130054719746, 0.20110933238538564, 0.2160494796371495, 0.2344067119738611, 0.2507224313849292, 0.2663240820693318, 0.2840706695933477, 0.3011025057276129, 0.3161061409227841, 0.33439988531245035, 0.350929961874499, 0.3663609460381849, 0.38425908543285914, 0.40109226573622436, 0.41605459963466274, 0.4343285467075475, 0.4508128846391628, 0.4662954100931529, 0.4841529308578174, 0.5009861111575447, 0.5160870262734534, 0.5343490266895969, 0.5507893326612248, 0.5663455860521935, 0.584134498873027, 0.601043796443264, 0.6160856609421899, 0.6343736026683473, 0.650603306152334, 0.6662943860937958, 0.6841853574951529, 0.7010332151185139, 0.7160662049573148, 0.734386573323718, 0.750783188665082, 0.7663305673995637, 0.7839604190194223, 0.8010762230805994, 0.8159580023821036, 0.8345504131830239, 0.8507599780168675, 0.8662278261508618, 0.8841539548557193, 0.9009949858191248, 0.9161368608984048, 0.9342930480706855, 0.950542207538092, 0.9663585567068367, 0.9842297307914123, 1.0010571084312687, 1.0158702797925798, 1.0344196826299594, 1.0507678286776354, 1.0663196447421797, 1.0841399601995363, 1.1010298017863533]
17	夫妻	True	animate	inanimate	left	1.0	[0.0, 0.0, 0.0, 0.0, 0.0, 0.0, 0.0, -1.0, -1.0, -1.0, -1.0, -1.0, -1.0, -1.0, -1.0, -1.0, -1.0, 2.0, 4.0, 7.0, 8.0, 10.0, 15.0, 27.0, 57.0, 110.0, 170.0, 234.0, 301.0, 363.0, 408.0, 435.0, 460.0, 486.0, 518.0, 550.0, 560.0, 579.0, 585.0, 586.0, 586.0, 575.0, 518.0, 387.0, 224.0, 46.0, -212.0, -293.0, -445.0, -630.0, -702.0, -732.0, -737.0, -737.0, -737.0, -737.0, -737.0, -737.0, -737.0, -737.0, -737.0]	[-490.0, -490.0, -490.0, -490.0, -490.0, -490.0, -490.0, -487.0, -482.0, -480.0, -480.0, -480.0, -480.0, -480.0, -480.0, -480.0, -477.0, -473.0, -470.0, -466.0, -465.0, -459.0, -442.0, -412.0, -344.0, -219.0, -127.0, -50.0, 19.0, 80.0, 124.0, 154.0, 182.0, 209.0, 236.0, 261.0, 268.0, 287.0, 296.0, 300.0, 301.0, 307.0, 317.0, 329.0, 336.0, 338.0, 345.0, 351.0, 377.0, 401.0, 415.0, 422.0, 424.0, 424.0, 424.0, 424.0, 424.0, 424.0, 424.0, 424.0, 424.0]	[0.013420191215118393, 0.018970949146023486, 0.02513166922290111, 0.04388177588771214, 0.06021524461903027, 0.07576501268340508, 0.09348361089723767, 0.11040929245427833, 0.12535455969918985, 0.14376708798590698, 0.16009168205710012, 0.17560083148782724, 0.19358566947630607, 0.21034751117258566, 0.2253688956880069, 0.2436780000643921, 0.26022309527979814, 0.2756957220735785, 0.2936300427718379, 0.310480289725092, 0.32536650635665865, 0.3437281760197948, 0.3602138792848564, 0.37560083148855483, 0.39337643231920083, 0.41032020452985307, 0.42551362089579925, 0.443628506771347, 0.4601759913166461, 0.4757404367046547, 0.49351876819855534, 0.5103038205415942, 0.525378794343851, 0.5437476320039423, 0.560218657949008, 0.5755472422024468, 0.5934498189235455, 0.6103341991838533, 0.6253873276727973, 0.643650010752026, 0.6602562045845843, 0.6756759247582522, 0.6934822455623362, 0.7102952872155583, 0.7251094825733162, 0.7436636640741199, 0.7601186473657435, 0.77560083149001, 0.7932620857500297, 0.810385057808162, 0.825436479630298, 0.8437350026797503, 0.8599486635139328, 0.8755970768252155, 0.8934706402396841, 0.910330785853148, 0.9254562769456243, 0.9436189494481368, 0.9601340073531901, 0.9756861647510959, 0.99340681096146]
18	蜜蜂	True	inanimate	animate	right	1.042	[0.0, 0.0, 0.0, 0.0, 0.0, 0.0, 0.0, 0.0, 0.0, 0.0, 0.0, 0.0, 0.0, 0.0, 0.0, 0.0, 0.0, 0.0, 0.0, 0.0, 0.0, 0.0, 0.0, 0.0, 0.0, 0.0, 0.0, 0.0, 32.0, 67.0, 100.0, 128.0, 154.0, 185.0, 233.0, 284.0, 330.0, 373.0, 411.0, 437.0, 457.0, 470.0, 478.0, 511.0, 532.0, 552.0, 574.0, 603.0, 623.0, 632.0, 644.0, 653.0, 655.0, 655.0, 657.0, 671.0, 694.0, 715.0, 731.0, 735.0, 735.0, 735.0, 735.0]	[-490.0, -490.0, -490.0, -490.0, -490.0, -490.0, -490.0, -490.0, -490.0, -490.0, -490.0, -490.0, -490.0, -490.0, -490.0, -490.0, -490.0, -490.0, -490.0, -490.0, -490.0, -490.0, -490.0, -490.0, -490.0, -490.0, -490.0, -490.0, -474.0, -458.0, -436.0, -390.0, -305.0, -212.0, -112.0, -19.0, 61.0, 136.0, 202.0, 247.0, 281.0, 302.0, 314.0, 352.0, 372.0, 388.0, 403.0, 421.0, 432.0, 437.0, 445.0, 451.0, 451.0, 451.0, 451.0, 452.0, 452.0, 452.0, 452.0, 452.0, 452.0, 452.0, 452.0]	[0.0002938877478300128, 0.005101563645439455, 0.015476722794119269, 0.03405650427157525, 0.05019814383194898, 0.06572572524601128, 0.08375937385790166, 0.10054408486757893, 0.11527328829834005, 0.13377934184245532, 0.15029644774767803, 0.16572367724802461, 0.1837648351865937, 0.20055534885977977, 0.21555215739499545, 0.233973219008476, 0.2504991995738237, 0.2657673678768333, 0.28379862715883064, 0.3006778874223528, 0.3156081360139069, 0.3338445364533982, 0.3503647143552371, 0.36571685058879666, 0.3836825739235792, 0.400542719537043, 0.41554328273559804, 0.4338595551053004, 0.45038485300392495, 0.4672518252773443, 0.48348357676150044, 0.5005379408758017, 0.5155152934275975, 0.5338537524439744, 0.5503677863525809, 0.5657305039094354, 0.5836341046306188, 0.6005266768843285, 0.6152739709650632, 0.633773197845585, 0.6500902825900994, 0.665714461258176, 0.6836112353194039, 0.7004819622561627, 0.7152896722873265, 0.7337120992306154, 0.7503862183366437, 0.7657100239266583, 0.7836231819746899, 0.800521898221632, 0.8152633896424959, 0.8336400779589894, 0.8502015571611992, 0.8657943331891147, 0.8835702753531223, 0.9004512422798143, 0.9153900242017698, 0.9338783284219971, 0.9502810877602315, 0.9657851171978109, 0.9834709474380361, 1.000538623538887, 1.0156054053513799]
19	蜻蜓	True	inanimate	animate	right	0.914	[0.0, 0.0, 0.0, 0.0, 0.0, 0.0, 0.0, 0.0, 0.0, 0.0, 0.0, 0.0, 0.0, 0.0, 0.0, 0.0, 0.0, 0.0, 0.0, 0.0, 0.0, 6.0, 10.0, 17.0, 36.0, 128.0, 203.0, 266.0, 319.0, 354.0, 365.0, 358.0, 331.0, 264.0, 164.0, 61.0, -14.0, -31.0, -26.0, 25.0, 128.0, 253.0, 394.0, 537.0, 661.0, 738.0, 759.0, 763.0, 763.0, 763.0, 763.0, 763.0, 763.0, 763.0, 763.0]	[-490.0, -490.0, -490.0, -490.0, -490.0, -490.0, -490.0, -490.0, -490.0, -490.0, -490.0, -490.0, -490.0, -490.0, -490.0, -490.0, -490.0, -490.0, -490.0, -490.0, -490.0, -476.0, -453.0, -413.0, -348.0, -190.0, -84.0, 16.0, 106.0, 192.0, 237.0, 259.0, 280.0, 308.0, 337.0, 367.0, 383.0, 385.0, 387.0, 395.0, 408.0, 412.0, 412.0, 412.0, 412.0, 414.0, 418.0, 420.0, 420.0, 420.0, 420.0, 420.0, 420.0, 420.0, 420.0]	[0.015119688432605471, 0.019758745806029765, 0.028495165017375257, 0.04687663200093084, 0.06372244162412244, 0.07863733023259556, 0.09702903720244649, 0.11337274592369795, 0.1288211380742723, 0.14683669603255112, 0.1636630496759608, 0.1784912396906293, 0.19700241322789225, 0.21352463912626263, 0.22892831665012636, 0.24681553338450613, 0.2636227723778575, 0.2783833784487797, 0.2969085466393153, 0.31337547658768017, 0.32885049271499156, 0.34679880806652363, 0.3636374496963981, 0.3785963702648587, 0.39697851991513744, 0.41343247920667636, 0.42882933006694657, 0.4465506589440338, 0.46361594571499154, 0.47840658909626654, 0.49709525581420166, 0.5133956152385508, 0.5288317193990224, 0.5469373892810836, 0.5636173110469826, 0.5785953462655016, 0.5968887493218062, 0.6131205008059624, 0.6287501408005483, 0.6466861681619775, 0.6635766924155178, 0.6786021729276399, 0.6969211759605969, 0.7134212152159307, 0.7288354740630894, 0.7466650055139326, 0.7635596257641737, 0.7783874744454806, 0.7967184241351788, 0.8133051619806793, 0.8288313780649332, 0.8465841095821816, 0.8636138977162773, 0.8785813516115013, 0.8970501998519467]
20	小鸡	True	animate	inanimate	left	1.202	[0.0, 0.0, 0.0, 0.0, 0.0, 0.0, 0.0, 0.0, 0.0, 0.0, 0.0, 0.0, 0.0, 0.0, 0.0, 0.0, 0.0, 0.0, 0.0, -12.0, -22.0, -32.0, -43.0, -60.0, -73.0, -74.0, -74.0, -77.0, -97.0, -117.0, -131.0, -176.0, -200.0, -205.0, -202.0, -158.0, -89.0, -9.0, 96.0, 225.0, 381.0, 427.0, 433.0, 425.0, 390.0, 306.0, 184.0, 22.0, -151.0, -310.0, -445.0, -540.0, -596.0, -605.0, -607.0, -608.0, -609.0, -612.0, -620.0, -633.0, -642.0, -644.0, -645.0, -645.0, -645.0, -647.0, -655.0, -666.0, -678.0, -685.0, -688.0, -688.0, -688.0]	[-490.0, -490.0, -490.0, -490.0, -490.0, -490.0, -490.0, -490.0, -490.0, -490.0, -490.0, -490.0, -490.0, -490.0, -490.0, -490.0, -490.0, -490.0, -489.0, -487.0, -485.0, -484.0, -483.0, -480.0, -478.0, -477.0, -475.0, -453.0, -363.0, -300.0, -272.0, -197.0, -163.0, -151.0, -135.0, -94.0, -38.0, 22.0, 94.0, 169.0, 246.0, 283.0, 305.0, 319.0, 328.0, 339.0, 343.0, 358.0, 363.0, 380.0, 401.0, 414.0, 427.0, 432.0, 434.0, 437.0, 438.0, 441.0, 443.0, 445.0, 446.0, 446.0, 446.0, 446.0, 446.0, 446.0, 446.0, 446.0, 446.0, 446.0, 446.0, 446.0, 446.0]	[0.008626509970781626, 0.012936180959513877, 0.01809304055859684, 0.03456133584040799, 0.05085896460150252, 0.06632032740526483, 0.08420925080645247, 0.1010724684165325, 0.11595049305469729, 0.1343019227279001, 0.15083780194981955, 0.16624933013372356, 0.1842300721218635, 0.20104550310861669, 0.21599759701348376, 0.2344203652937722, 0.250851796605275, 0.26627049278249615, 0.2842293894573231, 0.3011687243342749, 0.31598735702209524, 0.33442241329248645, 0.3508337059538462, 0.3662520607977058, 0.38419730415262165, 0.4010410657792818, 0.4157535438898776, 0.4343589253476239, 0.45084974860947113, 0.4662445514695719, 0.4841744348377688, 0.5009997644810937, 0.5159685837061261, 0.5343060187260562, 0.5508405326145294, 0.5662677621185139, 0.5841580508531479, 0.6009570978494594, 0.6157620772173686, 0.6342339974544302, 0.6507132153892599, 0.6661947168468032, 0.6840426802846196, 0.70098952448825, 0.7159777997003403, 0.7343449306936236, 0.7508313166217704, 0.7662186101588304, 0.7841573681835143, 0.8010011298101745, 0.8157613945513731, 0.8342783707485069, 0.8507678286769078, 0.8661752608641109, 0.8840938802386518, 0.900998057815741, 0.9158753997871827, 0.9343503920208605, 0.9505633701846818, 0.9662035915062006, 0.9840778375873924, 1.0010441377744428, 1.0160061303395196, 1.03423843478231, 1.0507210660507553, 1.0662537674616033, 1.0839645150153956, 1.1009151138860034, 1.1159883810214524, 1.1342855387410964, 1.1506954660726478, 1.1662203168234555, 1.1842153948018677]
21	毛巾	False	animate	inanimate	right	0.901	[0.0, 0.0, 0.0, 0.0, 0.0, 0.0, 0.0, 0.0, 0.0, 0.0, 0.0, 0.0, 0.0, 0.0, 0.0, 0.0, 0.0, 0.0, 0.0, 0.0, 0.0, 0.0, 7.0, 56.0, 79.0, 161.0, 219.0, 246.0, 310.0, 328.0, 334.0, 340.0, 343.0, 348.0, 363.0, 369.0, 379.0, 409.0, 471.0, 561.0, 661.0, 752.0, 805.0, 837.0, 850.0, 858.0, 858.0, 858.0, 858.0, 857.0, 856.0, 856.0, 856.0, 856.0, 856.0]	[-490.0, -490.0, -490.0, -490.0, -490.0, -490.0, -490.0, -490.0, -490.0, -490.0, -490.0, -490.0, -490.0, -490.0, -490.0, -490.0, -490.0, -490.0, -490.0, -490.0, -490.0, -490.0, -489.0, -454.0, -434.0, -361.0, -303.0, -274.0, -191.0, -159.0, -142.0, -126.0, -105.0, -85.0, -47.0, -35.0, -15.0, 26.0, 77.0, 145.0, 235.0, 307.0, 352.0, 385.0, 405.0, 419.0, 430.0, 434.0, 439.0, 447.0, 450.0, 450.0, 450.0, 450.0, 450.0]	[0.014695411460706964, 0.020759534287208226, 0.02796200280863559, 0.04632401380513329, 0.06279333308702917, 0.07827688254110399, 0.09619140591894393, 0.11302765821892535, 0.1279872614541091, 0.14630216849036515, 0.16267796251850086, 0.17822841324596084, 0.19595622745328, 0.213035850210872, 0.2279558588124928, 0.24626735252240906, 0.26279674641773454, 0.27824752789820195, 0.29614873928949237, 0.3130194662262511, 0.32798828545128345, 0.34624823787089554, 0.3629680956037191, 0.37819052527993335, 0.39602039806413813, 0.4130102502349473, 0.4279616614767292, 0.44631582181318663, 0.4627888957547839, 0.47822056258883094, 0.4961316726366931, 0.5129894289166259, 0.5279647334718902, 0.5462680351884046, 0.5627380371333857, 0.5782205625873758, 0.5959435981312708, 0.6129658769386879, 0.6278176189298392, 0.6462431178733823, 0.6625847785981023, 0.6782383119061706, 0.6959572514533647, 0.7129177489805443, 0.7279882854527386, 0.7462311712188239, 0.7627346238004975, 0.778210322594532, 0.7960777420157683, 0.8129819195928576, 0.8279882854512834, 0.8463042164912622, 0.8626475838755141, 0.8782840505336935, 0.8961661472749256]
22	鳄鱼	True	inanimate	animate	right	0.964	[0.0, 0.0, 0.0, 0.0, 0.0, 0.0, 0.0, 0.0, 0.0, 0.0, 0.0, 0.0, 0.0, 0.0, 0.0, 0.0, 0.0, 0.0, 0.0, 0.0, 0.0, 0.0, 0.0, 0.0, 0.0, 0.0, 0.0, 0.0, 0.0, 2.0, 9.0, 17.0, 29.0, 32.0, 33.0, 33.0, 29.0, 25.0, 25.0, 40.0, 81.0, 150.0, 242.0, 342.0, 503.0, 560.0, 670.0, 694.0, 701.0, 701.0, 701.0, 701.0, 701.0, 701.0, 701.0, 701.0, 701.0, 701.0]	[-490.0, -490.0, -490.0, -490.0, -490.0, -490.0, -490.0, -490.0, -490.0, -490.0, -490.0, -490.0, -490.0, -490.0, -490.0, -490.0, -490.0, -490.0, -490.0, -490.0, -490.0, -490.0, -490.0, -490.0, -490.0, -490.0, -490.0, -490.0, -489.0, -479.0, -463.0, -446.0, -407.0, -389.0, -325.0, -282.0, -228.0, -180.0, -149.0, -109.0, -61.0, -7.0, 58.0, 123.0, 222.0, 255.0, 324.0, 343.0, 349.0, 349.0, 349.0, 349.0, 349.0, 349.0, 349.0, 349.0, 349.0, 349.0]	[0.007526734912971733, 0.012754591785778757, 0.01640173534178757, 0.0321446979069151, 0.048474411971255904, 0.06384634552159696, 0.08183527950313874, 0.09884015032730531, 0.11344510853086831, 0.13198222337814514, 0.14842116401632666, 0.16395557209398248, 0.1817079622815072, 0.19884151565929642, 0.21349357782310108, 0.23194604207674274, 0.24841194802502287, 0.26396035075958935, 0.28183084217380383, 0.29864900382381165, 0.31364990835572826, 0.3320170393490116, 0.3483784973868751, 0.3638695561676286, 0.3818144581891829, 0.39876881172313006, 0.4136522976878041, 0.431942287414131, 0.44850205994953285, 0.4638920841498475, 0.4818294768447231, 0.49875106240142486, 0.51363523103646, 0.5319852953762165, 0.5483249081007671, 0.5639159774618747, 0.5817356102561462, 0.5987449184067373, 0.6137389962786983, 0.6318842607979605, 0.6483897613798035, 0.6639432841075177, 0.681866340812121, 0.6987200010953529, 0.7136447883603978, 0.7319129327734117, 0.7484836279654701, 0.7638647775056597, 0.781701476953458, 0.7987298997541075, 0.8133969805712695, 0.8318009755348612, 0.8481784762261668, 0.8639077854677453, 0.8817052316153422, 0.8986507104891643, 0.9134239458835509, 0.9319139567705861]
23	珍珠	False	animate	inanimate	right	0.976	[0.0, 0.0, 0.0, 0.0, 0.0, 0.0, 0.0, 0.0, 0.0, 0.0, 0.0, 0.0, 0.0, 0.0, 0.0, 0.0, 0.0, 0.0, 0.0, 0.0, 0.0, 0.0, 0.0, 0.0, 0.0, 0.0, 0.0, 0.0, 0.0, 0.0, 0.0, 0.0, 0.0, 0.0, 0.0, 0.0, 0.0, 22.0, 74.0, 170.0, 333.0, 441.0, 553.0, 648.0, 716.0, 787.0, 833.0, 849.0, 856.0, 859.0, 859.0, 859.0, 859.0, 859.0, 859.0, 859.0, 859.0, 859.0, 859.0]	[-490.0, -490.0, -490.0, -490.0, -490.0, -490.0, -490.0, -489.0, -489.0, -489.0, -489.0, -489.0, -489.0, -489.0, -489.0, -489.0, -489.0, -489.0, -489.0, -489.0, -489.0, -489.0, -489.0, -489.0, -489.0, -489.0, -489.0, -489.0, -489.0, -489.0, -489.0, -489.0, -489.0, -489.0, -479.0, -424.0, -345.0, -282.0, -213.0, -140.0, -25.0, 52.0, 132.0, 199.0, 251.0, 301.0, 340.0, 361.0, 375.0, 386.0, 389.0, 390.0, 393.0, 397.0, 400.0, 401.0, 401.0, 401.0, 401.0]	[0.016251719462161418, 0.021190808580286102, 0.03088159497929155, 0.04950131242367206, 0.06563885598370689, 0.08121354136164882, 0.09898538752895547, 0.11589468509919243, 0.13072526444375399, 0.14902037416686653, 0.16560779467909015, 0.181084858802933, 0.19911782474810025, 0.21590902108800947, 0.23085189900302794, 0.2492446299729636, 0.26577163453839603, 0.2811227467718709, 0.2991212380802608, 0.3159834316902561, 0.3308570189983584, 0.34915793138134177, 0.36573272257010103, 0.3811101174505893, 0.3990662834585237, 0.41592096774547826, 0.43062559519603383, 0.44939481651454116, 0.46561393867159495, 0.4811265014359378, 0.4990632114640903, 0.5158803491103754, 0.5306457338447217, 0.5491104860884661, 0.5656494373106398, 0.5811312800979067, 0.5989277022454189, 0.6158817144423665, 0.6307273124439234, 0.6490896647737827, 0.6655036880983971, 0.6810237601894187, 0.6988263263301633, 0.7158004771808919, 0.730712976455834, 0.7492067420062085, 0.7655408934006118, 0.7810947574616875, 0.7989413555660576, 0.8159097037532774, 0.8307925070548663, 0.8491347207345825, 0.8655511333927279, 0.8810367308469722, 0.8989727582047635, 0.9158636237916653, 0.9309956002143736, 0.9491767047002213, 0.9656129146751482]
24	香蕉	False	inanimate	animate	left	1.533	[0.0, 0.0, 0.0, 0.0, 0.0, 0.0, 0.0, 0.0, 0.0, 0.0, 0.0, 0.0, 0.0, 0.0, 0.0, 0.0, 0.0, 0.0, 0.0, 0.0, 0.0, 0.0, 0.0, 0.0, 0.0, 0.0, 0.0, 0.0, 0.0, 0.0, 0.0, -1.0, -1.0, -1.0, 7.0, 22.0, 36.0, 52.0, 67.0, 77.0, 99.0, 107.0, 136.0, 201.0, 270.0, 315.0, 477.0, 601.0, 712.0, 787.0, 826.0, 842.0, 848.0, 850.0, 851.0, 851.0, 848.0, 844.0, 837.0, 828.0, 821.0, 815.0, 801.0, 778.0, 736.0, 670.0, 593.0, 460.0, 347.0, 217.0, 82.0, -24.0, -108.0, -155.0, -182.0, -212.0, -258.0, -323.0, -395.0, -514.0, -599.0, -683.0, -763.0, -821.0, -850.0, -868.0, -874.0, -877.0, -877.0, -877.0, -877.0, -877.0, -877.0]	[-490.0, -490.0, -490.0, -490.0, -490.0, -490.0, -490.0, -490.0, -490.0, -490.0, -490.0, -490.0, -490.0, -490.0, -490.0, -490.0, -490.0, -490.0, -490.0, -490.0, -490.0, -490.0, -490.0, -490.0, -490.0, -490.0, -490.0, -490.0, -490.0, -490.0, -490.0, -490.0, -490.0, -490.0, -487.0, -472.0, -446.0, -394.0, -327.0, -261.0, -195.0, -179.0, -138.0, -84.0, -48.0, -20.0, 64.0, 114.0, 168.0, 213.0, 241.0, 254.0, 260.0, 265.0, 271.0, 279.0, 286.0, 292.0, 299.0, 307.0, 313.0, 316.0, 320.0, 324.0, 330.0, 340.0, 343.0, 343.0, 343.0, 343.0, 343.0, 347.0, 358.0, 373.0, 384.0, 397.0, 407.0, 416.0, 421.0, 421.0, 422.0, 422.0, 430.0, 430.0, 430.0, 430.0, 430.0, 428.0, 428.0, 428.0, 428.0, 428.0, 428.0]	[0.007960569208080415, 0.012151797633123351, 0.016569329862250015, 0.03298471852031071, 0.04930999525822699, 0.06480003003889578, 0.08269202543669962, 0.09952179241008707, 0.11457287289886153, 0.1328751506152912, 0.14929292860688292, 0.1646962647937471, 0.18266779079203843, 0.19948458710859995, 0.21443872901363648, 0.2328512573039916, 0.2493277445755666, 0.2647232301060285, 0.2826650601273286, 0.29948492844050634, 0.31440288904559566, 0.3326850281118823, 0.3491645873800735, 0.36473312876478303, 0.38267427611936, 0.3994972164327919, 0.41458140622489736, 0.43277206803759327, 0.44916322204881, 0.4647925207136723, 0.48266164679807844, 0.4994555738012423, 0.5144755929832172, 0.5327976680164284, 0.5493461765581742, 0.5647341527619574, 0.5826636947967927, 0.5994412378131528, 0.6144438490082393, 0.6326918547711102, 0.6492437766464718, 0.6646508675003133, 0.6825292095782061, 0.6993791151980986, 0.7142370011861203, 0.7325996948493412, 0.7492243206652347, 0.7647331287626002, 0.782580750867055, 0.7993726298700494, 0.814446238342498, 0.8327027774284943, 0.8491912113604485, 0.864733128764783, 0.8825694868755818, 0.8994507951356354, 0.9145035822912178, 0.9328352146476391, 0.9491731207090197, 0.964700702123082, 0.9825435455641127, 0.9993535152207187, 1.0144622809930297, 1.0326822974457173, 1.049184043364221, 1.064739272758743, 1.082572217539564, 1.0993941338529112, 1.1144947076318203, 1.132817123998393, 1.1491840433664038, 1.1647259607707383, 1.1823520577272575, 1.1993821871947148, 1.2143701210734434, 1.232742713393236, 1.2490171315075713, 1.2646600834923447, 1.2823390870726143, 1.2993845765267906, 1.3142987824685406, 1.3327567080486915, 1.3490642354663578, 1.3647143554444483, 1.3826254654959484, 1.3994320218189387, 1.4144988036314317, 1.4328205373276433, 1.4489843635346915, 1.4647218647733098, 1.4823063190997345, 1.4994217818275501, 1.5145196249468427]
25	蜘蛛	True	animate	inanimate	left	0.932	[0.0, 0.0, 0.0, 0.0, 0.0, 0.0, 0.0, 0.0, 0.0, 0.0, 0.0, 0.0, 0.0, 0.0, 0.0, 1.0, 17.0, 24.0, 37.0, 53.0, 70.0, 72.0, 88.0, 106.0, 143.0, 202.0, 261.0, 319.0, 392.0, 410.0, 431.0, 449.0, 468.0, 471.0, 472.0, 456.0, 433.0, 354.0, 241.0, 105.0, -43.0, -219.0, -386.0, -544.0, -712.0, -749.0, -808.0, -820.0, -829.0, -834.0, -840.0, -845.0, -849.0, -849.0, -849.0, -849.0, -849.0]	[-490.0, -490.0, -490.0, -490.0, -490.0, -490.0, -490.0, -490.0, -490.0, -490.0, -490.0, -490.0, -490.0, -490.0, -490.0, -490.0, -484.0, -480.0, -473.0, -463.0, -453.0, -451.0, -438.0, -426.0, -393.0, -332.0, -267.0, -176.0, -70.0, -45.0, -14.0, 10.0, 49.0, 58.0, 81.0, 96.0, 117.0, 156.0, 203.0, 245.0, 286.0, 322.0, 359.0, 400.0, 449.0, 465.0, 493.0, 502.0, 511.0, 519.0, 531.0, 537.0, 540.0, 540.0, 540.0, 540.0, 540.0]	[0.007214415178168565, 0.012211872246552957, 0.01849137622411945, 0.03144530650388333, 0.04795626841223566, 0.06327870867244201, 0.0812147360338713, 0.09810116429071059, 0.11307442084580543, 0.1313545119119226, 0.14791735644757864, 0.16325242602761136, 0.18104509351178422, 0.1981595322395151, 0.21306588751758682, 0.23139478921075352, 0.24797845505963778, 0.263300212653121, 0.2812031307075813, 0.2981189136080502, 0.31306998351647053, 0.33129989862572984, 0.34789482846463216, 0.36325549802495516, 0.38113759476618725, 0.39815748424007325, 0.41309933815864497, 0.43131491728127, 0.44791496711332, 0.4632339940435486, 0.4811338401013927, 0.49800422570478986, 0.513051551530225, 0.5312384586795815, 0.5477975485482602, 0.5632319460455619, 0.5811266721066204, 0.5981619215708633, 0.61304813820243, 0.6312531359981222, 0.6478507965039171, 0.6632626660175447, 0.6810853708084323, 0.697984428388736, 0.7129983035774785, 0.731273274650448, 0.7476234686982934, 0.7632619833530043, 0.7809430349298054, 0.7981131109445414, 0.8128747410155484, 0.8312975092958368, 0.8476190313667757, 0.8633435619485681, 0.8811403254294419, 0.8981315429300594, 0.9130167355615413]
26	轮船	False	inanimate	animate	left	1.366	[0.0, 0.0, 0.0, 0.0, 0.0, 0.0, 0.0, 0.0, 0.0, 0.0, 0.0, 0.0, 0.0, 0.0, 0.0, 0.0, 0.0, 0.0, 0.0, 0.0, 0.0, 0.0, 0.0, 0.0, 0.0, 0.0, 0.0, 0.0, 0.0, -1.0, 17.0, 62.0, 127.0, 143.0, 194.0, 229.0, 270.0, 304.0, 342.0, 373.0, 400.0, 436.0, 473.0, 498.0, 516.0, 520.0, 522.0, 522.0, 521.0, 501.0, 443.0, 346.0, 214.0, 49.0, -150.0, -344.0, -586.0, -656.0, -825.0, -879.0, -896.0, -897.0, -897.0, -897.0, -896.0, -896.0, -896.0, -896.0, -896.0, -896.0, -886.0, -871.0, -845.0, -818.0, -801.0, -795.0, -793.0, -790.0, -790.0, -790.0, -790.0, -790.0, -790.0]	[-490.0, -490.0, -490.0, -490.0, -490.0, -490.0, -490.0, -490.0, -490.0, -490.0, -490.0, -490.0, -490.0, -490.0, -490.0, -490.0, -490.0, -490.0, -490.0, -490.0, -490.0, -490.0, -490.0, -490.0, -490.0, -490.0, -490.0, -490.0, -490.0, -490.0, -469.0, -404.0, -282.0, -245.0, -123.0, -64.0, -11.0, 31.0, 76.0, 118.0, 155.0, 195.0, 238.0, 268.0, 292.0, 300.0, 307.0, 309.0, 311.0, 316.0, 323.0, 333.0, 349.0, 371.0, 393.0, 418.0, 457.0, 469.0, 509.0, 525.0, 532.0, 532.0, 532.0, 534.0, 538.0, 538.0, 538.0, 538.0, 538.0, 538.0, 534.0, 518.0, 496.0, 477.0, 465.0, 460.0, 457.0, 451.0, 448.0, 447.0, 447.0, 447.0, 447.0]	[0.007243769825436175, 0.01241872007449274, 0.017419931806216482, 0.031187941393000074, 0.047834753851930145, 0.06315309811543557, 0.08093347760950564, 0.0980513296672143, 0.11293447430216474, 0.13130501862542587, 0.14783407118738978, 0.16317767409418593, 0.18107171749215922, 0.19800490837587859, 0.2128634770269855, 0.23126235199379153, 0.24783816718263552, 0.26312647413578816, 0.28090787762994296, 0.29794107909401646, 0.3129187729828118, 0.331216613365541, 0.3477873085612373, 0.36315787677813205, 0.38109390413956135, 0.3980062737064145, 0.41286552502788254, 0.43120944537440664, 0.447806764543202, 0.463081076843082, 0.48107444815468625, 0.4979881830549857, 0.5128880530064635, 0.5311404960993968, 0.5477896978918579, 0.5631698234319629, 0.5811007308002445, 0.597926401773293, 0.6129563196154777, 0.631128890774562, 0.6476152767063468, 0.6631551461141498, 0.6807931897274102, 0.698028801685723, 0.7127501544564439, 0.731231290686992, 0.7478125672059832, 0.7631141861493234, 0.7809252856168314, 0.7978902204704355, 0.8129494929562497, 0.8311449334287317, 0.8474606528397999, 0.8630100795708131, 0.8808723789952637, 0.8980062737064145, 0.9128679143577756, 0.9312643999910506, 0.9478303165233228, 0.9630916581663769, 0.9807102457998553, 0.9978233191941399, 1.012919114313263, 1.0311131894559367, 1.0474872768172645, 1.0631687994355161, 1.0809321122760593, 1.0979342524333333, 1.1128747410184587, 1.1312292426882777, 1.1477651219138352, 1.163102580823761, 1.1811280374422495, 1.1980342630158702, 1.2129279889741156, 1.231208762706956, 1.2476896873085934, 1.2630916581656493, 1.2809416695999971, 1.2979803323942178, 1.3128696210224007, 1.3312114933723933, 1.3476572606705304]
27	乞丐	True	animate	inanimate	left	1.189	[0.0, 0.0, 0.0, 0.0, 0.0, 0.0, 0.0, 0.0, 0.0, 1.0, 1.0, 1.0, 1.0, 1.0, 1.0, 2.0, 5.0, 7.0, 9.0, 10.0, 12.0, 12.0, 12.0, 12.0, 12.0, 12.0, 10.0, 5.0, -9.0, -16.0, -28.0, -48.0, -88.0, -143.0, -195.0, -224.0, -228.0, -211.0, -118.0, -80.0, 16.0, 42.0, 44.0, 37.0, 3.0, -91.0, -227.0, -395.0, -561.0, -710.0, -818.0, -875.0, -888.0, -888.0, -889.0, -889.0, -888.0, -888.0, -888.0, -888.0, -887.0, -877.0, -855.0, -847.0, -817.0, -802.0, -793.0, -790.0, -790.0, -790.0, -790.0, -790.0]	[-490.0, -490.0, -490.0, -490.0, -490.0, -490.0, -490.0, -490.0, -490.0, -489.0, -489.0, -489.0, -489.0, -489.0, -489.0, -488.0, -483.0, -479.0, -476.0, -473.0, -469.0, -465.0, -457.0, -437.0, -410.0, -386.0, -348.0, -334.0, -287.0, -263.0, -234.0, -191.0, -133.0, -71.0, -20.0, 12.0, 34.0, 61.0, 142.0, 169.0, 224.0, 239.0, 242.0, 246.0, 252.0, 263.0, 282.0, 295.0, 303.0, 322.0, 336.0, 345.0, 350.0, 350.0, 351.0, 354.0, 354.0, 354.0, 354.0, 354.0, 355.0, 364.0, 376.0, 380.0, 392.0, 398.0, 402.0, 403.0, 403.0, 403.0, 403.0, 403.0]	[0.0069413487435667776, 0.011230198419070803, 0.01575251989197568, 0.031212858699291246, 0.04753745277048438, 0.06292030897748191, 0.08091197362227831, 0.09772296727896901, 0.11266516252726433, 0.1310800801475125, 0.14741457287527737, 0.16298447958979523, 0.18067542982680607, 0.1977666579077777, 0.21270987715615775, 0.2310261495258601, 0.2476091327080212, 0.2629131409812544, 0.28083278435588, 0.29775983124636696, 0.31246377603383735, 0.3310394615145924, 0.3474353941892332, 0.3629117756499909, 0.38064914718052023, 0.39768780997474096, 0.41254330663286964, 0.43092921094284975, 0.4473859008976433, 0.46286091702859267, 0.4807774884029641, 0.4976994152966654, 0.5127163624820241, 0.5309042936314654, 0.5474558741734654, 0.562849994370481, 0.5806071632177918, 0.5977198952787148, 0.6124077974127431, 0.6308548003398755, 0.6473060289681598, 0.6629107516491786, 0.6807358457735972, 0.6977932818845147, 0.7127405971295957, 0.7309432055953948, 0.7474497301773226, 0.7629011943245132, 0.7806921551455162, 0.7975881407255656, 0.8126682345246081, 0.830958224250935, 0.8473859008990985, 0.8628629650265793, 0.8806546085106675, 0.8977069246247993, 0.9126678931897914, 0.930954810919502, 0.9472817943205882, 0.962919626308576, 0.9805815632389567, 0.9975912127229094, 1.012707487825537, 1.0309025869646575, 1.0474173035399872, 1.062914506313973, 1.0807512057617714, 1.0976919059721695, 1.1126607251972018, 1.1309612962468236, 1.147435052855144, 1.162945908952679]
28	椅子	False	inanimate	animate	left	0.865	[0.0, 0.0, 0.0, 0.0, 0.0, 0.0, 0.0, 0.0, 0.0, 0.0, 0.0, 0.0, 0.0, 0.0, 0.0, 0.0, 0.0, 0.0, 0.0, 0.0, -2.0, -2.0, -2.0, -2.0, 5.0, 21.0, 55.0, 73.0, 172.0, 285.0, 393.0, 472.0, 491.0, 493.0, 487.0, 444.0, 340.0, 182.0, -71.0, -154.0, -403.0, -576.0, -705.0, -803.0, -847.0, -858.0, -858.0, -858.0, -858.0, -858.0, -858.0, -858.0, -858.0]	[-490.0, -490.0, -490.0, -490.0, -490.0, -490.0, -492.0, -492.0, -492.0, -492.0, -492.0, -492.0, -492.0, -492.0, -492.0, -492.0, -492.0, -492.0, -492.0, -489.0, -480.0, -460.0, -434.0, -397.0, -327.0, -250.0, -170.0, -143.0, -31.0, 65.0, 162.0, 251.0, 298.0, 319.0, 330.0, 340.0, 350.0, 354.0, 371.0, 371.0, 371.0, 373.0, 373.0, 373.0, 373.0, 373.0, 373.0, 373.0, 373.0, 373.0, 373.0, 373.0, 373.0]	[0.006271994647249812, 0.010780321466882015, 0.016232434147241293, 0.029360785611061146, 0.04601271807041485, 0.06129249169680406, 0.07926367636173381, 0.0961770699286717, 0.11087282272274024, 0.12940003891344531, 0.14592772614196292, 0.1613204810055322, 0.1792445617102203, 0.19612177397721098, 0.21111209718583268, 0.2295007321590674, 0.24601340073422762, 0.261260747724009, 0.27930770832608687, 0.2961470326226845, 0.3111219958445872, 0.3293300656405336, 0.3457031290017767, 0.3612692810493172, 0.37902644989662804, 0.3960511180375761, 0.41101959592924686, 0.4293362096323108, 0.4458263502274349, 0.46122047042445047, 0.4789680819485511, 0.4960675020229246, 0.5110458785748051, 0.5292713563540019, 0.545743747632514, 0.5612696223834064, 0.5790913031742093, 0.5962197365588509, 0.6110120866032958, 0.6293228976464889, 0.6457922169247468, 0.661248801068723, 0.679110759159812, 0.6960589686968888, 0.7110684065555688, 0.7293966255820123, 0.7458041635800328, 0.7613174090110988, 0.7790909618415753, 0.796169219269359, 0.8109977506173891, 0.8293788762639451, 0.845801432915323]
29	苹果	False	inanimate	animate	left	2.128	[0.0, 0.0, 0.0, 0.0, 0.0, 0.0, 0.0, 0.0, 0.0, 0.0, 0.0, 0.0, 0.0, 0.0, 0.0, 0.0, 0.0, 0.0, 0.0, 0.0, 0.0, 0.0, 0.0, 0.0, 0.0, 0.0, 0.0, 0.0, 0.0, 0.0, 0.0, 54.0, 75.0, 78.0, 98.0, 135.0, 199.0, 283.0, 375.0, 443.0, 473.0, 491.0, 503.0, 520.0, 527.0, 528.0, 531.0, 539.0, 556.0, 583.0, 601.0, 609.0, 615.0, 626.0, 647.0, 684.0, 699.0, 706.0, 708.0, 708.0, 708.0, 708.0, 708.0, 708.0, 708.0, 708.0, 708.0, 708.0, 700.0, 684.0, 572.0, 461.0, 316.0, 146.0, -43.0, -232.0, -391.0, -516.0, -597.0, -648.0, -659.0, -659.0, -659.0, -659.0, -659.0, -659.0, -659.0, -659.0, -659.0, -659.0, -659.0, -659.0, -659.0, -659.0, -659.0, -659.0, -659.0, -659.0, -659.0, -659.0, -658.0, -654.0, -647.0, -636.0, -631.0, -625.0, -610.0, -586.0, -566.0, -556.0, -554.0, -554.0, -554.0, -563.0, -604.0, -693.0, -743.0, -757.0, -778.0, -780.0, -781.0, -781.0, -781.0, -781.0, -781.0, -781.0, -781.0, -781.0]	[-490.0, -490.0, -490.0, -490.0, -490.0, -490.0, -490.0, -490.0, -490.0, -490.0, -490.0, -490.0, -490.0, -490.0, -490.0, -490.0, -490.0, -490.0, -490.0, -490.0, -490.0, -490.0, -490.0, -490.0, -490.0, -490.0, -490.0, -490.0, -490.0, -490.0, -488.0, -449.0, -398.0, -367.0, -235.0, -141.0, -34.0, 70.0, 156.0, 218.0, 251.0, 274.0, 292.0, 315.0, 323.0, 325.0, 327.0, 329.0, 333.0, 342.0, 348.0, 353.0, 358.0, 362.0, 367.0, 374.0, 378.0, 380.0, 381.0, 381.0, 381.0, 381.0, 381.0, 381.0, 381.0, 381.0, 381.0, 381.0, 382.0, 383.0, 383.0, 383.0, 383.0, 383.0, 383.0, 383.0, 383.0, 383.0, 383.0, 389.0, 393.0, 393.0, 393.0, 396.0, 402.0, 407.0, 410.0, 413.0, 415.0, 415.0, 415.0, 415.0, 415.0, 415.0, 415.0, 415.0, 415.0, 415.0, 415.0, 415.0, 412.0, 403.0, 387.0, 356.0, 339.0, 319.0, 282.0, 227.0, 181.0, 157.0, 152.0, 152.0, 152.0, 165.0, 205.0, 272.0, 311.0, 323.0, 349.0, 358.0, 367.0, 373.0, 376.0, 377.0, 378.0, 379.0, 379.0, 379.0]	[0.014521331610012567, 0.021033283384895185, 0.027525437846634304, 0.04609668599732686, 0.06240114141837694, 0.07781778959542862, 0.09565756103984313, 0.11252316797981621, 0.12752338984864764, 0.14601544873585226, 0.16241035741040832, 0.17780823227076326, 0.19579204625915736, 0.21253272530520917, 0.2275271445105318, 0.24592124081391376, 0.2624212800692476, 0.2778375869129377, 0.295731630310911, 0.3125258986437984, 0.3275199765157595, 0.345878915515641, 0.36248067201813683, 0.3778020882746205, 0.39572889964620117, 0.4125678826094372, 0.4276039444448543, 0.445884376844333, 0.46225266154579003, 0.47780550160678104, 0.4955998757541238, 0.512552522621263, 0.5274964245363662, 0.5458860835096857, 0.5623185388212733, 0.5778280295889999, 0.5955473104659177, 0.6125497919565532, 0.6275377258352819, 0.6458249848983542, 0.6622294508997584, 0.6777382589971239, 0.6956305957282893, 0.7124344213916629, 0.7275435284973355, 0.7457993849202467, 0.7624171840725467, 0.7778410002429155, 0.7956561957071244, 0.8124514880437346, 0.8275298751759692, 0.8457611556186748, 0.8620280644026934, 0.8777484989877848, 0.8953715239513258, 0.912489717342396, 0.9275510378247418, 0.9458273742275196, 0.9620632217083767, 0.977770002969919, 0.99562069707099, 1.0124607040343108, 1.0275769791333005, 1.0458423928830598, 1.062293621511344, 1.0778194962622365, 1.0956230864030658, 1.1125542292866157, 1.1272684140640195, 1.145787096927961, 1.1623345814768982, 1.1777618109772447, 1.1956466383817315, 1.2125340906386555, 1.2274790165502054, 1.2458345422201091, 1.2622550508749555, 1.2777710269692761, 1.2956002170867578, 1.3124477333803952, 1.327319272688328, 1.3458382968856313, 1.362436981387873, 1.377846802904969, 1.3957603022863623, 1.412471968025784, 1.4275100778577325, 1.445873112854315, 1.4622516375457053, 1.4777935549500398, 1.4955913424309983, 1.5125415999646066, 1.52756127781322, 1.5458157689063228, 1.5621342189806455, 1.5778362215787638, 1.5956162597431103, 1.6126166932335764, 1.6272847980508232, 1.6457584249546926, 1.6620297710687737, 1.6777283603405522, 1.6953841532740626, 1.7124654826984624, 1.7275206591839378, 1.7457949475901842, 1.7622461762184685, 1.7777853629559104, 1.7956619983706332, 1.8124490987102035, 1.82748720854579, 1.8457956302554521, 1.8621553816265077, 1.8777512296546774, 1.8955968037589628, 1.9125497919594636, 1.9276466110750334, 1.9458737955210381, 1.962265632198978, 1.9777717096367269, 1.9955411664705025, 2.0126586771984876, 2.0273575019891723, 2.045956056783325, 2.062120906990458, 2.077767272305209, 2.0954394492255233, 2.112552522623446]
30	公路	False	animate	inanimate	right	1.226	[0.0, 0.0, 0.0, 0.0, 0.0, 0.0, 0.0, 0.0, 0.0, 0.0, 0.0, 0.0, 0.0, 0.0, 0.0, 0.0, 0.0, 2.0, 5.0, 9.0, 18.0, 25.0, 37.0, 37.0, 37.0, 37.0, 37.0, 37.0, 45.0, 52.0, 56.0, 57.0, 57.0, 56.0, 41.0, 0.0, -100.0, -237.0, -377.0, -480.0, -495.0, -495.0, -495.0, -476.0, -326.0, -254.0, -18.0, 121.0, 262.0, 402.0, 510.0, 580.0, 612.0, 620.0, 623.0, 624.0, 629.0, 631.0, 638.0, 644.0, 649.0, 651.0, 657.0, 662.0, 664.0, 668.0, 672.0, 682.0, 698.0, 702.0, 705.0, 705.0, 705.0, 705.0]	[-490.0, -490.0, -490.0, -490.0, -490.0, -490.0, -490.0, -490.0, -490.0, -490.0, -490.0, -490.0, -490.0, -490.0, -490.0, -490.0, -490.0, -486.0, -476.0, -465.0, -436.0, -416.0, -312.0, -257.0, -214.0, -178.0, -147.0, -120.0, -93.0, -68.0, -45.0, -31.0, -9.0, -3.0, 17.0, 48.0, 96.0, 152.0, 192.0, 218.0, 226.0, 226.0, 227.0, 241.0, 274.0, 284.0, 291.0, 303.0, 322.0, 343.0, 357.0, 372.0, 383.0, 388.0, 392.0, 394.0, 397.0, 399.0, 404.0, 407.0, 410.0, 412.0, 414.0, 416.0, 418.0, 419.0, 420.0, 420.0, 420.0, 420.0, 420.0, 420.0, 420.0, 420.0]	[0.008273571605968755, 0.013061791520158295, 0.01732879587871139, 0.03374179520687903, 0.0499834453476069, 0.06545641347838682, 0.08332315023289993, 0.10028740242341883, 0.11509477112122113, 0.13363461663175258, 0.1500343039733707, 0.165504541437258, 0.1833282702282304, 0.20036249569238862, 0.2151254910932039, 0.2335994593304349, 0.2500042666652007, 0.2655192187594366, 0.28343715546725434, 0.30036966368425055, 0.31510364577843575, 0.3335424567121663, 0.3501059839109075, 0.36549054678107495, 0.38336923019232927, 0.4002402984624496, 0.4152842109579069, 0.4334632674472232, 0.4500346453060047, 0.46547962412660127, 0.48339073417446343, 0.5002222078110208, 0.5152616829764156, 0.5334738487690629, 0.550014847987768, 0.5655086374354141, 0.5832067556657421, 0.6003252903901739, 0.6153453095721488, 0.6335646433581132, 0.6499977813364239, 0.6655523280642228, 0.6833391928848869, 0.7002498557885701, 0.7152289150071738, 0.7334714594398974, 0.7499926613418211, 0.7654635814724315, 0.7833501155437261, 0.8002949117508251, 0.81529718161255, 0.8336168673158681, 0.8500312319738441, 0.8654816721245879, 0.8833822008491552, 0.9002679464392713, 0.915282504294737, 0.9335922913342074, 0.9498650027817348, 0.9655321894133522, 0.9831705743636121, 1.0002771624313027, 1.0151108137724805, 1.0335134434026259, 1.0498721707772347, 1.0655001041086507, 1.0833047182459268, 1.1003071997402003, 1.1152500776552188, 1.1336308619684132, 1.1499930026729999, 1.1654813307904988, 1.1832146063243272, 1.2004362236293673]
31	医生	True	animate	inanimate	left	0.98	[0.0, 0.0, 0.0, 0.0, 0.0, 0.0, 1.0, 1.0, 1.0, 1.0, 1.0, 1.0, 1.0, 1.0, 0.0, 0.0, 0.0, 0.0, 0.0, 0.0, 0.0, 0.0, 0.0, 0.0, 0.0, -1.0, 25.0, 83.0, 127.0, 172.0, 221.0, 278.0, 323.0, 365.0, 393.0, 394.0, 379.0, 287.0, 179.0, 39.0, -88.0, -229.0, -366.0, -488.0, -587.0, -652.0, -694.0, -715.0, -729.0, -740.0, -741.0, -741.0, -741.0, -741.0, -741.0, -741.0, -741.0, -741.0, -741.0]	[-490.0, -490.0, -490.0, -490.0, -490.0, -488.0, -488.0, -488.0, -487.0, -484.0, -482.0, -482.0, -482.0, -482.0, -481.0, -481.0, -481.0, -481.0, -481.0, -481.0, -481.0, -481.0, -481.0, -481.0, -481.0, -480.0, -464.0, -420.0, -362.0, -284.0, -194.0, -95.0, -5.0, 67.0, 129.0, 173.0, 209.0, 262.0, 294.0, 330.0, 346.0, 367.0, 386.0, 405.0, 424.0, 441.0, 457.0, 469.0, 478.0, 488.0, 488.0, 488.0, 488.0, 488.0, 488.0, 488.0, 488.0, 488.0, 488.0]	[0.015129928422538796, 0.019519130011758534, 0.028522471660835436, 0.046840109363984084, 0.06369274565076921, 0.07860797558896593, 0.09697817857886548, 0.11350927914099884, 0.12889247667771997, 0.14681177872262197, 0.16367636166251032, 0.17848509569375892, 0.19678976274008164, 0.21350040447941865, 0.22880885008271434, 0.24679368807119317, 0.2636661216711218, 0.27856735695604584, 0.2969146906325477, 0.31497291522464366, 0.328790418097924, 0.34685239735335927, 0.36367431366670644, 0.37859875959838973, 0.3968430106942833, 0.4132983353192685, 0.42883854606043315, 0.4468312347053143, 0.4637231242923008, 0.4787718154475442, 0.4969539439334767, 0.5134526178553642, 0.5287463861386641, 0.5465458802827925, 0.5635930764001387, 0.5786202635790687, 0.5969457519422576, 0.6134382818672748, 0.6289153459947556, 0.6467762800857599, 0.6637463349361497, 0.6786253835743992, 0.696886359990458, 0.7135853964064154, 0.7288528820463398, 0.7465083336464886, 0.7635842017407413, 0.7787240288234898, 0.7970147012165398, 0.8133829859143589, 0.8288750686951971, 0.8467800347498269, 0.8636859189900861, 0.8783772344540921, 0.8966167068865616, 0.9133751352528634, 0.9288969140070549, 0.9467046001445851, 0.9636562230152776]
32	飞机	False	inanimate	animate	left	1.28	[0.0, 0.0, 0.0, 0.0, 0.0, 0.0, 0.0, 0.0, 0.0, 0.0, 0.0, 0.0, 0.0, 0.0, 0.0, 0.0, 0.0, 0.0, 0.0, 0.0, 0.0, 0.0, 4.0, 23.0, 59.0, 86.0, 107.0, 123.0, 138.0, 157.0, 173.0, 194.0, 211.0, 214.0, 214.0, 200.0, 149.0, 56.0, -73.0, -220.0, -388.0, -561.0, -727.0, -911.0, -958.0, -960.0, -960.0, -960.0, -960.0, -960.0, -960.0, -960.0, -960.0, -960.0, -960.0, -960.0, -960.0, -960.0, -960.0, -960.0, -957.0, -938.0, -922.0, -908.0, -892.0, -862.0, -855.0, -844.0, -844.0, -844.0, -844.0, -844.0, -844.0, -844.0, -844.0, -844.0, -844.0, -844.0]	[-490.0, -490.0, -490.0, -490.0, -490.0, -490.0, -490.0, -490.0, -490.0, -490.0, -490.0, -490.0, -490.0, -490.0, -490.0, -490.0, -490.0, -490.0, -490.0, -490.0, -487.0, -483.0, -468.0, -432.0, -341.0, -274.0, -219.0, -169.0, -122.0, -74.0, -20.0, 51.0, 92.0, 103.0, 133.0, 157.0, 186.0, 217.0, 252.0, 280.0, 308.0, 339.0, 372.0, 427.0, 443.0, 464.0, 473.0, 473.0, 473.0, 473.0, 473.0, 473.0, 473.0, 473.0, 473.0, 473.0, 473.0, 473.0, 473.0, 473.0, 471.0, 464.0, 457.0, 449.0, 439.0, 418.0, 412.0, 405.0, 405.0, 405.0, 405.0, 405.0, 405.0, 405.0, 405.0, 405.0, 405.0, 405.0]	[0.007573668204713613, 0.014461086328083184, 0.01813451252746745, 0.03187111947045196, 0.048807041021063924, 0.06381170021631988, 0.08210203127600835, 0.09843447600360378, 0.11397502807812998, 0.13193972741282778, 0.14882956899964483, 0.16354648444394115, 0.18209895927793696, 0.19843891333584907, 0.21400745471692062, 0.2319994606950786, 0.24882922766846605, 0.2637441162733012, 0.28223549249378266, 0.29885807030950673, 0.3139879987320455, 0.33194143408036325, 0.3487899743668095, 0.3637546975987789, 0.38207643129862845, 0.39842116401632666, 0.4139886813973135, 0.4316789489676012, 0.44866436380834784, 0.46374002027732786, 0.48213514058079454, 0.49854711590887746, 0.5139801480727328, 0.5318233328471251, 0.5487616437239922, 0.563761524259462, 0.5820542446490435, 0.5985559905675473, 0.6139518174313707, 0.6318987674494565, 0.6487694943862152, 0.6636164577175805, 0.6820743832977314, 0.6982859961317445, 0.7139617160864873, 0.731601125036832, 0.7487855370382022, 0.7637328522832831, 0.7820484419862623, 0.7984843106278277, 0.8140286173656932, 0.8318380101663934, 0.8487906570335326, 0.863735241615359, 0.8821156845951919, 0.8984808973000327, 0.9140255453676218, 0.9318120688549243, 0.9487729077154654, 0.963725342957332, 0.9821764418775274, 0.998631425169151, 1.0139569374259736, 1.0318390341672057, 1.0487950943643227, 1.0635522871052672, 1.082003044692101, 1.0985993398644496, 1.1139589854246879, 1.1318311835057102, 1.1487609610594518, 1.1637560629314976, 1.1820402499943157, 1.1985266359261004, 1.2140439773502294, 1.2318407408311032, 1.2487701770514832, 1.2637506015998952]
33	道士	True	animate	inanimate	left	1.204	[0.0, 0.0, 0.0, 0.0, 0.0, 0.0, 0.0, 0.0, 0.0, 0.0, 0.0, 0.0, 0.0, 0.0, 0.0, 0.0, 0.0, 0.0, 0.0, 0.0, 0.0, 0.0, 0.0, 0.0, 0.0, 0.0, 0.0, 0.0, 0.0, 0.0, 0.0, 0.0, 0.0, 0.0, 0.0, -1.0, -31.0, -82.0, -135.0, -138.0, -138.0, -138.0, -138.0, -146.0, -171.0, -209.0, -255.0, -305.0, -364.0, -437.0, -596.0, -656.0, -808.0, -880.0, -911.0, -918.0, -920.0, -920.0, -919.0, -916.0, -914.0, -909.0, -894.0, -888.0, -871.0, -855.0, -833.0, -805.0, -778.0, -758.0, -751.0, -751.0, -751.0]	[-490.0, -490.0, -490.0, -490.0, -490.0, -490.0, -490.0, -490.0, -490.0, -490.0, -490.0, -490.0, -490.0, -490.0, -490.0, -490.0, -490.0, -490.0, -490.0, -490.0, -490.0, -490.0, -490.0, -490.0, -490.0, -490.0, -490.0, -490.0, -490.0, -490.0, -490.0, -490.0, -490.0, -490.0, -490.0, -487.0, -447.0, -378.0, -285.0, -279.0, -267.0, -239.0, -202.0, -147.0, -78.0, -28.0, 9.0, 39.0, 64.0, 95.0, 153.0, 174.0, 225.0, 250.0, 265.0, 269.0, 270.0, 273.0, 278.0, 284.0, 289.0, 295.0, 306.0, 311.0, 325.0, 335.0, 343.0, 351.0, 359.0, 364.0, 367.0, 367.0, 367.0]	[0.012007925754005555, 0.018440346932038665, 0.024008854179555783, 0.04104376231043716, 0.057421945664827945, 0.0727952445486153, 0.09066573596646776, 0.10771293208381394, 0.12254248742829077, 0.1408092665078584, 0.15733456440648297, 0.1727594045769365, 0.19071147459180793, 0.20760302284543286, 0.22250050346701755, 0.24079766118666157, 0.25738576436560834, 0.27273346326546744, 0.29069884527052636, 0.3076337428174156, 0.32247387948882533, 0.3408300878254522, 0.3573581163873314, 0.37268670064077014, 0.3907002106025175, 0.40764364147617016, 0.4225015274641919, 0.4408672931276669, 0.45744413231295766, 0.4727802258930751, 0.4906790479544725, 0.5076419348115451, 0.5225022101294599, 0.540808925175952, 0.5574407189851627, 0.5726873833082209, 0.5907418532333395, 0.6074859456130071, 0.6224237035312399, 0.6408437411446357, 0.6573577750532422, 0.6727522365836194, 0.6906131706746237, 0.7074825322815741, 0.72257115940738, 0.7407215439161519, 0.757273807124875, 0.7727170792823017, 0.7906432079835213, 0.8074736576236319, 0.82260734070951, 0.8407840078652953, 0.85713966323965, 0.8727293672709493, 0.8905063334350416, 0.9075135935891012, 0.9226343060181534, 0.9406996986035665, 0.9573011137690628, 0.9727283432730474, 0.9905711867104401, 1.0076030228447053, 1.0224936768063344, 1.040717789252085, 1.0572799511210178, 1.0727269779381459, 1.0905551440591807, 1.10752724690974, 1.122333932940819, 1.1407351972375182, 1.15724650048287, 1.1727693032371462, 1.1905647013845737]
34	骆驼	True	inanimate	animate	right	1.142	[0.0, 0.0, 0.0, 0.0, 0.0, 0.0, 0.0, 0.0, 0.0, 0.0, 0.0, 0.0, 0.0, 0.0, 0.0, 0.0, 0.0, 0.0, 0.0, 0.0, 0.0, 0.0, 0.0, 0.0, 0.0, 0.0, 0.0, 0.0, 0.0, 0.0, 0.0, 0.0, 0.0, 0.0, 19.0, 78.0, 138.0, 230.0, 283.0, 321.0, 347.0, 364.0, 376.0, 381.0, 383.0, 392.0, 436.0, 452.0, 493.0, 591.0, 657.0, 687.0, 741.0, 756.0, 764.0, 769.0, 771.0, 773.0, 773.0, 772.0, 768.0, 761.0, 751.0, 746.0, 733.0, 729.0, 729.0, 729.0, 729.0]	[-490.0, -490.0, -490.0, -490.0, -490.0, -490.0, -490.0, -490.0, -490.0, -490.0, -490.0, -490.0, -490.0, -490.0, -490.0, -490.0, -490.0, -490.0, -490.0, -490.0, -490.0, -490.0, -490.0, -490.0, -490.0, -490.0, -490.0, -490.0, -490.0, -490.0, -490.0, -490.0, -490.0, -490.0, -463.0, -358.0, -267.0, -164.0, -125.0, -99.0, -81.0, -68.0, -49.0, -32.0, -19.0, -3.0, 38.0, 47.0, 76.0, 132.0, 168.0, 185.0, 227.0, 243.0, 257.0, 264.0, 271.0, 281.0, 300.0, 308.0, 320.0, 337.0, 351.0, 357.0, 367.0, 370.0, 370.0, 370.0, 370.0]	[0.0007010980698396452, 0.0051387689491093624, 0.01615768221381586, 0.03491427420885884, 0.05106751908897422, 0.06668145776711754, 0.0845952984818723, 0.10145066543191206, 0.1163969566769083, 0.13472858903332963, 0.1510767350846436, 0.16657735118860728, 0.18450211456001853, 0.20139639347689808, 0.21636282337203738, 0.23470810905200779, 0.2512265802870388, 0.26663332980751875, 0.284500749228755, 0.3014295027824119, 0.316218439496879, 0.3345831811566313, 0.3512081483058864, 0.3666384498028492, 0.38459051981772063, 0.40144179077105946, 0.41637511136286776, 0.43475691967614694, 0.4511490976874484, 0.46658076451785746, 0.4845652611729747, 0.5013673801695404, 0.5178571794313029, 0.5347238103713607, 0.5512047349729983, 0.5666387911369384, 0.5844969945646881, 0.6015175667052972, 0.6164495219636592, 0.6347255170367134, 0.6510999457314028, 0.6666145564922772, 0.6844836825766833, 0.7013393908600847, 0.7161781621980481, 0.7345845464878948, 0.7511023350598407, 0.7665613085373479, 0.7844198532984592, 0.8012479136050388, 0.8163809140241938, 0.8346285784537031, 0.8511050657252781, 0.8666268444794696, 0.8845270318706753, 0.901353385514085, 0.9163269834025414, 0.9346514477656456, 0.9509388365331688, 0.966554481874482, 0.9844263386257808, 1.001292628232477, 1.016339271391189, 1.0346466691044043, 1.0510282657924108, 1.0666469831303402, 1.0844085893077136, 1.1013492895181116, 1.1163795486900199]
35	病人	True	inanimate	animate	right	1.25	[0.0, 0.0, 0.0, 0.0, 0.0, 0.0, 0.0, 0.0, 0.0, 0.0, 0.0, 0.0, 0.0, 0.0, -3.0, -15.0, -26.0, -36.0, -42.0, -50.0, -63.0, -65.0, -75.0, -82.0, -92.0, -100.0, -109.0, -122.0, -134.0, -145.0, -157.0, -177.0, -229.0, -251.0, -326.0, -365.0, -394.0, -424.0, -453.0, -473.0, -488.0, -491.0, -498.0, -505.0, -510.0, -510.0, -510.0, -510.0, -479.0, -360.0, -214.0, -33.0, 262.0, 368.0, 573.0, 743.0, 888.0, 908.0, 923.0, 923.0, 923.0, 921.0, 918.0, 917.0, 914.0, 912.0, 902.0, 887.0, 855.0, 843.0, 808.0, 791.0, 782.0, 778.0, 778.0, 778.0]	[-490.0, -490.0, -490.0, -490.0, -490.0, -490.0, -490.0, -490.0, -490.0, -490.0, -490.0, -490.0, -490.0, -490.0, -490.0, -487.0, -482.0, -478.0, -469.0, -440.0, -398.0, -388.0, -353.0, -328.0, -306.0, -290.0, -275.0, -255.0, -235.0, -214.0, -187.0, -148.0, -67.0, -37.0, 53.0, 99.0, 138.0, 184.0, 225.0, 255.0, 285.0, 293.0, 308.0, 318.0, 328.0, 328.0, 328.0, 328.0, 330.0, 330.0, 329.0, 307.0, 294.0, 289.0, 289.0, 289.0, 295.0, 302.0, 311.0, 314.0, 319.0, 325.0, 329.0, 331.0, 335.0, 338.0, 346.0, 355.0, 373.0, 378.0, 393.0, 400.0, 405.0, 407.0, 407.0, 407.0]	[0.015089992455614265, 0.02224467435007682, 0.02840880775693222, 0.047228546365658985, 0.0635985377302859, 0.07896500995047973, 0.09700036522554001, 0.11393662810587557, 0.12880168208721443, 0.14715686642375658, 0.16367192433244782, 0.17906228986612405, 0.19699934122763807, 0.2139434547680139, 0.2288453727196611, 0.24708382115568384, 0.2636241377076658, 0.27908140451836516, 0.2969747652459773, 0.3138615348361782, 0.3287917834313703, 0.34711078646432725, 0.3636043403894291, 0.3790360072234762, 0.3967938587338722, 0.4138943028083304, 0.42863442889938597, 0.4471309251130151, 0.46365895367853227, 0.47901143124181544, 0.49701606654707575, 0.5137331936130067, 0.5288173834087502, 0.5470394478579692, 0.5635391457799415, 0.578981735267007, 0.5968935279852303, 0.6138526601789636, 0.6287962207607052, 0.6470111172166071, 0.6635268577883835, 0.6790383965526416, 0.696868610670208, 0.7138741641610977, 0.7287637941226421, 0.7470688025023264, 0.7633319566230057, 0.7790626311980304, 0.7968317467020825, 0.8139239987831388, 0.8287852981011383, 0.8470667545007018, 0.8635534817658481, 0.8790302045599674, 0.8968822639944847, 0.9138253535347758, 0.9286228235760063, 0.947156866426667, 0.963668852335104, 0.9790288392287039, 0.9970338158636878, 1.0138745054937317, 1.028768231451977, 1.0470865518182109, 1.0635326604497095, 1.07900187391715, 1.0967286641243845, 1.1138727988291066, 1.1287784714404552, 1.14711863712364, 1.163361652597814, 1.1790162099059671, 1.1969239066238515, 1.213837641524151, 1.22876720745262, 1.2470964504755102]
36	海鸥	True	animate	inanimate	left	1.001	[0.0, 0.0, 0.0, 0.0, 0.0, 0.0, 0.0, 0.0, 0.0, 0.0, 0.0, 0.0, 0.0, 0.0, 0.0, 0.0, 0.0, 0.0, 0.0, 0.0, 0.0, 0.0, 0.0, 0.0, 0.0, 0.0, 0.0, 0.0, 0.0, 0.0, 0.0, 0.0, -15.0, -40.0, -106.0, -176.0, -224.0, -239.0, -251.0, -272.0, -329.0, -397.0, -467.0, -515.0, -548.0, -568.0, -604.0, -651.0, -676.0, -723.0, -732.0, -739.0, -750.0, -761.0, -766.0, -768.0, -768.0, -768.0, -768.0, -768.0, -768.0]	[-490.0, -490.0, -490.0, -490.0, -490.0, -490.0, -490.0, -490.0, -490.0, -490.0, -490.0, -490.0, -490.0, -490.0, -490.0, -490.0, -490.0, -490.0, -490.0, -490.0, -490.0, -490.0, -490.0, -490.0, -490.0, -490.0, -490.0, -490.0, -490.0, -490.0, -490.0, -489.0, -473.0, -455.0, -427.0, -407.0, -389.0, -375.0, -336.0, -226.0, -84.0, 44.0, 134.0, 186.0, 222.0, 239.0, 276.0, 310.0, 328.0, 355.0, 362.0, 367.0, 378.0, 390.0, 396.0, 398.0, 399.0, 399.0, 399.0, 399.0, 399.0]	[0.008700579244759865, 0.013384692581894342, 0.018608112124638865, 0.03465451976444456, 0.050986281828954816, 0.06625649812849588, 0.08422017346674693, 0.10105949776334455, 0.11578187453415012, 0.13425891476799734, 0.1508831992468913, 0.16619642351361108, 0.1841665841784561, 0.20108919373888057, 0.21603207165389904, 0.23433708003358333, 0.25082073530211346, 0.2662605941259244, 0.2842201734674745, 0.30100215381389717, 0.31596414637897396, 0.33447600258296006, 0.3507633913504833, 0.36628551143803634, 0.3841908188260277, 0.40107007908954984, 0.41586515979724936, 0.43418211483367486, 0.4508415566160693, 0.4662278261530446, 0.48419286682474194, 0.5010475511080585, 0.5159672183763178, 0.5343807706631196, 0.5508644259316497, 0.5662493301351788, 0.5841669255132729, 0.6011106977202871, 0.6159737037050945, 0.6341722161741927, 0.6508046926501265, 0.6662687861207814, 0.684080226921651, 0.7011683830060065, 0.7159016824334685, 0.7342445787799079, 0.7506490447813121, 0.7661701408687804, 0.7840600882700528, 0.8009632418470574, 0.8159849676958402, 0.8342572081019171, 0.8507654393506527, 0.866167068874347, 0.8840460936153249, 0.9008983885687485, 0.9161013622615428, 0.9343459546944359, 0.950747348699224, 0.966287218103389, 0.9841044615677674]
37	书包	False	animate	inanimate	right	1.466	[0.0, 0.0, 0.0, 0.0, 0.0, 0.0, 0.0, 0.0, 0.0, 0.0, 0.0, 0.0, 0.0, 0.0, 0.0, 0.0, 0.0, 0.0, 0.0, 0.0, 0.0, 0.0, 0.0, 0.0, 1.0, 0.0, -3.0, -7.0, -8.0, -8.0, -8.0, -33.0, -67.0, -99.0, -121.0, -132.0, -137.0, -137.0, -137.0, -140.0, -148.0, -203.0, -234.0, -388.0, -506.0, -618.0, -721.0, -763.0, -768.0, -768.0, -751.0, -705.0, -608.0, -386.0, -292.0, 7.0, 193.0, 358.0, 477.0, 577.0, 637.0, 675.0, 675.0, 677.0, 680.0, 684.0, 684.0, 686.0, 686.0, 687.0, 688.0, 689.0, 690.0, 690.0, 690.0, 693.0, 694.0, 702.0, 704.0, 712.0, 715.0, 716.0, 717.0, 717.0, 717.0, 717.0, 717.0, 717.0, 717.0]	[-490.0, -490.0, -490.0, -490.0, -490.0, -490.0, -490.0, -490.0, -490.0, -490.0, -490.0, -490.0, -490.0, -490.0, -490.0, -490.0, -490.0, -490.0, -490.0, -490.0, -490.0, -490.0, -490.0, -490.0, -489.0, -459.0, -448.0, -422.0, -384.0, -256.0, -213.0, -101.0, -47.0, -14.0, 11.0, 30.0, 40.0, 47.0, 52.0, 64.0, 85.0, 135.0, 145.0, 191.0, 221.0, 241.0, 255.0, 265.0, 266.0, 266.0, 266.0, 266.0, 266.0, 266.0, 266.0, 266.0, 266.0, 268.0, 268.0, 280.0, 288.0, 296.0, 296.0, 297.0, 300.0, 303.0, 303.0, 310.0, 313.0, 316.0, 318.0, 320.0, 321.0, 323.0, 326.0, 331.0, 335.0, 349.0, 352.0, 363.0, 369.0, 373.0, 375.0, 375.0, 375.0, 375.0, 375.0, 375.0, 375.0]	[0.015720434588729404, 0.020891971507808194, 0.029720550639467547, 0.04799483904571389, 0.06497854721965268, 0.07977465192743693, 0.09813836959074251, 0.11473500609645271, 0.13005744635302108, 0.1480934842948045, 0.1648775126413966, 0.17978659858636092, 0.19812539893609937, 0.2147367127618054, 0.2300765610052622, 0.2480262416866026, 0.264919837936759, 0.2798302892151696, 0.29828480146534275, 0.3147367127603502, 0.3300755370037223, 0.34782553785771597, 0.364883315301995, 0.37981936655705795, 0.3981864975503413, 0.414643870171858, 0.4300373077057884, 0.4479552444136061, 0.4648300673470658, 0.4795572227812954, 0.498106625618675, 0.5144882223066816, 0.5300475476942665, 0.5478562578318815, 0.5649252992661786, 0.5797244759705791, 0.5980759056437819, 0.6144622809952125, 0.63002604371286, 0.6479166737808555, 0.6648945792912855, 0.6797982039097406, 0.6980680549859244, 0.7145629742408346, 0.7300891903250886, 0.7480153190299461, 0.7647106007825641, 0.7797736279280798, 0.7980922896313132, 0.8145800408929063, 0.8300519850236014, 0.8479880123850307, 0.8649003819555219, 0.8798139052269107, 0.8980813669732015, 0.9143585157507914, 0.9300270677122171, 0.9479719697337714, 0.9648392833405524, 0.9797954732421204, 0.9980701029817283, 1.014461256996583, 1.0300598356843693, 1.0476756926509552, 1.0648457686656911, 1.0797869399175397, 1.0980544016638305, 1.114400499714975, 1.1300356010397081, 1.1479361297642754, 1.1648474753310438, 1.1799361024568498, 1.1980939962959383, 1.2145421529276064, 1.2300878249952802, 1.2479480764195614, 1.2648188033563201, 1.2796514307010511, 1.2980421136744553, 1.3145513689196378, 1.330020923716802, 1.3478914151346544, 1.3648983339553524, 1.3796889773329895, 1.3980936549633043, 1.4145298649382312, 1.4300117077254981, 1.4478562578333367, 1.464904136617406]
38	蜘蛛	True	inanimate	animate	right	1.266	[0.0, 0.0, 0.0, 0.0, 0.0, 1.0, 1.0, 1.0, 1.0, 1.0, 1.0, 1.0, 1.0, 1.0, 1.0, 4.0, 6.0, 6.0, 6.0, 6.0, 6.0, 6.0, 6.0, 6.0, 6.0, 6.0, 6.0, 6.0, 6.0, 6.0, 6.0, 6.0, 6.0, 6.0, 6.0, 10.0, 25.0, 36.0, 71.0, 78.0, 98.0, 119.0, 141.0, 167.0, 181.0, 197.0, 206.0, 221.0, 259.0, 322.0, 411.0, 430.0, 474.0, 502.0, 528.0, 566.0, 595.0, 620.0, 632.0, 638.0, 641.0, 641.0, 641.0, 641.0, 647.0, 668.0, 691.0, 704.0, 706.0, 706.0, 706.0, 706.0, 706.0, 706.0, 706.0, 706.0]	[-490.0, -490.0, -490.0, -490.0, -490.0, -490.0, -490.0, -490.0, -489.0, -489.0, -488.0, -488.0, -488.0, -488.0, -488.0, -487.0, -487.0, -487.0, -487.0, -487.0, -487.0, -487.0, -487.0, -487.0, -487.0, -487.0, -487.0, -487.0, -487.0, -487.0, -487.0, -487.0, -487.0, -487.0, -487.0, -485.0, -469.0, -446.0, -378.0, -360.0, -282.0, -214.0, -130.0, -33.0, 77.0, 196.0, 306.0, 396.0, 463.0, 520.0, 540.0, 540.0, 540.0, 540.0, 538.0, 531.0, 527.0, 521.0, 516.0, 514.0, 512.0, 512.0, 512.0, 512.0, 503.0, 477.0, 453.0, 440.0, 439.0, 439.0, 439.0, 439.0, 439.0, 439.0, 439.0, 439.0]	[0.008975693675893126, 0.01375606293004239, 0.01885489591222722, 0.035048759425990283, 0.05110643105581403, 0.06674835904414067, 0.084602807808551, 0.10165307592251338, 0.11644713263376616, 0.1348176769570273, 0.15131054821540602, 0.16671627373580122, 0.1844741252498352, 0.20164317726448644, 0.21620273817461566, 0.23476238100556657, 0.2512115616336814, 0.2667282203947252, 0.28447924524516566, 0.30155886800275766, 0.31629558076383546, 0.3347862743175938, 0.35135014284969657, 0.3667521137067524, 0.38449597056387574, 0.40160870262843673, 0.41646658861645847, 0.4348709249134117, 0.45135799350828165, 0.4667183217352431, 0.48452464253932703, 0.5015144947101362, 0.5161887435206154, 0.5346971863946237, 0.5512163402963779, 0.5667193457338726, 0.5845516078516084, 0.6015885639790213, 0.6164147059935203, 0.6348712662438629, 0.6513771081590676, 0.6666855537623633, 0.6845178158800991, 0.7014902600640198, 0.7162440394749865, 0.7347415596887004, 0.7511589963469305, 0.7666753137709748, 0.7845280558722152, 0.8014363294423674, 0.8164426953044313, 0.8347459970173077, 0.8513108895494952, 0.8666855537630909, 0.8844867545740271, 0.901541460018052, 0.9164754632765835, 0.9348838955665997, 0.9511951776476053, 0.9666439111315412, 0.9845632131728053, 1.0014598814232158, 1.016489457932039, 1.034718007707852, 1.0511805003261543, 1.0666364018034074, 1.0845372718613362, 1.1014946973918995, 1.1164915059271152, 1.1347378050268162, 1.1511176950480149, 1.1666749724390684, 1.1845683331703185, 1.2015373640242615, 1.2165058419159323, 1.2347169837084948]
39	绳子	False	animate	inanimate	right	1.289	[0.0, 0.0, 0.0, 0.0, 0.0, 0.0, 0.0, 0.0, 0.0, 0.0, 0.0, 0.0, 0.0, 0.0, 0.0, 0.0, 0.0, 0.0, 0.0, 0.0, 0.0, 0.0, 0.0, 0.0, 0.0, 0.0, 0.0, 0.0, 5.0, 13.0, 15.0, 25.0, 48.0, 74.0, 78.0, 52.0, 36.0, -38.0, -105.0, -205.0, -331.0, -445.0, -492.0, -494.0, -486.0, -438.0, -273.0, -132.0, -59.0, 190.0, 331.0, 437.0, 505.0, 539.0, 553.0, 559.0, 564.0, 574.0, 584.0, 588.0, 590.0, 595.0, 605.0, 617.0, 626.0, 630.0, 631.0, 639.0, 660.0, 699.0, 748.0, 762.0, 763.0, 764.0, 764.0, 764.0, 764.0, 764.0]	[-490.0, -490.0, -490.0, -490.0, -490.0, -490.0, -490.0, -490.0, -490.0, -490.0, -490.0, -490.0, -490.0, -490.0, -490.0, -490.0, -490.0, -490.0, -490.0, -490.0, -490.0, -490.0, -490.0, -490.0, -490.0, -490.0, -490.0, -490.0, -488.0, -470.0, -441.0, -401.0, -361.0, -321.0, -264.0, -226.0, -215.0, -183.0, -155.0, -111.0, -58.0, -5.0, 36.0, 51.0, 71.0, 107.0, 192.0, 239.0, 260.0, 319.0, 340.0, 356.0, 366.0, 372.0, 376.0, 379.0, 380.0, 383.0, 385.0, 386.0, 387.0, 388.0, 390.0, 391.0, 393.0, 393.0, 394.0, 397.0, 400.0, 400.0, 405.0, 409.0, 409.0, 411.0, 411.0, 411.0, 411.0, 411.0]	[0.006967972723941784, 0.011766091294703074, 0.017968795335036702, 0.031057210831932025, 0.04727803965943167, 0.06288378634053515, 0.08082868836208945, 0.09771989528235281, 0.11268769050730043, 0.13101898153399816, 0.14728930364799453, 0.16284180237562396, 0.18087510965415277, 0.19764446068074903, 0.21259689591897768, 0.2309732429057476, 0.24761459403816843, 0.26287183968452155, 0.2808232270326698, 0.2977093139561475, 0.3125982612509688, 0.3308957603039744, 0.34749888213627855, 0.362843850376521, 0.38079421372458455, 0.39765947933119605, 0.41260167458312935, 0.43101795753318584, 0.44746747949830024, 0.4628472637050436, 0.48080820838004, 0.49767449798673624, 0.5126023572483973, 0.5309435469316668, 0.5472725783292844, 0.5627738771036093, 0.5807884110618033, 0.5976369513518875, 0.6126569705338625, 0.6308578723364917, 0.647419692872063, 0.6628394130457309, 0.6806904484801635, 0.6975533247568819, 0.7125753919390263, 0.7309544695890509, 0.7474483648475143, 0.7628926610013878, 0.7807286777788249, 0.7977635859097063, 0.8125876799276739, 0.8309462775941938, 0.8474237888658536, 0.8628786663466599, 0.8806860111508286, 0.8975963327211502, 0.9126119145730627, 0.930976656236453, 0.9474415381846484, 0.9628274663882621, 0.9807023951361771, 0.9976605033334636, 1.0126282985584112, 1.030801211050857, 1.0474469995133404, 1.0628687676871778, 1.0806593871748191, 1.0976564073353074, 1.1125716372735042, 1.1310036215472792, 1.1474005782220047, 1.1628670610225527, 1.1807047844667977, 1.1977007806308393, 1.2126078185756342, 1.230880058985349, 1.2471664237527875, 1.262866719687736]
