trialIndex	stimulus	left_option	right_option	response	response_time	xTrajectory	yTrajectory	tTrajectory
0	inanimate/n35.jpg	animate	inanimate	right	1.551	[0.0, 0.0, 0.0, 0.0, 0.0, 0.0, 0.0, 0.0, 0.0, 0.0, 0.0, 0.0, 0.0, 0.0, 0.0, 0.0, 0.0, 0.0, 0.0, 0.0, 0.0, 0.0, 0.0, 0.0, 0.0, 0.0, 0.0, 0.0, 0.0, 0.0, 0.0, 0.0, -1.0, -1.0, -1.0, -1.0, -1.0, -1.0, -1.0, -1.0, -1.0, -1.0, -1.0, -1.0, -1.0, -2.0, -2.0, -2.0, -2.0, -3.0, -3.0, -3.0, -3.0, -3.0, -3.0, -3.0, -3.0, -3.0, -3.0, -3.0, -3.0, -3.0, -3.0, -3.0, -3.0, -3.0, 0.0, 16.0, 28.0, 42.0, 66.0, 128.0, 224.0, 333.0, 502.0, 552.0, 673.0, 700.0, 760.0, 786.0, 799.0, 809.0, 815.0, 819.0, 820.0, 824.0, 828.0, 828.0, 828.0, 828.0, 828.0, 828.0, 828.0]	[-490.0, -490.0, -490.0, -490.0, -490.0, -490.0, -490.0, -490.0, -490.0, -490.0, -490.0, -490.0, -490.0, -490.0, -490.0, -490.0, -490.0, -490.0, -490.0, -490.0, -490.0, -490.0, -490.0, -490.0, -490.0, -490.0, -490.0, -490.0, -490.0, -490.0, -490.0, -490.0, -490.0, -489.0, -488.0, -488.0, -488.0, -487.0, -486.0, -484.0, -483.0, -483.0, -482.0, -482.0, -481.0, -481.0, -481.0, -481.0, -481.0, -480.0, -480.0, -480.0, -480.0, -480.0, -480.0, -479.0, -479.0, -477.0, -473.0, -463.0, -456.0, -449.0, -437.0, -417.0, -388.0, -349.0, -309.0, -242.0, -199.0, -162.0, -126.0, -74.0, -16.0, 42.0, 118.0, 140.0, 201.0, 217.0, 264.0, 296.0, 317.0, 336.0, 350.0, 358.0, 366.0, 376.0, 387.0, 392.0, 395.0, 398.0, 398.0, 398.0, 398.0]	[0.002854397564078681, 0.009143458861217368, 0.020735470305226045, 0.0368829125254706, 0.05403046056017047, 0.06996866562622017, 0.08750874665929587, 0.10330905317459838, 0.12078632892735186, 0.13663647006978863, 0.15712805791554274, 0.17035164129993063, 0.1871933549264213, 0.2035384289774811, 0.22369243844877928, 0.23687062453609542, 0.25655495973842335, 0.27069911833677907, 0.28705477371113375, 0.3035636876229546, 0.32158607224482694, 0.33708020302219666, 0.3538758366921684, 0.37010246817953885, 0.3874261440614646, 0.40353911164493184, 0.42059176909242524, 0.43678631527291145, 0.45396492461441085, 0.4702318334020674, 0.48729473083949415, 0.5035442316402623, 0.5204507985472446, 0.5367747099517146, 0.5539659486130404, 0.5703332093144127, 0.5872868801816367, 0.6037104608330992, 0.6205886970965366, 0.6369515204678464, 0.6538905140114366, 0.6701393321454816, 0.6873059948302398, 0.7037251381516398, 0.7205583184550051, 0.7370941976769245, 0.753970727277192, 0.7705141158257902, 0.787281418852217, 0.8035578849630838, 0.8206361423908675, 0.836885301858274, 0.8540570845361799, 0.8701079295060481, 0.8873080428274989, 0.903491325017967, 0.9205996197524655, 0.93678426727638, 0.954064935194765, 0.9701867774383572, 0.9872090562457743, 1.0034517303865869, 1.0205559291243844, 1.0367733446182683, 1.053913041992928, 1.0701253374900261, 1.0873063361650566, 1.1034606050452567, 1.1206375077199482, 1.1368037232605275, 1.1539543432918435, 1.170101785512088, 1.18723806955677, 1.20343910106385, 1.220491417177982, 1.2368347845658718, 1.253855356710119, 1.2702919080147694, 1.2873117974922934, 1.3035418423096417, 1.3206385317207605, 1.336947424471873, 1.3540369458860368, 1.3702564093800902, 1.3871998402537429, 1.403592359598406, 1.4205914277590637, 1.4369583471270744, 1.4539266953142942, 1.4731853882149153, 1.488652895015548, 1.506472869143181, 1.5205951824245858]
1	animate/a75.jpg	animate	inanimate	left	1.161	[0.0, 0.0, 0.0, 0.0, 0.0, 0.0, 0.0, 0.0, 0.0, 0.0, 0.0, 0.0, 0.0, 0.0, 0.0, 0.0, 0.0, 0.0, 0.0, 0.0, 0.0, 0.0, 0.0, 0.0, 0.0, 0.0, 0.0, 0.0, 0.0, 0.0, 0.0, 0.0, 0.0, 0.0, 0.0, 0.0, 0.0, 0.0, 0.0, 0.0, 5.0, 14.0, 31.0, 65.0, 104.0, 137.0, 163.0, 170.0, 160.0, 116.0, 25.0, -95.0, -230.0, -364.0, -483.0, -588.0, -687.0, -708.0, -714.0, -714.0, -714.0, -710.0, -706.0, -705.0, -705.0, -705.0, -705.0, -705.0, -705.0, -705.0]	[-490.0, -490.0, -490.0, -490.0, -490.0, -490.0, -490.0, -490.0, -490.0, -490.0, -490.0, -490.0, -490.0, -490.0, -490.0, -490.0, -490.0, -490.0, -490.0, -490.0, -490.0, -490.0, -490.0, -490.0, -490.0, -490.0, -490.0, -490.0, -490.0, -490.0, -490.0, -490.0, -490.0, -490.0, -490.0, -490.0, -490.0, -490.0, -490.0, -489.0, -488.0, -484.0, -473.0, -450.0, -412.0, -361.0, -302.0, -240.0, -169.0, -92.0, -13.0, 54.0, 116.0, 172.0, 224.0, 270.0, 327.0, 349.0, 364.0, 378.0, 391.0, 402.0, 411.0, 415.0, 419.0, 422.0, 426.0, 431.0, 431.0, 431.0]	[0.004237479046423687, 0.02182671203991049, 0.026114196378330234, 0.041489543258649064, 0.056982650039572036, 0.07733804600138683, 0.0907466318931256, 0.10726339646498673, 0.12361495584627846, 0.1405559973900381, 0.15688844211763353, 0.1739578248852922, 0.19021073901603813, 0.207265444463701, 0.2237313504119811, 0.2405908133587218, 0.2570836846207385, 0.2739175475871889, 0.2904015441890806, 0.3072623724656296, 0.3234791052964283, 0.34061095200740965, 0.35682461284159217, 0.3739909341929888, 0.39011106976977317, 0.40733336973789847, 0.42345316398495925, 0.44063450398971327, 0.4571795992051193, 0.4739875208615558, 0.49038311220283504, 0.5073442923967377, 0.5236845877880114, 0.5406194853349007, 0.5570242926696665, 0.573993664856971, 0.5903575122247275, 0.6072514498082455, 0.6237286197501817, 0.640586717363476, 0.6570686659651983, 0.6739096969286038, 0.6903906215302413, 0.7073832043643051, 0.7238115636791917, 0.7406860452792898, 0.7570812952872075, 0.7738612276370986, 0.7903540988954774, 0.8072698817923083, 0.8237927903610398, 0.8405529253905115, 0.8569986926922866, 0.8739069662624388, 0.8902305363335472, 0.9072084418476152, 0.9235029986084555, 0.9406123173430387, 0.9568587461435527, 0.97384040632096, 0.9904158801764424, 1.0071886445293785, 1.023490369287174, 1.0406348453216197, 1.056789796868543, 1.0739748915402743, 1.0901551017304882, 1.1073466817288136, 1.1234814946255938, 1.140681266617321]
2	inanimate/n45.jpg	inanimate	animate	left	1.529	[0.0, 0.0, 0.0, 0.0, 0.0, 0.0, 0.0, 0.0, 1.0, 1.0, 1.0, 1.0, 1.0, 1.0, 1.0, 1.0, 1.0, 1.0, 1.0, 1.0, 1.0, 1.0, 1.0, 1.0, 1.0, 1.0, 1.0, 2.0, 3.0, 4.0, 4.0, 7.0, 10.0, 25.0, 37.0, 44.0, 46.0, 33.0, 4.0, -28.0, -66.0, -113.0, -172.0, -247.0, -337.0, -447.0, -464.0, -463.0, -438.0, -360.0, -246.0, -111.0, 57.0, 247.0, 442.0, 578.0, 670.0, 696.0, 697.0, 688.0, 641.0, 543.0, 425.0, 290.0, 152.0, 31.0, -88.0, -205.0, -304.0, -392.0, -420.0, -442.0, -457.0, -473.0, -481.0, -486.0, -494.0, -506.0, -528.0, -573.0, -668.0, -730.0, -771.0, -794.0, -812.0, -821.0, -822.0, -822.0, -822.0, -822.0, -822.0, -822.0]	[-490.0, -490.0, -490.0, -490.0, -490.0, -490.0, -490.0, -490.0, -489.0, -488.0, -488.0, -487.0, -487.0, -485.0, -485.0, -485.0, -485.0, -484.0, -484.0, -482.0, -482.0, -482.0, -482.0, -482.0, -482.0, -479.0, -475.0, -468.0, -463.0, -459.0, -457.0, -451.0, -445.0, -419.0, -393.0, -359.0, -309.0, -251.0, -193.0, -137.0, -71.0, 5.0, 91.0, 170.0, 238.0, 318.0, 335.0, 342.0, 356.0, 376.0, 394.0, 415.0, 437.0, 450.0, 459.0, 467.0, 478.0, 487.0, 487.0, 492.0, 500.0, 516.0, 528.0, 528.0, 528.0, 528.0, 528.0, 525.0, 521.0, 510.0, 502.0, 493.0, 486.0, 479.0, 476.0, 475.0, 473.0, 471.0, 465.0, 452.0, 425.0, 406.0, 395.0, 389.0, 389.0, 389.0, 389.0, 389.0, 389.0, 389.0, 389.0, 389.0]	[0.010881014713959303, 0.016312988747813506, 0.02353525458238437, 0.03636664630175801, 0.05377326611414901, 0.06959541794640245, 0.0870447043889726, 0.10366659953797353, 0.12000484692907776, 0.1364837235341838, 0.15366369820549153, 0.1698544897226384, 0.1870522137141961, 0.20307097338081803, 0.2204045479229535, 0.23650079018625547, 0.2567432049108902, 0.26999170560520724, 0.2900549204859999, 0.3031665466296545, 0.3235615372286702, 0.33650420351477806, 0.35662646901255357, 0.36982684174654423, 0.3901648297251086, 0.4030620987214206, 0.42337926538311876, 0.4364973768570053, 0.45618102939261007, 0.46982923107862007, 0.4880994234881655, 0.5031631333004043, 0.5206721530266805, 0.5364895261955098, 0.5538463113844045, 0.5697749591236061, 0.5869194351616898, 0.6029972454416566, 0.6202376360633934, 0.6364881608642463, 0.653557543631905, 0.6699705429600726, 0.6868733552000776, 0.7033518904718221, 0.7202509480521258, 0.7366479047268513, 0.7536008929273521, 0.7699534763050906, 0.7870023790928826, 0.8030313787457999, 0.8201881427739863, 0.8365062515149475, 0.8535220449957706, 0.8697589164730744, 0.8867801712804066, 0.9033935331026441, 0.9201587881325395, 0.9364779208735854, 0.9535223863276769, 0.9697281964981812, 0.9870098884166509, 1.003055954726733, 1.020297028011555, 1.0364499315619469, 1.0535445729765343, 1.0697285378300876, 1.0868354672347778, 1.1030801893721218, 1.120154009469843, 1.1379613542740117, 1.153412135754479, 1.1697592578057083, 1.1869494724705874, 1.2033259491618082, 1.220115097501548, 1.2364902088629606, 1.253582460944017, 1.2699104683415499, 1.2868538992188405, 1.303365543793916, 1.3201789267804998, 1.3366291314086993, 1.3536326368994196, 1.3725411220984824, 1.3868450245572603, 1.4062904266320402, 1.4201587881325395, 1.439660168824048, 1.4534844983609219, 1.4709153528201568, 1.4869842884399986, 1.5036379275625222]
3	animate/a4.jpg	animate	inanimate	left	1.073	[0.0, 0.0, 0.0, 0.0, 0.0, 0.0, -2.0, -12.0, -12.0, -12.0, -12.0, -12.0, -12.0, -12.0, -12.0, -12.0, -12.0, -12.0, -12.0, -12.0, -12.0, -12.0, -12.0, -12.0, -12.0, -12.0, -12.0, -12.0, -12.0, -12.0, -8.0, 34.0, 46.0, 47.0, 48.0, 48.0, 51.0, 57.0, 68.0, 81.0, 99.0, 110.0, 102.0, 88.0, -12.0, -141.0, -290.0, -424.0, -548.0, -660.0, -741.0, -769.0, -775.0, -775.0, -778.0, -780.0, -784.0, -795.0, -806.0, -813.0, -816.0, -816.0, -816.0, -816.0]	[-490.0, -490.0, -490.0, -490.0, -490.0, -490.0, -491.0, -491.0, -491.0, -491.0, -491.0, -491.0, -491.0, -491.0, -491.0, -491.0, -491.0, -491.0, -491.0, -491.0, -491.0, -491.0, -491.0, -491.0, -491.0, -491.0, -491.0, -491.0, -491.0, -491.0, -494.0, -497.0, -497.0, -497.0, -497.0, -492.0, -483.0, -470.0, -452.0, -407.0, -326.0, -229.0, -100.0, -64.0, 53.0, 137.0, 212.0, 265.0, 315.0, 360.0, 396.0, 411.0, 420.0, 422.0, 435.0, 447.0, 459.0, 472.0, 480.0, 484.0, 485.0, 485.0, 485.0, 485.0]	[0.0018088944561895914, 0.007915342579508433, 0.018360816331551177, 0.0348311596098938, 0.05212991818189039, 0.06815925917180721, 0.08544197509036167, 0.1014143134598271, 0.1188089866154769, 0.13543804976143292, 0.15221559277779306, 0.16869754137951531, 0.18506685007741908, 0.2019048090405704, 0.21869122671705554, 0.2349932928045746, 0.2521940887963865, 0.2682927203895815, 0.28517095665301895, 0.301775785152131, 0.31886974389999523, 0.3349588181699801, 0.35218453146808315, 0.36833299768841243, 0.3854959057098313, 0.4016481265934999, 0.41843044827328413, 0.43526055658003315, 0.45188586505901185, 0.46886513590288814, 0.48521567128409515, 0.5022004034581187, 0.5186345654328761, 0.5355431803363899, 0.5519903129679733, 0.5688934665449779, 0.5851774419825233, 0.6021164355297515, 0.6185239735277719, 0.6355981349552167, 0.6518633370760654, 0.6687651253196236, 0.6850586580840172, 0.7021911874653597, 0.7182956217220635, 0.7355404496738629, 0.7517988251311181, 0.7690965597066679, 0.7850501247594366, 0.8024434325816401, 0.8183027897139254, 0.8356940495432355, 0.8517503558396129, 0.869011567778216, 0.8850545620880439, 0.9022550167428562, 0.9183853923132119, 0.9357087268617761, 0.95174523584501, 0.9715896562447597, 0.9850473940932716, 1.0051901395709137, 1.0183785656518012, 1.038654089683405]
4	animate/a67.jpg	inanimate	animate	right	1.317	[0.0, 0.0, 0.0, 0.0, 0.0, 0.0, 0.0, 0.0, 0.0, 0.0, 0.0, 0.0, 0.0, 0.0, 0.0, 0.0, 0.0, 0.0, 0.0, 0.0, 0.0, 0.0, 0.0, 0.0, 0.0, 0.0, 0.0, 0.0, 0.0, 0.0, 0.0, 0.0, 0.0, 0.0, 0.0, 0.0, 0.0, 0.0, 0.0, 1.0, 4.0, 5.0, 5.0, 5.0, -18.0, -66.0, -134.0, -285.0, -399.0, -508.0, -613.0, -719.0, -815.0, -889.0, -934.0, -944.0, -942.0, -920.0, -853.0, -671.0, -515.0, -331.0, -131.0, 71.0, 257.0, 424.0, 570.0, 718.0, 751.0, 830.0, 851.0, 859.0, 861.0, 862.0, 862.0, 863.0, 863.0, 864.0, 864.0]	[-490.0, -490.0, -490.0, -490.0, -490.0, -490.0, -490.0, -490.0, -490.0, -490.0, -490.0, -490.0, -490.0, -490.0, -490.0, -490.0, -490.0, -490.0, -490.0, -490.0, -490.0, -490.0, -490.0, -490.0, -490.0, -490.0, -490.0, -490.0, -490.0, -490.0, -490.0, -490.0, -490.0, -490.0, -490.0, -490.0, -490.0, -490.0, -490.0, -488.0, -484.0, -480.0, -469.0, -454.0, -406.0, -329.0, -238.0, -114.0, -38.0, 19.0, 66.0, 121.0, 175.0, 232.0, 276.0, 299.0, 308.0, 318.0, 331.0, 335.0, 335.0, 335.0, 334.0, 334.0, 334.0, 334.0, 334.0, 354.0, 367.0, 389.0, 398.0, 403.0, 405.0, 408.0, 408.0, 409.0, 409.0, 410.0, 410.0]	[0.012875253014499322, 0.01868098672639462, 0.024059371469775215, 0.04059866402167245, 0.05731237776126363, 0.07456539770646486, 0.09057152804598445, 0.10833518221988925, 0.12390440626768395, 0.14099563435229356, 0.15739020169348805, 0.17428413927700603, 0.190767111878813, 0.2076310121556162, 0.22394468356651487, 0.24094511706061894, 0.257450617642462, 0.27428789394252817, 0.2906964559406333, 0.3076293054909911, 0.32404367014896707, 0.3409877836893429, 0.35741409500769805, 0.3743012059312605, 0.39069167727575405, 0.40762384416302666, 0.4240385501543642, 0.4410116770050081, 0.4571393219084712, 0.47433158456988167, 0.4908073891783715, 0.5076286228249955, 0.5241016967665928, 0.5410031436767895, 0.557477582951833, 0.5743216859118547, 0.5905558267259039, 0.6075856148599996, 0.6238852916176256, 0.640895965101663, 0.6571342019124131, 0.6742954032670241, 0.690484488121001, 0.7075921001887764, 0.7237719690492668, 0.7409304397406231, 0.7571850605345389, 0.7741779847019643, 0.7904711761329963, 0.8076098495075712, 0.8239166942585143, 0.8409645730425837, 0.8571393219099264, 0.874239424651023, 0.8904790267915814, 0.9076436414798081, 0.9238071263534948, 0.9409983650148206, 0.9571816472052888, 0.9743158832498011, 0.9904906321135059, 1.0077596947121492, 1.024266219294077, 1.0409010850999039, 1.0573294444111525, 1.074376299198775, 1.090706695929839, 1.1074982336031098, 1.123995542191551, 1.1409891490220616, 1.1572785857897543, 1.17437459253415, 1.1906148773414316, 1.2075589908818074, 1.2240214835037477, 1.2409294157405384, 1.257222948504932, 1.2742336219889694, 1.2906674426303653]
5	inanimate/n28.jpg	inanimate	animate	left	2.291	[0.0, 0.0, 0.0, 0.0, 0.0, 2.0, 3.0, 3.0, 4.0, 4.0, 4.0, 4.0, 4.0, 4.0, 4.0, 4.0, 4.0, 4.0, 4.0, 4.0, 4.0, 4.0, 4.0, 4.0, 4.0, 4.0, 4.0, 4.0, 4.0, 4.0, 4.0, 4.0, 4.0, 4.0, 4.0, 4.0, 4.0, 4.0, 4.0, 6.0, 9.0, 17.0, 25.0, 29.0, 29.0, 31.0, 40.0, 58.0, 66.0, 68.0, 68.0, 51.0, 12.0, -50.0, -129.0, -209.0, -293.0, -378.0, -476.0, -619.0, -705.0, -764.0, -799.0, -816.0, -822.0, -823.0, -823.0, -823.0, -823.0, -823.0, -825.0, -825.0, -826.0, -826.0, -826.0, -826.0, -826.0, -826.0, -826.0, -823.0, -815.0, -806.0, -795.0, -780.0, -774.0, -754.0, -738.0, -730.0, -727.0, -727.0, -727.0, -727.0, -727.0, -727.0, -727.0, -727.0, -727.0, -727.0, -727.0, -727.0, -727.0, -727.0, -727.0, -727.0, -727.0, -727.0, -727.0, -729.0, -730.0, -732.0, -734.0, -734.0, -734.0, -734.0, -734.0, -734.0, -734.0, -734.0, -734.0, -734.0, -734.0, -734.0, -735.0, -735.0, -738.0, -742.0, -744.0, -745.0, -745.0, -745.0, -745.0, -745.0, -745.0, -745.0, -745.0, -745.0, -745.0, -745.0]	[-490.0, -490.0, -490.0, -490.0, -490.0, -488.0, -487.0, -487.0, -484.0, -484.0, -484.0, -484.0, -484.0, -484.0, -484.0, -484.0, -484.0, -484.0, -484.0, -484.0, -484.0, -484.0, -484.0, -484.0, -484.0, -484.0, -484.0, -484.0, -484.0, -484.0, -484.0, -484.0, -484.0, -484.0, -484.0, -484.0, -484.0, -484.0, -484.0, -484.0, -483.0, -480.0, -474.0, -471.0, -471.0, -470.0, -463.0, -450.0, -440.0, -423.0, -398.0, -348.0, -261.0, -169.0, -92.0, -30.0, 29.0, 94.0, 164.0, 258.0, 309.0, 349.0, 378.0, 395.0, 403.0, 407.0, 411.0, 414.0, 416.0, 418.0, 420.0, 422.0, 423.0, 423.0, 423.0, 424.0, 424.0, 424.0, 425.0, 426.0, 426.0, 426.0, 426.0, 426.0, 426.0, 426.0, 426.0, 426.0, 426.0, 426.0, 426.0, 426.0, 426.0, 426.0, 426.0, 426.0, 426.0, 426.0, 426.0, 426.0, 426.0, 426.0, 426.0, 426.0, 426.0, 426.0, 426.0, 426.0, 426.0, 426.0, 426.0, 426.0, 426.0, 426.0, 426.0, 426.0, 426.0, 426.0, 426.0, 426.0, 426.0, 426.0, 426.0, 426.0, 426.0, 426.0, 426.0, 426.0, 426.0, 426.0, 426.0, 426.0, 426.0, 426.0, 426.0, 426.0, 426.0, 426.0]	[0.0147925207093067, 0.0200343722353864, 0.027746450985432602, 0.044781017782952404, 0.06096395864005899, 0.07816338929842459, 0.09432585017202655, 0.11146145154998521, 0.12763005642045755, 0.14482846307873842, 0.16100799060222926, 0.1780749840399949, 0.19432858083746396, 0.21150172884881613, 0.22791541084370692, 0.244823001747136, 0.26114623048488284, 0.27809648802212905, 0.2945443033204356, 0.3113443743168318, 0.32775464297810686, 0.3448332417392521, 0.36401991336606443, 0.3780538213904947, 0.3974941034684889, 0.41141298225920764, 0.4308331256870588, 0.44473493782425066, 0.46150872617727146, 0.47820332526316633, 0.49717700507244444, 0.5113679262976802, 0.5289196126541356, 0.544834607073426, 0.5615616327995667, 0.5778527762304293, 0.5942886448719946, 0.611191115782276, 0.6308815949778364, 0.6442871088729589, 0.6625658346092678, 0.6777182910118427, 0.6952597373747267, 0.7111832651207806, 0.7278389522398356, 0.7445093166825245, 0.7615162355032226, 0.7778619922210055, 0.7948187350848457, 0.8109692493017064, 0.8281976932667021, 0.844381999457255, 0.8614257822482614, 0.8778343442463665, 0.8949839402775979, 0.9111702944646822, 0.9280352187415701, 0.9444953220263415, 0.9614957555204455, 0.977724776337709, 0.994775385788671, 1.0109859746225993, 1.028123965330451, 1.0442464902407664, 1.0613421556518006, 1.07763090975277, 1.0947378391538223, 1.1111945291122538, 1.128135911989375, 1.1446093272643338, 1.16142714758098, 1.1778630162225454, 1.194752516476001, 1.211195894444245, 1.2280894906944013, 1.2445355993259, 1.261469131542981, 1.2779975014382217, 1.2947163351709605, 1.3111979424429592, 1.3280642320496554, 1.344289156870218, 1.3614739102049498, 1.3776042857753055, 1.3948112257567118, 1.4109405773269827, 1.4280539920582669, 1.444278575545468, 1.4614701555437932, 1.4778510695650766, 1.4947948417720909, 1.5112119370969594, 1.5281420559840626, 1.5443359194978257, 1.5614715208757843, 1.577886909533845, 1.5948020097675908, 1.6111996491054015, 1.6281410319825227, 1.644534916660632, 1.6614735688744986, 1.6779073895158945, 1.6947545644725324, 1.711377483621618, 1.7281294266613259, 1.7445919192796282, 1.7614336329061189, 1.7779739494581008, 1.7947429591513355, 1.8110337612488365, 1.8281174800031295, 1.844320559510379, 1.8614885875285836, 1.877613501768792, 1.894809519093542, 1.9109398946602596, 1.92814990664192, 1.9442956421989948, 1.9615216968304594, 1.9776261310908012, 1.9949108950058871, 2.0109576439790544, 2.0280655973801913, 2.044373466131219, 2.061448310229025, 2.0776370537460025, 2.094855940387788, 2.1111747317954723, 2.128061501385673, 2.144344452823134, 2.1614971208546194, 2.1777159016783116, 2.1947706071259745, 2.211236854407616, 2.228146151977853, 2.247182978400815, 2.261345568982506, 2.2790375432196015]
6	inanimate/n63.jpg	inanimate	animate	left	1.246	[0.0, 0.0, 0.0, 0.0, 0.0, 0.0, 0.0, 0.0, 0.0, 0.0, 0.0, 0.0, 0.0, 0.0, 0.0, 0.0, 0.0, 0.0, 0.0, 0.0, 0.0, 0.0, 0.0, 0.0, 0.0, 0.0, 0.0, -1.0, 0.0, 0.0, 2.0, 3.0, 5.0, 7.0, 7.0, 9.0, 9.0, 8.0, 8.0, 6.0, 4.0, -6.0, -15.0, -25.0, -33.0, -47.0, -72.0, -120.0, -204.0, -309.0, -416.0, -503.0, -559.0, -584.0, -587.0, -587.0, -587.0, -587.0, -587.0, -587.0, -587.0, -589.0, -594.0, -608.0, -624.0, -646.0, -687.0, -716.0, -736.0, -750.0, -754.0, -754.0, -754.0, -754.0, -754.0]	[-490.0, -490.0, -490.0, -490.0, -490.0, -490.0, -490.0, -490.0, -490.0, -490.0, -490.0, -490.0, -490.0, -490.0, -490.0, -490.0, -490.0, -490.0, -490.0, -490.0, -490.0, -490.0, -490.0, -490.0, -490.0, -490.0, -490.0, -489.0, -477.0, -473.0, -443.0, -424.0, -409.0, -397.0, -387.0, -375.0, -364.0, -355.0, -348.0, -339.0, -321.0, -285.0, -255.0, -213.0, -145.0, -50.0, 49.0, 170.0, 282.0, 374.0, 431.0, 472.0, 497.0, 508.0, 509.0, 509.0, 509.0, 509.0, 509.0, 509.0, 509.0, 509.0, 509.0, 502.0, 488.0, 469.0, 441.0, 430.0, 425.0, 421.0, 420.0, 420.0, 419.0, 419.0, 419.0]	[0.009006242980831303, 0.019441135409579147, 0.03347743276754045, 0.04981738682181458, 0.06681952697908855, 0.08294102788931923, 0.10030873573487042, 0.11666951110964874, 0.13334670221229317, 0.14986995211074827, 0.16686287627817364, 0.18357829668093473, 0.2008098126425466, 0.21647460994063294, 0.23351463806829997, 0.2502310824711458, 0.26661267915551434, 0.28616218780734926, 0.3001858558418462, 0.31667224177363096, 0.3334470541267365, 0.35097996716285706, 0.3668939375820628, 0.3831666490295902, 0.3998981120857934, 0.4185451361736341, 0.43328287293115864, 0.4513469001831254, 0.46639627400872996, 0.48460673313456937, 0.500107349242171, 0.5170958360795339, 0.533504398077639, 0.5505191675583774, 0.5666614897818363, 0.5838254218033399, 0.5999923200070043, 0.6167688390232797, 0.633456611449219, 0.6502447357925121, 0.666683335097332, 0.6834864780903445, 0.6998206294847478, 0.7169186842293129, 0.7333770808509144, 0.7501873918408819, 0.7666611484492023, 0.7835598646961444, 0.7998066348300199, 0.8168306203042448, 0.8333296355594939, 0.8502167464830563, 0.8667440923782124, 0.8835346060513984, 0.8998619307858462, 0.9168790895964776, 0.9331459983804962, 0.9502174291483243, 0.966502769919316, 0.9834748727662372, 0.9998168748243188, 1.0168340336349502, 1.0330654437857447, 1.0501385812167428, 1.0663996873372525, 1.083520952728577, 1.0997356375592062, 1.1168504176202987, 1.1331050384178525, 1.1503300690528704, 1.1664188019894937, 1.1835584993641532, 1.1997653335347422, 1.2168999109126162, 1.233243278300506]
7	animate/a60.jpg	animate	inanimate	left	1.131	[0.0, 0.0, 0.0, 0.0, 0.0, 0.0, 0.0, 0.0, 0.0, 0.0, 0.0, 0.0, 0.0, 0.0, 0.0, 0.0, 0.0, 0.0, 0.0, 0.0, 0.0, 0.0, 0.0, 0.0, 0.0, 0.0, 0.0, 0.0, 0.0, 0.0, 0.0, 0.0, 0.0, 0.0, 0.0, 0.0, 0.0, -19.0, -43.0, -95.0, -169.0, -244.0, -313.0, -375.0, -439.0, -505.0, -545.0, -567.0, -578.0, -592.0, -600.0, -610.0, -619.0, -629.0, -637.0, -644.0, -650.0, -658.0, -668.0, -679.0, -693.0, -700.0, -705.0, -708.0, -711.0, -712.0, -712.0, -712.0]	[-490.0, -490.0, -490.0, -490.0, -490.0, -490.0, -490.0, -490.0, -490.0, -490.0, -490.0, -490.0, -490.0, -490.0, -490.0, -490.0, -490.0, -490.0, -490.0, -490.0, -490.0, -490.0, -490.0, -490.0, -490.0, -488.0, -488.0, -488.0, -488.0, -487.0, -487.0, -487.0, -487.0, -487.0, -485.0, -484.0, -480.0, -467.0, -448.0, -413.0, -358.0, -281.0, -178.0, -74.0, 39.0, 129.0, 183.0, 214.0, 233.0, 254.0, 268.0, 284.0, 296.0, 308.0, 319.0, 326.0, 335.0, 344.0, 353.0, 363.0, 378.0, 387.0, 395.0, 399.0, 407.0, 409.0, 410.0, 410.0]	[0.0034460983915778343, 0.008280398265924305, 0.02217435974307591, 0.038668255001539364, 0.055871440319606336, 0.07201819987676572, 0.08918759322477854, 0.1053531260949967, 0.12265461533388589, 0.13871160429698648, 0.1558646136581956, 0.17224006635296973, 0.18909406796956318, 0.20574702442536363, 0.22250272212841082, 0.241907505569543, 0.2557666510765557, 0.2748065494961338, 0.28908553464498254, 0.30811177974101156, 0.3224330901866779, 0.3396608514885884, 0.35584720567567274, 0.3720953411429946, 0.38888005215267185, 0.40843433946793084, 0.4222702743281843, 0.4402694482996594, 0.45534339810546953, 0.4725360021002416, 0.48893091077479767, 0.5058890189720842, 0.5222839276466402, 0.5389594120861148, 0.5555328379414277, 0.5724721728220175, 0.5889698227438203, 0.6057746724036406, 0.6222504770084925, 0.6392341851824312, 0.6553218941226078, 0.6724622741639905, 0.6889169161222526, 0.7056790991518938, 0.7222395543540188, 0.7391218866141571, 0.7553468114347197, 0.7724755861527228, 0.7889117961276497, 0.8058630776613427, 0.8220211012048821, 0.8392290651900112, 0.8553461287701793, 0.8723981035509496, 0.8890015667166153, 0.9057412217662204, 0.9220890264805348, 0.9390781959846208, 0.9553352061120677, 0.9724810474799597, 0.9886841269872093, 1.005804368378449, 1.0219125572984922, 1.039183667893667, 1.055346128767269, 1.0725069887921563, 1.0887080202992365, 1.105809829707141]
8	animate/a15.jpg	animate	inanimate	left	1.282	[0.0, 0.0, 0.0, 0.0, 0.0, 0.0, 0.0, 0.0, -1.0, -1.0, -2.0, -3.0, -4.0, -6.0, -6.0, -6.0, -6.0, -6.0, -6.0, -8.0, -9.0, -9.0, -10.0, -12.0, -13.0, -19.0, -21.0, -25.0, -27.0, -29.0, -33.0, -37.0, -43.0, -49.0, -55.0, -69.0, -86.0, -124.0, -137.0, -147.0, -150.0, -155.0, -162.0, -171.0, -187.0, -216.0, -260.0, -326.0, -392.0, -439.0, -491.0, -506.0, -507.0, -507.0, -508.0, -510.0, -514.0, -524.0, -536.0, -561.0, -596.0, -638.0, -694.0, -718.0, -727.0, -732.0, -735.0, -739.0, -743.0, -750.0, -756.0, -759.0, -759.0, -759.0, -759.0, -759.0, -759.0]	[-490.0, -490.0, -490.0, -490.0, -490.0, -490.0, -490.0, -490.0, -490.0, -490.0, -490.0, -489.0, -489.0, -489.0, -489.0, -489.0, -489.0, -489.0, -488.0, -488.0, -487.0, -487.0, -486.0, -484.0, -482.0, -473.0, -471.0, -461.0, -454.0, -449.0, -441.0, -428.0, -406.0, -387.0, -366.0, -334.0, -301.0, -243.0, -227.0, -203.0, -189.0, -172.0, -153.0, -128.0, -105.0, -75.0, -42.0, 4.0, 40.0, 55.0, 69.0, 74.0, 74.0, 74.0, 77.0, 84.0, 94.0, 108.0, 124.0, 148.0, 179.0, 213.0, 254.0, 274.0, 286.0, 298.0, 310.0, 323.0, 335.0, 347.0, 354.0, 357.0, 358.0, 358.0, 358.0, 358.0, 358.0]	[0.0003607890284911264, 0.005499216644238913, 0.015458973477507243, 0.0325300629119738, 0.04884817165293498, 0.06599162369093392, 0.08224487915504142, 0.09928763794232509, 0.11559857869360712, 0.13256590288074221, 0.1488990302750608, 0.16581378917544498, 0.1850752127393207, 0.19921868867095327, 0.21717929200895014, 0.23253347624267917, 0.250104959912278, 0.2658537251409143, 0.2826459454772703, 0.29913472074258607, 0.31559072803065646, 0.33227133246327867, 0.35202666493933066, 0.3658175438395119, 0.3841662428494601, 0.39905860347425914, 0.4171045400726143, 0.43233447907914524, 0.4500612692827417, 0.46585474914172664, 0.4828732732858043, 0.49914837406322476, 0.5160054476764344, 0.5323467670677928, 0.5491137287608581, 0.5657185572563321, 0.5829312999012473, 0.5987783690470678, 0.6160665462921315, 0.6321054446052585, 0.6492652806300612, 0.6657595172218862, 0.6826937321056903, 0.6990118408466515, 0.7159122637567634, 0.7323337964116945, 0.749199062018306, 0.7657250425836537, 0.7826019135172828, 0.7990889821121527, 0.8158815437855083, 0.8323791937073111, 0.8492031580171897, 0.8657772665392258, 0.8824735722919286, 0.8990862514474429, 0.9158965624374105, 0.9325095829262864, 0.9493055579296197, 0.9655287760833744, 0.9826275134946627, 0.9988111370184924, 1.0158562851393071, 1.0321136366001156, 1.0492564059713914, 1.065510344102222, 1.082636729486694, 1.0987930463670637, 1.115920797084982, 1.1321269485888479, 1.149257429970021, 1.165462557473802, 1.1826189801686269, 1.1988097716857737, 1.2159614157171745, 1.2321911192011612, 1.2491413767347694]
9	animate/a62.jpg	animate	inanimate	left	1.448	[0.0, 0.0, 0.0, 0.0, 0.0, 0.0, 0.0, 0.0, 0.0, 0.0, 0.0, 0.0, 0.0, 0.0, 0.0, 0.0, 0.0, 0.0, 0.0, 0.0, 0.0, 0.0, 0.0, 0.0, 0.0, 0.0, 1.0, 1.0, 2.0, 2.0, 2.0, 4.0, 4.0, 5.0, 6.0, 7.0, 8.0, 9.0, 9.0, 9.0, 9.0, 9.0, 9.0, 9.0, -1.0, -22.0, -69.0, -126.0, -189.0, -273.0, -343.0, -425.0, -466.0, -509.0, -555.0, -601.0, -646.0, -668.0, -681.0, -697.0, -714.0, -735.0, -775.0, -800.0, -834.0, -860.0, -880.0, -892.0, -899.0, -903.0, -904.0, -905.0, -905.0, -905.0, -904.0, -880.0, -860.0, -843.0, -828.0, -808.0, -787.0, -771.0, -764.0, -764.0, -764.0, -764.0, -763.0, -762.0]	[-490.0, -490.0, -490.0, -490.0, -490.0, -490.0, -490.0, -490.0, -490.0, -490.0, -490.0, -490.0, -490.0, -490.0, -490.0, -490.0, -489.0, -488.0, -487.0, -486.0, -485.0, -485.0, -484.0, -483.0, -480.0, -480.0, -478.0, -476.0, -474.0, -472.0, -470.0, -468.0, -466.0, -464.0, -462.0, -459.0, -456.0, -448.0, -433.0, -416.0, -404.0, -384.0, -348.0, -307.0, -264.0, -211.0, -121.0, -39.0, 36.0, 114.0, 174.0, 244.0, 284.0, 320.0, 358.0, 390.0, 416.0, 429.0, 436.0, 445.0, 455.0, 467.0, 487.0, 497.0, 510.0, 516.0, 519.0, 520.0, 521.0, 521.0, 522.0, 522.0, 522.0, 522.0, 519.0, 501.0, 486.0, 477.0, 470.0, 465.0, 460.0, 455.0, 454.0, 454.0, 454.0, 454.0, 454.0, 454.0]	[0.008076963775238255, 0.014067017331399256, 0.018793114631989738, 0.03176513556172722, 0.04800166570930742, 0.06501745918649249, 0.08128368530742591, 0.09827217214478878, 0.11453839826208423, 0.13081793636956718, 0.14764429001297685, 0.1671801453412627, 0.18078329106720048, 0.20099737515192828, 0.2143708037401666, 0.23393806170861353, 0.24774020459881285, 0.267337158540613, 0.28095498158654664, 0.2978786151470558, 0.31437285173888085, 0.33443743194948183, 0.34774361792733544, 0.36768019824739895, 0.38104202151225763, 0.40046114094366203, 0.41437319307078724, 0.43408449358321377, 0.447528236778453, 0.4671678573540703, 0.48092630961036775, 0.5005642235228152, 0.5143445210960635, 0.5339820936715114, 0.5476845673110802, 0.5654523174816859, 0.5809160696226172, 0.5982725134781504, 0.6143735344048764, 0.6337103925689007, 0.647686956643156, 0.6654758694639895, 0.6810444108450611, 0.6978752018148953, 0.714136307939043, 0.7312230986935901, 0.7477757032356749, 0.7645402755952091, 0.7808225443659467, 0.7979093351204938, 0.8143643184121174, 0.8312684959855687, 0.847743959260697, 0.8647280087679974, 0.8808123043745582, 0.8978932924655965, 0.914376606400765, 0.9311988640474738, 0.9477610259127687, 0.9647116247833765, 0.9807665657499456, 0.9980544016616477, 1.0144960729667218, 1.0312906826329709, 1.0474439275167242, 1.0647211821087694, 1.0807962617218436, 1.0979209404431458, 1.1141588359205343, 1.1312521120016754, 1.14774020459663, 1.1646580354936305, 1.1807563257571019, 1.1979021671249939, 1.2144121050368994, 1.231194085383322, 1.247762732578849, 1.2646286808521836, 1.280828005696094, 1.297897047130391, 1.3141721479078114, 1.33126098665889, 1.3474377835227642, 1.364584648890741, 1.3807805604046735, 1.3979878417194413, 1.4141301639465382, 1.431217978697532]
10	animate/a80.jpg	animate	inanimate	left	0.924	[0.0, 0.0, 0.0, 0.0, 0.0, 0.0, 0.0, 0.0, 0.0, 0.0, 0.0, 0.0, 0.0, 0.0, 0.0, 0.0, 0.0, 0.0, -2.0, -2.0, -2.0, -2.0, -3.0, -4.0, -4.0, -4.0, -3.0, -1.0, 4.0, 2.0, -24.0, -62.0, -104.0, -160.0, -223.0, -344.0, -392.0, -532.0, -580.0, -690.0, -729.0, -745.0, -753.0, -760.0, -766.0, -771.0, -776.0, -779.0, -782.0, -786.0, -787.0, -788.0, -788.0, -788.0, -788.0, -788.0]	[-490.0, -490.0, -490.0, -490.0, -490.0, -490.0, -489.0, -489.0, -489.0, -488.0, -488.0, -488.0, -487.0, -486.0, -485.0, -485.0, -484.0, -482.0, -481.0, -478.0, -476.0, -472.0, -468.0, -460.0, -448.0, -425.0, -407.0, -389.0, -339.0, -297.0, -242.0, -185.0, -127.0, -74.0, -25.0, 50.0, 76.0, 162.0, 192.0, 257.0, 285.0, 299.0, 309.0, 320.0, 333.0, 343.0, 353.0, 358.0, 366.0, 379.0, 382.0, 390.0, 394.0, 397.0, 397.0, 397.0]	[0.011023350594769, 0.016120135580422357, 0.022116674463177333, 0.036896053850796307, 0.05310971468134085, 0.0703862866066629, 0.08647263021339313, 0.10373827947842074, 0.12048817451795912, 0.1368765978659212, 0.15351146367174806, 0.1703115346681443, 0.1872293655651447, 0.2039639006179641, 0.22044516655660118, 0.23836276193105732, 0.25350395434361417, 0.27044260655748076, 0.28661018742786837, 0.3037601247924613, 0.3203956732650113, 0.33887680949192145, 0.35322645058113267, 0.3703818492758728, 0.3865555741394928, 0.4037041461742774, 0.41994067631821963, 0.43723568022687687, 0.4532738958732807, 0.47043680389469955, 0.48660916342851124, 0.5039266953172046, 0.5199188310034515, 0.5370387310613296, 0.5532786745388876, 0.5703453266396536, 0.5866996166842, 0.603686396854755, 0.6200929108563287, 0.6370793496935221, 0.6561390454298817, 0.6703453266418364, 0.6895384835952427, 0.7038150794141984, 0.7231358949247806, 0.737011424418597, 0.7540149299093173, 0.770463427874347, 0.7894883076369297, 0.8036785461954423, 0.8230311056831852, 0.8370138137506729, 0.8543651376094203, 0.870481859856227, 0.8872167362424079, 0.9034781836999173]
11	inanimate/n10.jpg	inanimate	animate	left	1.612	[0.0, 0.0, 0.0, 0.0, 0.0, 0.0, 0.0, 0.0, 0.0, 0.0, 0.0, 0.0, 0.0, 0.0, 0.0, 0.0, 0.0, 0.0, 0.0, 0.0, 0.0, -2.0, -10.0, -19.0, -28.0, -32.0, -37.0, -39.0, -39.0, -40.0, -40.0, -30.0, -5.0, 14.0, 18.0, 18.0, 18.0, 18.0, 18.0, 23.0, 28.0, 27.0, 19.0, 11.0, 4.0, -4.0, -24.0, -56.0, -96.0, -143.0, -197.0, -242.0, -289.0, -369.0, -415.0, -461.0, -498.0, -527.0, -542.0, -552.0, -556.0, -558.0, -558.0, -558.0, -558.0, -558.0, -553.0, -531.0, -485.0, -410.0, -331.0, -239.0, -117.0, 5.0, 70.0, 81.0, 82.0, 62.0, 17.0, -64.0, -160.0, -282.0, -398.0, -507.0, -582.0, -616.0, -635.0, -637.0, -638.0, -639.0, -642.0, -648.0, -657.0, -666.0, -671.0, -673.0, -673.0]	[-490.0, -490.0, -490.0, -490.0, -490.0, -490.0, -490.0, -490.0, -490.0, -490.0, -490.0, -490.0, -490.0, -490.0, -490.0, -490.0, -490.0, -490.0, -490.0, -490.0, -490.0, -490.0, -492.0, -497.0, -500.0, -502.0, -504.0, -505.0, -505.0, -505.0, -505.0, -504.0, -491.0, -478.0, -476.0, -476.0, -476.0, -476.0, -476.0, -472.0, -469.0, -451.0, -433.0, -407.0, -381.0, -348.0, -295.0, -213.0, -126.0, -51.0, 26.0, 91.0, 152.0, 247.0, 286.0, 316.0, 339.0, 356.0, 364.0, 370.0, 373.0, 374.0, 374.0, 374.0, 374.0, 374.0, 374.0, 370.0, 358.0, 342.0, 327.0, 316.0, 295.0, 281.0, 281.0, 281.0, 281.0, 281.0, 281.0, 281.0, 285.0, 301.0, 319.0, 335.0, 352.0, 360.0, 367.0, 367.0, 369.0, 370.0, 373.0, 378.0, 382.0, 385.0, 387.0, 387.0, 387.0]	[0.0101299113521236, 0.01563458932287176, 0.023600961190823, 0.035512801692675566, 0.05179029180362704, 0.06879447995743249, 0.08791766364083742, 0.10207547555910423, 0.11889261320902733, 0.13520355395667139, 0.1517162225318316, 0.1684729442349635, 0.18880342288321117, 0.20213998750477913, 0.21862671476992546, 0.23517112731860834, 0.25512750495545333, 0.2688661598986073, 0.28532967651699437, 0.3021795821368869, 0.3190834183806146, 0.3351718099838763, 0.3531600612986949, 0.36845109891874017, 0.38671719533158466, 0.4018047984573059, 0.4189472264952201, 0.43527625789283775, 0.4522241261001909, 0.4686337120947428, 0.48551604435488116, 0.5020389529236127, 0.5187970399565529, 0.5353158525285835, 0.5521753154753242, 0.5683657656591095, 0.5855157030237024, 0.6019956036288932, 0.6188093279452005, 0.6351690793198941, 0.6521650754839357, 0.668705050702556, 0.685557004322618, 0.7020976622079615, 0.718765978650481, 0.7353083431989944, 0.7520643822354032, 0.7686265441006981, 0.785427639097179, 0.8017788571451092, 0.8188612105695938, 0.8350410794300842, 0.8521811181344674, 0.8683777123151231, 0.8855245776830998, 0.9017911451337568, 0.9188468745815044, 0.9350301567719725, 0.9522186647700437, 0.9683903416371322, 0.9855873829619668, 1.0017436998423364, 1.0188820318835496, 1.0350363007673877, 1.0521869207987038, 1.0683640589923016, 1.0854784977236704, 1.1018174277778598, 1.1189137758556171, 1.1350567807494372, 1.1522514327407407, 1.1685207308582903, 1.1855928442892036, 1.2017788571465644, 1.2188915892111254, 1.2352520232489042, 1.2520937368753948, 1.2685610081571213, 1.2854747430574207, 1.3019662489859911, 1.3187475466656906, 1.3353185831911105, 1.3521930647912086, 1.3689651464810595, 1.3855829456333595, 1.4046870146630681, 1.418751983994298, 1.4378041704039788, 1.4521186541896896, 1.4709960780819529, 1.4854163751078886, 1.5045607214378833, 1.518759834656521, 1.537967668929923, 1.552194771458744, 1.5701775614470534, 1.5854784977236704]
12	inanimate/n2.jpg	inanimate	animate	left	1.286	[0.0, 0.0, 0.0, 0.0, 0.0, 0.0, 0.0, 0.0, 0.0, 0.0, 0.0, 0.0, 0.0, 0.0, 0.0, 0.0, 0.0, 0.0, 0.0, 0.0, 0.0, 0.0, 0.0, 0.0, 0.0, 0.0, 0.0, 0.0, 0.0, 0.0, 0.0, 0.0, 0.0, -1.0, -1.0, -1.0, -5.0, -14.0, -27.0, -53.0, -92.0, -152.0, -208.0, -273.0, -354.0, -419.0, -475.0, -512.0, -556.0, -609.0, -666.0, -717.0, -745.0, -749.0, -749.0, -749.0, -736.0, -681.0, -579.0, -471.0, -388.0, -350.0, -344.0, -344.0, -349.0, -394.0, -425.0, -559.0, -644.0, -726.0, -786.0, -815.0, -833.0, -836.0, -836.0, -836.0, -836.0, -836.0]	[-490.0, -490.0, -490.0, -490.0, -490.0, -490.0, -490.0, -490.0, -490.0, -490.0, -490.0, -490.0, -490.0, -490.0, -490.0, -490.0, -490.0, -490.0, -490.0, -490.0, -490.0, -490.0, -490.0, -490.0, -490.0, -490.0, -490.0, -490.0, -490.0, -490.0, -490.0, -490.0, -490.0, -490.0, -489.0, -484.0, -478.0, -462.0, -434.0, -367.0, -273.0, -127.0, -33.0, 67.0, 159.0, 232.0, 287.0, 328.0, 368.0, 407.0, 447.0, 478.0, 495.0, 496.0, 496.0, 497.0, 497.0, 497.0, 490.0, 476.0, 471.0, 471.0, 472.0, 473.0, 473.0, 470.0, 465.0, 459.0, 456.0, 456.0, 456.0, 456.0, 456.0, 456.0, 456.0, 456.0, 456.0, 456.0]	[0.008200014333851868, 0.013384521909756586, 0.01999272960529197, 0.031788175539986696, 0.04973444289134932, 0.06519956036208896, 0.08132447460229741, 0.0985904652006866, 0.11616399687409285, 0.13199126869949396, 0.14819980953689083, 0.1649227392663306, 0.18503749543378945, 0.19818598554775235, 0.2179181073770451, 0.2314417225024954, 0.2513981001393404, 0.2648589099844685, 0.2818153115185851, 0.298194177539699, 0.31518061637689243, 0.3314263625143212, 0.3487848543700238, 0.36475889940629713, 0.3819231727575243, 0.39809894562131376, 0.4153205629263539, 0.4318212848447729, 0.44866709447160247, 0.4649991978658363, 0.48196447405643994, 0.4983191054343479, 0.5153697148853098, 0.5317813488800311, 0.548601899859932, 0.564983155214577, 0.5819665220551542, 0.5983211534330621, 0.6152546856501431, 0.6314239731837006, 0.6486346678320842, 0.6650340138367028, 0.6819043994401, 0.6983276387582009, 0.7153772242090781, 0.7314697118126787, 0.7486930357808887, 0.7647855233808514, 0.7819013274420286, 0.7984952332844841, 0.8152505896505318, 0.8317772528826026, 0.8485981451958651, 0.8649940778705059, 0.8819016687775729, 0.8983071587754239, 0.9153676668865955, 0.9314147571931244, 0.9486196491779992, 0.9650046591959835, 0.9819252207562386, 0.9983812280479469, 1.0153072509383492, 1.031583717049216, 1.048504278609471, 1.0647616300702794, 1.0818897221215593, 1.0980982629553182, 1.1153301202502917, 1.1314652744804334, 1.1485722038851236, 1.1647500247454445, 1.1819354607468995, 1.1981276175974926, 1.2152714109688532, 1.231439674502326, 1.248599169193767, 1.2648305793445616]
13	inanimate/n48.jpg	animate	inanimate	right	1.475	[0.0, 0.0, 0.0, 0.0, 0.0, 0.0, 0.0, 0.0, 0.0, 0.0, 0.0, 0.0, 0.0, 0.0, 0.0, 0.0, 0.0, 0.0, 0.0, 0.0, 0.0, 0.0, 0.0, -1.0, -3.0, -4.0, -5.0, -7.0, -12.0, -16.0, -17.0, -20.0, -28.0, -39.0, -46.0, -71.0, -91.0, -118.0, -155.0, -196.0, -248.0, -307.0, -363.0, -414.0, -448.0, -474.0, -494.0, -509.0, -521.0, -525.0, -527.0, -530.0, -530.0, -530.0, -528.0, -523.0, -514.0, -482.0, -414.0, -330.0, -222.0, -33.0, 103.0, 238.0, 362.0, 476.0, 583.0, 678.0, 769.0, 829.0, 870.0, 893.0, 909.0, 920.0, 925.0, 925.0, 925.0, 925.0, 922.0, 914.0, 902.0, 884.0, 864.0, 851.0, 840.0, 831.0, 827.0, 826.0, 826.0]	[-490.0, -490.0, -490.0, -490.0, -490.0, -490.0, -490.0, -490.0, -490.0, -490.0, -490.0, -490.0, -490.0, -490.0, -490.0, -490.0, -490.0, -490.0, -489.0, -489.0, -487.0, -487.0, -484.0, -482.0, -478.0, -476.0, -471.0, -466.0, -455.0, -446.0, -443.0, -435.0, -418.0, -380.0, -362.0, -306.0, -270.0, -229.0, -186.0, -140.0, -87.0, -27.0, 20.0, 63.0, 90.0, 109.0, 124.0, 135.0, 146.0, 153.0, 159.0, 164.0, 167.0, 171.0, 174.0, 178.0, 182.0, 183.0, 182.0, 171.0, 157.0, 141.0, 141.0, 141.0, 141.0, 141.0, 152.0, 165.0, 186.0, 203.0, 216.0, 228.0, 242.0, 260.0, 271.0, 275.0, 281.0, 286.0, 294.0, 306.0, 322.0, 340.0, 356.0, 367.0, 374.0, 382.0, 386.0, 386.0, 386.0]	[0.010233335262455512, 0.015179251044173725, 0.02086517685893341, 0.0356083749429672, 0.05175035583670251, 0.06904262907846714, 0.08571708951785695, 0.10207649955918896, 0.11861237878110842, 0.1355827749648597, 0.15204321958663058, 0.1690910983706999, 0.18517983131096116, 0.20235536865220638, 0.21854411217282177, 0.23568654021073598, 0.25185446241448517, 0.26899006379244383, 0.28517846597605967, 0.30226116073390585, 0.3185779041450587, 0.33564626291263266, 0.35185036641632905, 0.3690248797611275, 0.3851958739614929, 0.40230724069624557, 0.4185318241834466, 0.43568278554812423, 0.4534361997320957, 0.4688422665858525, 0.4852201086105197, 0.5022836887146696, 0.5185656161556835, 0.5355592229861941, 0.5521688301450922, 0.5688709385613038, 0.585416716439795, 0.6024420672474662, 0.6215222429636924, 0.6357783587991435, 0.6549943850695854, 0.6689262345134921, 0.687857247692591, 0.7022516034085129, 0.7198026070982451, 0.7357885987912596, 0.7522271980960795, 0.7687818506346957, 0.7852426365898282, 0.8022249794303207, 0.8187516426623915, 0.8354435110850318, 0.8519449156701739, 0.8687920906268118, 0.8851753939816263, 0.9019433796711382, 0.9187253600175609, 0.935443169750215, 0.9521261635163683, 0.968634394761466, 0.9858894627031987, 1.002111315527145, 1.0189871624606894, 1.0353875324653927, 1.0523941099527292, 1.068858650571201, 1.0857600974813977, 1.1018542917481682, 1.1189738504726847, 1.1354022097875713, 1.152323112681188, 1.168874693223188, 1.185702412196406, 1.2020655769010773, 1.21902675709498, 1.235525089683506, 1.2524033259469434, 1.268818714605004, 1.2856095696115517, 1.3021635394834448, 1.3189615624833095, 1.3354639910685364, 1.3522947820383706, 1.3687030027031142, 1.385626977593347, 1.4018990063777892, 1.4189943304554617, 1.4352209619428322, 1.4524726165545871]
14	inanimate/n1.jpg	animate	inanimate	right	1.209	[0.0, 0.0, 0.0, 0.0, 0.0, 0.0, 0.0, 0.0, 0.0, 0.0, 0.0, 0.0, 0.0, 0.0, 0.0, 0.0, 0.0, 0.0, 0.0, 0.0, 0.0, -2.0, -2.0, -2.0, -2.0, -2.0, -2.0, -2.0, -3.0, -5.0, -5.0, -5.0, -5.0, -7.0, -11.0, -14.0, -18.0, -19.0, -19.0, -19.0, -19.0, -20.0, -18.0, -16.0, -10.0, -4.0, 9.0, 18.0, 24.0, 27.0, 37.0, 62.0, 100.0, 235.0, 363.0, 506.0, 641.0, 770.0, 888.0, 959.0, 959.0, 959.0, 959.0, 959.0, 956.0, 946.0, 941.0, 937.0, 935.0, 930.0, 923.0, 916.0, 909.0]	[-490.0, -490.0, -490.0, -490.0, -490.0, -490.0, -489.0, -488.0, -488.0, -488.0, -488.0, -488.0, -488.0, -488.0, -488.0, -488.0, -488.0, -488.0, -488.0, -488.0, -488.0, -488.0, -488.0, -488.0, -488.0, -488.0, -488.0, -488.0, -488.0, -488.0, -488.0, -488.0, -488.0, -488.0, -487.0, -485.0, -485.0, -485.0, -485.0, -485.0, -485.0, -481.0, -465.0, -445.0, -417.0, -385.0, -332.0, -282.0, -238.0, -180.0, -104.0, -32.0, 34.0, 129.0, 173.0, 216.0, 258.0, 309.0, 357.0, 395.0, 420.0, 435.0, 440.0, 445.0, 451.0, 464.0, 470.0, 473.0, 474.0, 477.0, 478.0, 478.0, 478.0]	[0.0009905484876071569, 0.0057828643984976225, 0.016733511056372663, 0.033778659177187365, 0.05013875188160455, 0.06717434267920908, 0.08354535804392071, 0.10062259146798169, 0.1169939481660549, 0.13387218442949234, 0.15008789326020633, 0.16739996381875244, 0.18341940614845953, 0.20055159419644042, 0.21673965505033266, 0.23391416839513113, 0.250299519746477, 0.26712996938294964, 0.2834927927542594, 0.30070109806911205, 0.31684342029620893, 0.3339308937138412, 0.35026436244152137, 0.36721223064523656, 0.38652826749603264, 0.4005416955369583, 0.4179390993595007, 0.43386706443561707, 0.4510917537372734, 0.4672624066042772, 0.48358563534202403, 0.5002153811510652, 0.5203489106352208, 0.5336789899265568, 0.5534244237460371, 0.5669988974950684, 0.5866357874037931, 0.6003532797003572, 0.618158917837718, 0.6334144568209013, 0.6505886288323381, 0.6667060337458679, 0.6838942004105775, 0.7003536210322636, 0.7173328918761399, 0.7336612406106724, 0.750507050233864, 0.7667142257378146, 0.7838870324158052, 0.800342698374152, 0.8172076226510399, 0.8336079926557431, 0.8506056954829546, 0.8670644334379176, 0.8838351497943222, 0.9003399677094421, 0.9170888387525338, 0.9335670326909167, 0.9505084155680379, 0.9667763483521412, 0.9838470964496082, 1.0000337919736921, 1.0172124013115535, 1.0333683768585615, 1.050540500873467, 1.0666985244170064, 1.0838692830984655, 1.1000286719754513, 1.1172912492438627, 1.1334451767943392, 1.1505268475521007, 1.1667500657058554, 1.1839215070540376]
15	inanimate/n73.jpg	animate	inanimate	right	1.094	[0.0, 0.0, 0.0, 0.0, 0.0, 0.0, 0.0, 0.0, 0.0, 0.0, 0.0, 0.0, 0.0, 0.0, 0.0, 0.0, 0.0, 0.0, 0.0, 0.0, 0.0, 0.0, 0.0, 0.0, 0.0, 0.0, 1.0, 5.0, 8.0, 9.0, 12.0, 14.0, 19.0, 30.0, 44.0, 60.0, 77.0, 95.0, 98.0, 90.0, 64.0, 32.0, 10.0, 0.0, 0.0, 7.0, 36.0, 102.0, 201.0, 367.0, 488.0, 599.0, 694.0, 746.0, 765.0, 771.0, 773.0, 774.0, 774.0, 774.0, 774.0, 774.0, 774.0, 774.0, 774.0, 774.0]	[-490.0, -490.0, -490.0, -490.0, -490.0, -490.0, -490.0, -490.0, -490.0, -490.0, -490.0, -490.0, -490.0, -490.0, -490.0, -490.0, -490.0, -490.0, -490.0, -490.0, -490.0, -490.0, -490.0, -490.0, -490.0, -490.0, -489.0, -486.0, -484.0, -481.0, -477.0, -470.0, -455.0, -427.0, -385.0, -333.0, -271.0, -184.0, -136.0, -91.0, -42.0, 1.0, 28.0, 42.0, 49.0, 61.0, 81.0, 113.0, 153.0, 207.0, 240.0, 273.0, 300.0, 316.0, 323.0, 328.0, 329.0, 333.0, 338.0, 344.0, 349.0, 355.0, 359.0, 361.0, 362.0, 362.0]	[0.00971911704618833, 0.01553543208137853, 0.03125484267002321, 0.04858568654526607, 0.06469319280222408, 0.0820636313110299, 0.09814075892427354, 0.11532380559583544, 0.13150128512643278, 0.14866965447436087, 0.16482528868800728, 0.18205782864970388, 0.19823462551357807, 0.21539650953491218, 0.23152620243854471, 0.24862323317938717, 0.26486181132349884, 0.28210322594532045, 0.2982114148653636, 0.31529820561991073, 0.33164703433430986, 0.3487215370987542, 0.3650724138096848, 0.38204178599698935, 0.39841655602504034, 0.4153770535522199, 0.4316371356762829, 0.4486826251304592, 0.4679447313610581, 0.4821953858663619, 0.5012397216160025, 0.5152657789803925, 0.5326508948091941, 0.5487024224457855, 0.5648433793394361, 0.5816168263590953, 0.6014376947787241, 0.6151323177582526, 0.6333707661979133, 0.6484358413399605, 0.6656263973382011, 0.6817827142185706, 0.698625451845146, 0.7150596138235414, 0.732022500680614, 0.7484252600152104, 0.7652871122954821, 0.781555386412947, 0.7985667425637075, 0.8150971604554798, 0.8319716420555778, 0.8484225293505006, 0.8653768828844477, 0.8817803248857672, 0.900012287995196, 0.9151408510842884, 0.932010895357962, 0.9481774522282649, 0.965345821576193, 0.9815062344532635, 0.9986759691346379, 1.0151388030863018, 1.0319859780465777, 1.048404097367893, 1.0653178322681924, 1.0816164850257337]
16	inanimate/n57.jpg	animate	inanimate	right	1.143	[0.0, -1.0, -1.0, -1.0, -1.0, -1.0, -1.0, -1.0, -1.0, -1.0, -1.0, -1.0, -1.0, -1.0, -1.0, -1.0, -1.0, -2.0, -2.0, -2.0, -1.0, 0.0, 1.0, 3.0, 3.0, 3.0, 5.0, 9.0, 11.0, 11.0, 11.0, 11.0, 1.0, -17.0, -42.0, -74.0, -119.0, -178.0, -242.0, -343.0, -415.0, -498.0, -576.0, -642.0, -688.0, -711.0, -720.0, -720.0, -718.0, -664.0, -545.0, -289.0, -73.0, 170.0, 404.0, 612.0, 784.0, 900.0, 950.0, 958.0, 958.0, 958.0, 959.0, 959.0, 959.0, 959.0, 959.0, 959.0, 959.0]	[-490.0, -489.0, -489.0, -489.0, -489.0, -489.0, -489.0, -489.0, -489.0, -489.0, -489.0, -489.0, -489.0, -489.0, -489.0, -489.0, -489.0, -488.0, -486.0, -482.0, -478.0, -472.0, -469.0, -463.0, -459.0, -448.0, -438.0, -423.0, -383.0, -352.0, -328.0, -305.0, -265.0, -207.0, -145.0, -99.0, -54.0, -6.0, 52.0, 135.0, 194.0, 263.0, 329.0, 377.0, 411.0, 429.0, 436.0, 436.0, 439.0, 440.0, 440.0, 440.0, 440.0, 434.0, 414.0, 402.0, 391.0, 391.0, 391.0, 391.0, 391.0, 391.0, 392.0, 392.0, 392.0, 392.0, 392.0, 392.0, 392.0]	[0.010938187999272486, 0.01749417173778056, 0.02280019387762877, 0.0362920650295564, 0.05438783625504584, 0.07027552403087611, 0.08683666189972428, 0.10321279725758359, 0.12034669196873438, 0.13642211291880812, 0.15357751161354827, 0.16985192972424557, 0.18688478985859547, 0.20318207728269044, 0.22022381207352737, 0.23663885940186447, 0.2536280289023125, 0.2700089429235959, 0.2870598937079194, 0.3032336185715394, 0.32020606275546015, 0.3366262300769449, 0.35350412501065875, 0.36974270315113245, 0.38686089654584066, 0.4030653413828986, 0.4201988947643258, 0.4366880113593652, 0.453488423689123, 0.469803460433468, 0.487042144388397, 0.5034565090500109, 0.5201917267695535, 0.5366893766913563, 0.553493885017815, 0.5700287402396498, 0.586841781892872, 0.603101864020573, 0.6202197160782816, 0.6367238513266784, 0.6535532769667043, 0.6698102870941511, 0.6868813765286177, 0.7032035812662798, 0.7202227880770806, 0.7363999262706784, 0.7536526048825181, 0.7697420204858645, 0.786850315220363, 0.8030824080342427, 0.8202210814088176, 0.8364439582328487, 0.8536720608644828, 0.8697877591148426, 0.8869612484595564, 0.9033657144609606, 0.9201924094340939, 0.9365299741584749, 0.9535556662995077, 0.9698829910339555, 0.9868981018444174, 1.0058683683237177, 1.020132334819209, 1.0397524994114065, 1.0534457570574887, 1.0725365141006478, 1.086795701932715, 1.1044330628828902, 1.1202108414181566]
17	inanimate/n72.jpg	animate	inanimate	right	1.468	[0.0, 0.0, 0.0, 0.0, 0.0, 0.0, 0.0, 1.0, 1.0, 1.0, 1.0, 1.0, 1.0, 1.0, 1.0, 1.0, 1.0, 1.0, 1.0, 1.0, 1.0, 1.0, 1.0, 1.0, 1.0, 1.0, 1.0, 1.0, 1.0, 1.0, 1.0, 1.0, 1.0, 1.0, 1.0, 1.0, 1.0, 1.0, 1.0, 1.0, 1.0, 1.0, 1.0, 1.0, 1.0, 1.0, 1.0, 1.0, 1.0, 1.0, 1.0, 4.0, 17.0, 55.0, 115.0, 189.0, 277.0, 379.0, 468.0, 549.0, 651.0, 680.0, 736.0, 798.0, 819.0, 830.0, 839.0, 845.0, 849.0, 851.0, 854.0, 855.0, 855.0, 855.0, 855.0, 855.0, 848.0, 837.0, 823.0, 812.0, 806.0, 803.0, 801.0, 799.0, 799.0, 797.0, 797.0, 797.0]	[-490.0, -490.0, -490.0, -490.0, -490.0, -488.0, -487.0, -487.0, -487.0, -487.0, -486.0, -484.0, -484.0, -484.0, -484.0, -484.0, -484.0, -484.0, -484.0, -484.0, -484.0, -484.0, -484.0, -484.0, -484.0, -484.0, -484.0, -484.0, -484.0, -484.0, -484.0, -484.0, -484.0, -484.0, -484.0, -484.0, -484.0, -484.0, -484.0, -484.0, -484.0, -484.0, -484.0, -484.0, -484.0, -484.0, -484.0, -482.0, -481.0, -481.0, -478.0, -462.0, -436.0, -379.0, -311.0, -242.0, -167.0, -89.0, -25.0, 25.0, 73.0, 89.0, 121.0, 172.0, 200.0, 219.0, 237.0, 251.0, 264.0, 274.0, 284.0, 291.0, 299.0, 303.0, 312.0, 319.0, 333.0, 350.0, 367.0, 378.0, 384.0, 388.0, 391.0, 395.0, 397.0, 399.0, 399.0, 399.0]	[0.002220712776761502, 0.007080612627760274, 0.01912181835359661, 0.03592837467658683, 0.0555700432487356, 0.06958756729000015, 0.08615416648535756, 0.10261768310374464, 0.1206202704088355, 0.13582460943143815, 0.15305714939313475, 0.16926569023053162, 0.18704538705787854, 0.2026050537788251, 0.21977342313039117, 0.2358642040671839, 0.2529721574683208, 0.26941690076637315, 0.28630128102668095, 0.3027804989651486, 0.31967204721513554, 0.3358601080690278, 0.3530322320839332, 0.3694387460818689, 0.38633302499874844, 0.402750120323617, 0.4197164205106674, 0.4358252920974337, 0.4530158480956743, 0.4694025647804665, 0.4863903689511062, 0.5027931282857026, 0.5196925271993678, 0.5361263478407636, 0.5529523601508117, 0.5691868422982225, 0.5863978782763297, 0.6028552509014844, 0.6196481539045635, 0.6358413347516034, 0.6530223334229959, 0.6694005167810246, 0.6863838836216019, 0.7024958272086224, 0.7196641965565505, 0.7358259747634293, 0.7529735227981291, 0.7691441756687709, 0.7863535049800703, 0.8025012885373144, 0.8196215299249161, 0.8358713720590458, 0.8529489468201064, 0.86920527428083, 0.8864651208859868, 0.9026845843800402, 0.9195187886798522, 0.9358409934175143, 0.9529776187955576, 0.9694025647804665, 0.9861958091169072, 1.0025855977983156, 1.0196788738758187, 1.0359399799999665, 1.0528847762070654, 1.0694902873729006, 1.0863125450159714, 1.1027067710274423, 1.1196580525611353, 1.1388518921849027, 1.1528653202258283, 1.172285804987041, 1.186225505090988, 1.2038761780277127, 1.2196512258997245, 1.2386999989794276, 1.2529175441814004, 1.2703163133337512, 1.2864524915639777, 1.3031170533431577, 1.3196447405716754, 1.336236939747323, 1.3526584724022541, 1.369459567398735, 1.386044257244066, 1.4057842297333991, 1.4194167300993286, 1.4389303987845778]
18	inanimate/n76.jpg	inanimate	animate	left	1.552	[0.0, 0.0, 0.0, 0.0, 0.0, 0.0, 0.0, 0.0, 0.0, 0.0, 0.0, 0.0, 0.0, 0.0, 0.0, 0.0, 0.0, 0.0, 0.0, 0.0, 0.0, 0.0, 0.0, 0.0, 0.0, 0.0, 0.0, 0.0, 0.0, 1.0, 3.0, 5.0, 10.0, 24.0, 34.0, 56.0, 88.0, 127.0, 166.0, 216.0, 269.0, 332.0, 394.0, 450.0, 511.0, 579.0, 608.0, 613.0, 611.0, 593.0, 547.0, 463.0, 366.0, 235.0, 71.0, -109.0, -296.0, -550.0, -712.0, -847.0, -946.0, -960.0, -960.0, -960.0, -960.0, -956.0, -953.0, -949.0, -946.0, -944.0, -944.0, -943.0, -943.0, -943.0, -943.0, -943.0, -943.0, -943.0, -943.0, -943.0, -942.0, -932.0, -926.0, -906.0, -895.0, -886.0, -880.0, -874.0, -870.0, -869.0, -868.0, -868.0, -868.0]	[-490.0, -490.0, -490.0, -490.0, -490.0, -490.0, -490.0, -490.0, -490.0, -490.0, -490.0, -490.0, -490.0, -490.0, -490.0, -490.0, -490.0, -490.0, -490.0, -490.0, -490.0, -490.0, -490.0, -490.0, -490.0, -490.0, -490.0, -490.0, -490.0, -490.0, -490.0, -489.0, -486.0, -479.0, -471.0, -449.0, -409.0, -363.0, -311.0, -254.0, -199.0, -140.0, -79.0, -34.0, 8.0, 75.0, 114.0, 136.0, 152.0, 166.0, 181.0, 201.0, 214.0, 239.0, 279.0, 330.0, 365.0, 407.0, 433.0, 454.0, 473.0, 486.0, 490.0, 490.0, 492.0, 497.0, 499.0, 501.0, 502.0, 503.0, 503.0, 504.0, 504.0, 504.0, 504.0, 504.0, 504.0, 504.0, 504.0, 504.0, 504.0, 498.0, 494.0, 483.0, 478.0, 474.0, 472.0, 469.0, 469.0, 469.0, 468.0, 468.0, 468.0]	[0.014999197868746705, 0.019831108409562148, 0.028576402281032642, 0.04487710303874337, 0.061375435627269326, 0.0780355600763869, 0.09783219384917174, 0.11118650778735173, 0.1297495639482804, 0.14475012714683544, 0.16203045373549685, 0.17807822670511086, 0.19594701145979343, 0.21125409172964282, 0.22811082401312888, 0.24479962043915293, 0.26175568063626997, 0.27815058931082604, 0.29505920421433984, 0.311191627781227, 0.3282654478789482, 0.3447658284676436, 0.36168434202772914, 0.37806969337907503, 0.3950390655663796, 0.4112202997566783, 0.42829992251790827, 0.44475558847625507, 0.4616819526963809, 0.4780884666979546, 0.49487761503769434, 0.5115568541368702, 0.5284398690637317, 0.5448030337684031, 0.5616642033783137, 0.5781369359901873, 0.595170820120984, 0.611326795667992, 0.6283408824820071, 0.6447794817868271, 0.6617399793140066, 0.6780894906951289, 0.694975236288883, 0.7111940171125752, 0.7283183545005159, 0.7447733377921395, 0.7616904860224167, 0.7779591014732432, 0.7951387348148273, 0.8112810570382862, 0.8282913891926, 0.8447770924576616, 0.8616792220345815, 0.8778744508817908, 0.8949837696127361, 0.9112421450736292, 0.9283456611447036, 0.9448986070201499, 0.9617358833202161, 0.9779212135072157, 0.9951906174355827, 1.0114128115928906, 1.0282941198565823, 1.0445791192905745, 1.061683318028372, 1.077846461572335, 1.0950878761905187, 1.1112086944340263, 1.1283231331653951, 1.1449037270140252, 1.1616836593639164, 1.1781519546420895, 1.1950230229122099, 1.2112762783763174, 1.22832313316394, 1.2446750338785932, 1.261625632745563, 1.2778628455562284, 1.2950588628846162, 1.311180363791209, 1.3282466745622514, 1.3445255300030112, 1.3617058460113185, 1.3778922001984029, 1.3950994815131708, 1.4112803743737459, 1.4283043598479708, 1.444511876681645, 1.4617635312933999, 1.4778666002202954, 1.4949673856281152, 1.5111663691386639, 1.528379111783579]
19	inanimate/n47.jpg	inanimate	animate	left	1.359	[0.0, 0.0, 0.0, 0.0, 0.0, 0.0, 0.0, 0.0, 0.0, 0.0, 0.0, 0.0, 0.0, 0.0, 0.0, 0.0, 0.0, 0.0, 0.0, 0.0, 0.0, 0.0, 0.0, 0.0, -2.0, -3.0, -3.0, -3.0, -3.0, -3.0, -3.0, -3.0, -4.0, -4.0, -5.0, -5.0, -5.0, -5.0, -5.0, -5.0, -5.0, -5.0, -5.0, -5.0, -5.0, -6.0, 2.0, 15.0, 34.0, 68.0, 118.0, 180.0, 236.0, 261.0, 266.0, 244.0, 204.0, 125.0, 29.0, -86.0, -221.0, -358.0, -481.0, -571.0, -631.0, -682.0, -713.0, -733.0, -746.0, -753.0, -754.0, -754.0, -754.0, -754.0, -754.0, -754.0, -751.0, -748.0, -747.0, -747.0, -747.0, -747.0]	[-490.0, -490.0, -490.0, -490.0, -490.0, -490.0, -490.0, -490.0, -490.0, -490.0, -490.0, -490.0, -490.0, -490.0, -490.0, -490.0, -490.0, -490.0, -490.0, -490.0, -490.0, -490.0, -490.0, -490.0, -490.0, -490.0, -490.0, -490.0, -490.0, -490.0, -490.0, -490.0, -490.0, -490.0, -490.0, -490.0, -490.0, -490.0, -490.0, -490.0, -490.0, -490.0, -490.0, -490.0, -490.0, -488.0, -476.0, -457.0, -408.0, -344.0, -259.0, -154.0, -38.0, 54.0, 99.0, 128.0, 142.0, 155.0, 160.0, 168.0, 185.0, 202.0, 228.0, 255.0, 284.0, 313.0, 336.0, 348.0, 361.0, 369.0, 378.0, 388.0, 399.0, 403.0, 407.0, 411.0, 418.0, 428.0, 430.0, 435.0, 435.0, 435.0]	[0.010327713855076581, 0.016201714177441318, 0.021898903982219053, 0.03546757507137954, 0.05253934716893127, 0.06874584000615869, 0.08572374551658868, 0.10206233424105449, 0.11912830367873539, 0.13565189491419005, 0.1524519659105863, 0.16883458659503958, 0.18574217750210664, 0.20221286211381084, 0.21924708757796907, 0.23573279084303067, 0.2525420778329135, 0.2719881625707785, 0.285799862787826, 0.3031406053232786, 0.3192433329131745, 0.3362768757142476, 0.35257109114172636, 0.3690335837600287, 0.38578108946967404, 0.40218248347446206, 0.4189801651373273, 0.4356170789433236, 0.45222429677232867, 0.47030197734420653, 0.48561793227418093, 0.5032757732078608, 0.5187238240250736, 0.5359341773364577, 0.552306216701254, 0.5691643143145484, 0.5856414842564845, 0.6026825363805983, 0.6188552372441336, 0.6358590840682155, 0.652360147319996, 0.6692134662735043, 0.685655478908302, 0.7026490857424506, 0.7187313333524799, 0.7359051640305552, 0.7524236352655862, 0.7691690929787001, 0.7853779751458205, 0.8025378111706232, 0.8187316746843862, 0.8359662626426143, 0.8523464940008125, 0.8692742235543847, 0.8857066788659722, 0.9024767125556536, 0.9191238663479453, 0.9358505507443624, 0.9520884462217509, 0.9692660315631656, 0.9853858258065884, 1.0025617044811952, 1.0187125600350555, 1.0358836600462382, 1.0520580675802194, 1.0692851462117687, 1.0854230311088031, 1.102557608486677, 1.1187268960202346, 1.1359444173285738, 1.152225320769503, 1.169258863566938, 1.185597452291404, 1.2025743338053871, 1.2189286238499335, 1.235910966690426, 1.2551119743075105, 1.2691882076287584, 1.288610399053141, 1.3024238059333584, 1.3217896774076507, 1.3358375800889917]
20	inanimate/n18.jpg	animate	inanimate	right	1.312	[0.0, 0.0, 0.0, 0.0, 0.0, 1.0, 2.0, 3.0, 3.0, 3.0, 3.0, 3.0, 3.0, 3.0, 3.0, 3.0, 3.0, 3.0, 3.0, 2.0, 2.0, 0.0, 0.0, -2.0, -3.0, -5.0, -6.0, -8.0, -9.0, -9.0, -11.0, -11.0, -11.0, -11.0, -11.0, -11.0, -11.0, -11.0, -11.0, -11.0, -9.0, -3.0, 6.0, 10.0, 9.0, -9.0, -33.0, -45.0, -47.0, -34.0, 23.0, 107.0, 194.0, 305.0, 435.0, 578.0, 696.0, 797.0, 883.0, 959.0, 959.0, 959.0, 959.0, 959.0, 959.0, 958.0, 950.0, 942.0, 933.0, 928.0, 916.0, 912.0, 899.0, 895.0, 893.0, 892.0, 891.0, 891.0, 891.0]	[-490.0, -490.0, -490.0, -490.0, -490.0, -488.0, -488.0, -486.0, -485.0, -484.0, -484.0, -484.0, -484.0, -484.0, -484.0, -484.0, -484.0, -483.0, -483.0, -483.0, -483.0, -483.0, -483.0, -484.0, -485.0, -486.0, -486.0, -487.0, -487.0, -488.0, -488.0, -488.0, -488.0, -488.0, -488.0, -488.0, -488.0, -488.0, -488.0, -488.0, -487.0, -484.0, -481.0, -480.0, -478.0, -469.0, -459.0, -441.0, -424.0, -388.0, -313.0, -240.0, -177.0, -121.0, -62.0, 10.0, 77.0, 134.0, 187.0, 246.0, 264.0, 298.0, 311.0, 325.0, 337.0, 349.0, 360.0, 371.0, 381.0, 387.0, 398.0, 401.0, 409.0, 412.0, 413.0, 414.0, 414.0, 414.0, 414.0]	[0.015040328496979782, 0.019788953781244345, 0.028128743997513084, 0.045542190469859634, 0.061556171473057475, 0.0787542367943388, 0.09491055367470835, 0.11193351514884853, 0.12830896784362267, 0.1454810918548901, 0.1617104540055152, 0.17871225283306558, 0.19504128423068323, 0.21204854438474285, 0.23086862432319322, 0.24534831330311135, 0.26446944898634683, 0.2786654902047303, 0.29788731913504307, 0.31199597909653676, 0.33135843724085134, 0.34533192931485246, 0.3630437008687295, 0.3787859807671339, 0.3956099450806505, 0.41199290709846537, 0.42865132488441304, 0.4454466172173852, 0.46154012881743256, 0.47840505309432046, 0.498116353606747, 0.5115816007819376, 0.5299695530920872, 0.5449499776404991, 0.5624501227102883, 0.578549778303568, 0.59545020121368, 0.6119116698355356, 0.6288100447491161, 0.6452162174136902, 0.6620463257204392, 0.6782616932177916, 0.6953809106089466, 0.711781963280373, 0.7287042315037979, 0.7448933163577749, 0.7620842136893771, 0.7785043810108618, 0.795344046640821, 0.8118724165360618, 0.828747580802883, 0.8453582119618659, 0.8620381337277649, 0.8784381623991067, 0.8954495185498672, 0.9118239472445566, 0.9286219702407834, 0.944939737652021, 0.9619623577927996, 0.9781797732866835, 0.9953409746412945, 1.0115058248484274, 1.0286909195165208, 1.0450080042610352, 1.0619882991013583, 1.0782152719220903, 1.095386371936911, 1.1115792114505894, 1.128734951478691, 1.1449189163358824, 1.1619039898396295, 1.1783255224945606, 1.1953771559456072, 1.2117065286765865, 1.2289257566480956, 1.2481213029350329, 1.262006731085421, 1.2811995467091037, 1.2953065000037896]
21	inanimate/n16.jpg	animate	inanimate	right	1.646	[0.0, 0.0, 0.0, 0.0, 0.0, 0.0, 0.0, 0.0, 0.0, 0.0, 0.0, 0.0, 0.0, 0.0, 0.0, 0.0, 0.0, 0.0, 0.0, 0.0, 0.0, 0.0, 0.0, 0.0, 0.0, 0.0, 0.0, 0.0, 0.0, 0.0, 0.0, 0.0, 0.0, 0.0, 0.0, 0.0, 0.0, 0.0, 0.0, -1.0, -1.0, 1.0, 4.0, 8.0, 20.0, 25.0, 33.0, 35.0, 36.0, 38.0, 42.0, 47.0, 51.0, 57.0, 67.0, 75.0, 120.0, 138.0, 185.0, 222.0, 257.0, 278.0, 296.0, 314.0, 337.0, 374.0, 411.0, 455.0, 496.0, 534.0, 584.0, 606.0, 639.0, 650.0, 656.0, 660.0, 661.0, 663.0, 665.0, 668.0, 669.0, 671.0, 673.0, 674.0, 680.0, 685.0, 694.0, 705.0, 717.0, 730.0, 740.0, 751.0, 759.0, 761.0, 763.0, 763.0, 763.0, 763.0, 763.0]	[-490.0, -490.0, -490.0, -490.0, -490.0, -490.0, -490.0, -490.0, -490.0, -490.0, -490.0, -490.0, -490.0, -490.0, -490.0, -490.0, -490.0, -490.0, -490.0, -490.0, -490.0, -490.0, -490.0, -490.0, -490.0, -490.0, -490.0, -490.0, -490.0, -490.0, -490.0, -490.0, -490.0, -490.0, -490.0, -490.0, -490.0, -490.0, -490.0, -489.0, -488.0, -485.0, -482.0, -479.0, -472.0, -469.0, -465.0, -465.0, -464.0, -463.0, -461.0, -459.0, -457.0, -453.0, -445.0, -440.0, -406.0, -387.0, -328.0, -273.0, -221.0, -187.0, -153.0, -121.0, -86.0, -34.0, 16.0, 67.0, 113.0, 154.0, 198.0, 212.0, 236.0, 248.0, 258.0, 267.0, 275.0, 283.0, 290.0, 294.0, 300.0, 304.0, 310.0, 315.0, 321.0, 325.0, 329.0, 335.0, 343.0, 350.0, 355.0, 359.0, 364.0, 365.0, 366.0, 366.0, 366.0, 366.0, 366.0]	[0.005231270206422778, 0.010951670657959767, 0.02509548791931593, 0.04204233212658437, 0.05973294103023363, 0.0751755305172992, 0.09311838454232202, 0.10857189668604406, 0.12572081005419022, 0.1419054575744667, 0.15902979496240732, 0.17515812253259355, 0.1923135212273337, 0.20873061655220226, 0.22562796746569802, 0.242110940067505, 0.25904754428120214, 0.27515982919794624, 0.29230669456592295, 0.3087650911875244, 0.325697258074797, 0.34204403879266465, 0.35900692564973724, 0.3751618771966605, 0.39234253453469137, 0.4087763551797252, 0.42570237807012745, 0.4420583747778437, 0.45894787503493717, 0.47545508227995015, 0.4923227372200927, 0.5085261580607039, 0.5257013540685875, 0.5418092016589071, 0.5590151176438667, 0.5751830398476159, 0.5923084012320032, 0.608483150095708, 0.6258447139480268, 0.6418402629642515, 0.6590291122956842, 0.6751789438494598, 0.6923732545110397, 0.7085101154079894, 0.7255180582251342, 0.7418395802997111, 0.7588959924105438, 0.7752748584352958, 0.7922261399689887, 0.8087173045641975, 0.8256593701044039, 0.8420768067626341, 0.8589768883430224, 0.877992210782395, 0.8922186306408548, 0.9116217074188171, 0.9255463888694067, 0.9433356430236017, 0.9589635763513797, 0.9768927770528535, 0.9923387798735348, 1.009728333032399, 1.0258150179724908, 1.042988848650566, 1.0590622216041083, 1.076436756109615, 1.0923712065123254, 1.1084527714556316, 1.1252767357655102, 1.1446275885864452, 1.1587198645611352, 1.1781485413157498, 1.1919148442357255, 1.2096460717693844, 1.225212906487286, 1.2421402947074967, 1.2587468298697786, 1.2757714980107266, 1.2918103963238536, 1.3089548723619373, 1.3251460052124457, 1.342368305180571, 1.3587246432252869, 1.3756953807423997, 1.3921165720639692, 1.408974328343902, 1.425258645114809, 1.4423014039057307, 1.4587246432238317, 1.4756049274874385, 1.4920756120991427, 1.508921763055696, 1.5251835518465668, 1.542279217257601, 1.5584662541114085, 1.5758056313134148, 1.5918271216432913, 1.6089364403778745, 1.625299605078908]
22	animate/a80.jpg	inanimate	animate	right	1.484	[0.0, 0.0, 0.0, 0.0, 0.0, 0.0, 0.0, 0.0, 0.0, 0.0, 0.0, 0.0, 0.0, 0.0, 0.0, 0.0, 0.0, 0.0, 0.0, 0.0, 0.0, 0.0, 0.0, 0.0, 0.0, 0.0, 0.0, 0.0, 0.0, 0.0, 0.0, 0.0, 0.0, 0.0, 0.0, 0.0, 0.0, 0.0, -1.0, -1.0, -3.0, -9.0, -41.0, -61.0, -95.0, -130.0, -181.0, -234.0, -286.0, -341.0, -396.0, -444.0, -482.0, -510.0, -532.0, -566.0, -585.0, -606.0, -617.0, -620.0, -620.0, -620.0, -605.0, -547.0, -360.0, -189.0, 3.0, 200.0, 392.0, 559.0, 713.0, 843.0, 924.0, 955.0, 959.0, 959.0, 959.0, 958.0, 950.0, 946.0, 945.0, 944.0, 942.0, 939.0, 937.0, 934.0, 933.0, 931.0, 930.0]	[-490.0, -490.0, -490.0, -490.0, -490.0, -490.0, -490.0, -490.0, -490.0, -490.0, -490.0, -490.0, -490.0, -490.0, -490.0, -490.0, -490.0, -490.0, -490.0, -490.0, -490.0, -490.0, -490.0, -490.0, -490.0, -490.0, -490.0, -490.0, -490.0, -490.0, -490.0, -490.0, -490.0, -490.0, -490.0, -490.0, -490.0, -490.0, -489.0, -488.0, -484.0, -478.0, -462.0, -450.0, -425.0, -385.0, -323.0, -237.0, -136.0, -33.0, 56.0, 134.0, 205.0, 258.0, 300.0, 341.0, 363.0, 380.0, 392.0, 397.0, 398.0, 400.0, 405.0, 405.0, 399.0, 373.0, 364.0, 366.0, 366.0, 366.0, 383.0, 403.0, 414.0, 420.0, 425.0, 426.0, 429.0, 439.0, 451.0, 457.0, 461.0, 462.0, 464.0, 467.0, 468.0, 468.0, 468.0, 468.0, 468.0]	[0.002955261483293725, 0.009629687785491114, 0.021303619159880327, 0.0381422607897548, 0.05485051319919876, 0.07153623762496863, 0.08825404736126075, 0.10449842816524324, 0.12155859493941534, 0.13770398916312843, 0.15488328117135097, 0.17112015264865477, 0.188256095359975, 0.2046192600610084, 0.2215620082715759, 0.23770842649173574, 0.25477985725956387, 0.27129150183463935, 0.28823868737526936, 0.3046114094031509, 0.3214961309931823, 0.3377087678272801, 0.35484471053860034, 0.3712679498567013, 0.38817861276038457, 0.4046807000086119, 0.4214886216686864, 0.43772924780932954, 0.45481023590036784, 0.47138878175246646, 0.4881690554320812, 0.5047158573142951, 0.5214776990105747, 0.5378295997215901, 0.5548638251857483, 0.5710276513927965, 0.5882069434010191, 0.6043796442681924, 0.6214875976693293, 0.6376637118628423, 0.6549327744614857, 0.6711010379985964, 0.6881912420794833, 0.7043564336199779, 0.7215804402549111, 0.7378009277490492, 0.754826619886444, 0.7710266273934394, 0.7882281060483365, 0.8043659909453709, 0.8214599496932351, 0.8377377811339102, 0.8548313985484128, 0.8710529100389977, 0.888202506070229, 0.9043991002508847, 0.9216691868459748, 0.9381627407710766, 0.9547761025969521, 0.9711778379314637, 0.9880710928518965, 1.004558502780128, 1.0214998856572493, 1.0378190183982952, 1.054924582469539, 1.0711563339500572, 1.0883120739781589, 1.104455078868341, 1.1214705310158024, 1.1401277950935764, 1.1547498199506663, 1.1738914356174064, 1.1880663141892, 1.2052568701838027, 1.2215299229646917, 1.238179807423876, 1.2548197932264884, 1.2711129846538824, 1.287852981036849, 1.3046039000764722, 1.3212756298489694, 1.3377592851174995, 1.3544815321802162, 1.372849004506861, 1.3880164795627934, 1.4055272059558774, 1.4213203444778628, 1.439236233189149, 1.454464465528872]
23	inanimate/n33.jpg	animate	inanimate	right	1.509	[0.0, 0.0, 0.0, 0.0, 0.0, 0.0, 0.0, 0.0, 0.0, 0.0, 0.0, 0.0, 0.0, 0.0, 0.0, 0.0, 0.0, 0.0, 0.0, 0.0, 0.0, 0.0, 0.0, 0.0, 0.0, 0.0, 0.0, 0.0, 0.0, 0.0, 0.0, 0.0, 1.0, 2.0, 5.0, 8.0, 13.0, 17.0, 20.0, 25.0, 28.0, 33.0, 33.0, 33.0, 32.0, 29.0, 18.0, 3.0, -14.0, -39.0, -75.0, -134.0, -268.0, -369.0, -463.0, -527.0, -552.0, -556.0, -553.0, -542.0, -519.0, -474.0, -367.0, -232.0, 20.0, 225.0, 424.0, 617.0, 800.0, 958.0, 959.0, 959.0, 959.0, 959.0, 951.0, 947.0, 922.0, 905.0, 884.0, 865.0, 843.0, 827.0, 814.0, 805.0, 804.0, 802.0, 802.0, 802.0, 802.0, 802.0]	[-490.0, -490.0, -490.0, -490.0, -490.0, -490.0, -490.0, -490.0, -490.0, -490.0, -490.0, -490.0, -490.0, -490.0, -490.0, -490.0, -490.0, -490.0, -490.0, -490.0, -490.0, -490.0, -490.0, -490.0, -490.0, -490.0, -490.0, -490.0, -490.0, -490.0, -489.0, -488.0, -487.0, -485.0, -482.0, -474.0, -463.0, -454.0, -445.0, -434.0, -422.0, -407.0, -396.0, -381.0, -359.0, -335.0, -296.0, -251.0, -213.0, -175.0, -141.0, -100.0, -26.0, 33.0, 89.0, 126.0, 146.0, 159.0, 173.0, 190.0, 209.0, 227.0, 246.0, 265.0, 276.0, 276.0, 276.0, 282.0, 285.0, 295.0, 307.0, 320.0, 325.0, 328.0, 339.0, 343.0, 357.0, 364.0, 374.0, 381.0, 388.0, 393.0, 397.0, 400.0, 401.0, 401.0, 401.0, 401.0, 401.0, 401.0]	[0.005540688605833566, 0.011787424606154673, 0.024490133768267697, 0.04188583092400222, 0.058034297144331504, 0.07522280514240265, 0.09160235383023974, 0.10830070758311194, 0.1274460779131914, 0.14177558035225957, 0.15807525710988557, 0.17482412814933923, 0.19501500158730778, 0.20808054777080542, 0.22776215230987873, 0.2414615539528313, 0.25972526103214477, 0.27467837894073455, 0.29204711078637047, 0.3080853264327743, 0.3255608955187199, 0.3416503111257043, 0.3587708938466676, 0.3747210455694585, 0.39186142561084125, 0.4083641955294297, 0.4252113704860676, 0.4415663431973371, 0.45855551269778516, 0.4748859094288491, 0.49185220961953746, 0.507979513189639, 0.5253151357319439, 0.5416069618295296, 0.5584595981126768, 0.574932672057912, 0.5917279643908842, 0.6082518969560624, 0.625146175872942, 0.6415840925146767, 0.6584961207481683, 0.6746657496187254, 0.6918440176268632, 0.7081221904008999, 0.7250826879280794, 0.7413171700754901, 0.7584633527767437, 0.7746848642673285, 0.7918102256553539, 0.8083317688906391, 0.825139349213714, 0.8416189084855432, 0.8584507234554621, 0.8746869122660428, 0.8917334257203038, 0.908027299814421, 0.9253025064062967, 0.9413407220563386, 0.958528206054325, 0.9746951042579894, 0.9917846256757912, 1.0080249104830727, 1.0252168318147596, 1.0414028446684824, 1.0585445900396735, 1.0747650775338116, 1.0918211483112827, 1.1082252729793254, 1.1253775996774493, 1.1416796657649684, 1.158393038171198, 1.1776650430583686, 1.1917040710795845, 1.2107876601257885, 1.22509668258499, 1.2429501073493157, 1.2583862115097872, 1.2759628151761717, 1.2918218309787335, 1.3088140724794357, 1.3254229969716107, 1.3414270793145988, 1.358361976865126, 1.3747336748929229, 1.3915948445064714, 1.4082481422956334, 1.4248294188109867, 1.4434962402156089, 1.4583063395766658, 1.476215742961358]
24	inanimate/n73.jpg	inanimate	animate	left	1.205	[0.0, 0.0, 0.0, 0.0, 0.0, 0.0, 0.0, 0.0, 0.0, 0.0, 0.0, 0.0, 0.0, 0.0, 0.0, 0.0, 0.0, 0.0, 0.0, 0.0, 0.0, 0.0, 0.0, 0.0, 0.0, 0.0, 0.0, 0.0, 0.0, 0.0, 0.0, 0.0, 0.0, 0.0, 0.0, 0.0, 0.0, 0.0, 0.0, 0.0, 31.0, 83.0, 99.0, 99.0, 99.0, 99.0, 87.0, 58.0, 28.0, -10.0, -51.0, -116.0, -198.0, -302.0, -412.0, -525.0, -605.0, -658.0, -691.0, -721.0, -725.0, -741.0, -742.0, -742.0, -742.0, -742.0, -742.0, -742.0, -742.0, -742.0, -742.0, -742.0, -742.0]	[-490.0, -488.0, -488.0, -488.0, -488.0, -488.0, -488.0, -488.0, -488.0, -488.0, -488.0, -488.0, -488.0, -488.0, -488.0, -488.0, -488.0, -488.0, -488.0, -488.0, -488.0, -488.0, -488.0, -488.0, -488.0, -488.0, -488.0, -488.0, -488.0, -488.0, -488.0, -488.0, -488.0, -488.0, -488.0, -488.0, -488.0, -488.0, -488.0, -488.0, -488.0, -486.0, -486.0, -486.0, -486.0, -483.0, -469.0, -408.0, -340.0, -262.0, -163.0, -50.0, 59.0, 163.0, 261.0, 330.0, 375.0, 405.0, 427.0, 448.0, 453.0, 463.0, 465.0, 465.0, 465.0, 465.0, 465.0, 465.0, 465.0, 465.0, 465.0, 465.0, 465.0]	[0.011157153148815269, 0.0153306322536082, 0.023018135027086828, 0.03714727497208514, 0.053339773152401904, 0.07017739078582963, 0.08861688438264537, 0.10355976229766384, 0.12134014179173391, 0.1366171847548685, 0.15396646061708452, 0.17018046278099064, 0.1878591250278987, 0.20346623704608646, 0.22045131054983358, 0.23661991542030592, 0.2540388232227997, 0.2702709160366794, 0.28723448556411313, 0.3032648505504767, 0.32046632920537377, 0.3366264007490827, 0.3538231007405557, 0.3701169748346729, 0.3871515416321927, 0.40352665299360524, 0.4204298065706098, 0.4366246940844576, 0.4537585887956084, 0.46994494298269274, 0.48708737102060695, 0.5035310903222125, 0.5204267345725384, 0.5365984114396269, 0.5537705354508944, 0.5701879721091245, 0.587214688246604, 0.6034146957572375, 0.6204291239046142, 0.6367141233386064, 0.6537596127927827, 0.6701671507944411, 0.6871116056681785, 0.7035225569961767, 0.7203629052928591, 0.7366728220404184, 0.7538777140252932, 0.7699763456221262, 0.7871460803035006, 0.803581948945066, 0.8204567718785256, 0.836837685899809, 0.8537329888167733, 0.8700292522444215, 0.8870761070320441, 0.9032812345358252, 0.9204250279071857, 0.9366175260875025, 0.9537620021255862, 0.9699534763094562, 0.987255306878069, 1.003286013197794, 1.0204291239024315, 1.036662240716396, 1.0538432393914263, 1.0699667882981885, 1.0871802136098268, 1.1033064931798435, 1.1204263932377216, 1.1366267420817167, 1.1537719007828855, 1.1700169642535911, 1.1871409603081702]
25	inanimate/n6.jpg	inanimate	animate	left	1.497	[0.0, 0.0, 0.0, 0.0, 0.0, 0.0, 0.0, 0.0, 0.0, 0.0, 0.0, 0.0, 0.0, 0.0, 0.0, 0.0, 0.0, 0.0, 0.0, 0.0, 0.0, 0.0, 0.0, 0.0, 0.0, 0.0, 0.0, 0.0, 0.0, 0.0, 0.0, 0.0, 0.0, 0.0, 0.0, 2.0, 3.0, 3.0, 4.0, 4.0, 4.0, 6.0, 7.0, 11.0, 16.0, 18.0, 19.0, 23.0, 29.0, 37.0, 49.0, 59.0, 73.0, 84.0, 97.0, 105.0, 108.0, 108.0, 89.0, 43.0, -15.0, -95.0, -187.0, -281.0, -387.0, -489.0, -574.0, -637.0, -678.0, -701.0, -708.0, -711.0, -711.0, -711.0, -711.0, -711.0, -711.0, -711.0, -711.0, -711.0, -711.0, -710.0, -710.0, -710.0, -710.0, -710.0, -710.0, -710.0, -710.0, -710.0]	[-490.0, -490.0, -490.0, -490.0, -490.0, -490.0, -490.0, -490.0, -490.0, -490.0, -490.0, -490.0, -490.0, -490.0, -490.0, -490.0, -490.0, -490.0, -490.0, -490.0, -490.0, -490.0, -490.0, -490.0, -489.0, -489.0, -489.0, -488.0, -488.0, -488.0, -488.0, -487.0, -487.0, -487.0, -487.0, -487.0, -487.0, -487.0, -485.0, -485.0, -485.0, -485.0, -485.0, -483.0, -482.0, -482.0, -482.0, -482.0, -481.0, -480.0, -475.0, -471.0, -461.0, -450.0, -429.0, -403.0, -374.0, -317.0, -257.0, -189.0, -117.0, -37.0, 23.0, 81.0, 138.0, 197.0, 246.0, 290.0, 326.0, 354.0, 366.0, 373.0, 375.0, 375.0, 375.0, 375.0, 376.0, 378.0, 381.0, 383.0, 385.0, 387.0, 387.0, 387.0, 387.0, 387.0, 387.0, 387.0, 387.0, 387.0]	[0.014389406391273951, 0.01983400974495453, 0.026826899778825464, 0.04415876765415305, 0.06024818325749948, 0.07733907000874751, 0.09351108820555964, 0.11069584154392942, 0.12684806242759805, 0.14400789844876272, 0.16017104198908783, 0.17733326734378352, 0.19354214951454196, 0.21065692957563442, 0.22684260109599563, 0.24418607429834083, 0.26033283385186223, 0.27733121934579685, 0.29367868273038766, 0.31071461486135377, 0.3297903532475175, 0.3440468104163301, 0.363384009913716, 0.37736740064792684, 0.3946828845400887, 0.4106978895397333, 0.42835231714343536, 0.4440218931049458, 0.4609014947018295, 0.4772554434130143, 0.49361451211734675, 0.5103780604804342, 0.5300490836962126, 0.5435614348316449, 0.5621664749560296, 0.5768949957200675, 0.5948945110249042, 0.610165751328168, 0.6275355071738886, 0.643553925503511, 0.661172854470351, 0.6770001262957521, 0.6949105536805291, 0.7104354044313368, 0.7274150166085747, 0.7435136482054077, 0.7605536763294367, 0.7771352941817895, 0.7941326556756394, 0.8101800873155298, 0.8274088726138871, 0.8435764534842747, 0.8606827002222417, 0.8769458543429209, 0.8940094344470708, 0.9102783912312589, 0.9273327553455601, 0.943508186875988, 0.9606768975572777, 0.9769434650115727, 0.9941855622964795, 1.0104780710607884, 1.027273022064037, 1.0435160375345731, 1.0606728015627596, 1.0769932996372518, 1.0940353757578123, 1.1104258471059438, 1.127294526046171, 1.1435129655401397, 1.160661878904648, 1.1768407237650536, 1.1940688263966877, 1.210451447084779, 1.2273344620116404, 1.243552218838886, 1.2605796176430886, 1.277079998228146, 1.2939776904750033, 1.3104289191032876, 1.3273255873536982, 1.3439229065224936, 1.3605881509683968, 1.3770885315534542, 1.3940886237141967, 1.4104388177620422, 1.42730374203893, 1.443503408212564, 1.4606939642108046, 1.477119251529075]
26	inanimate/n22.jpg	inanimate	animate	left	1.446	[0.0, 0.0, 0.0, 0.0, 0.0, 0.0, 0.0, 0.0, 0.0, 0.0, 0.0, 0.0, 0.0, 0.0, 0.0, 0.0, 0.0, 0.0, 0.0, 0.0, 0.0, 0.0, 0.0, 0.0, 0.0, 0.0, 0.0, 0.0, 0.0, 0.0, 0.0, 0.0, 0.0, 0.0, 0.0, 0.0, 0.0, 0.0, 0.0, 0.0, 0.0, 0.0, 0.0, 0.0, -3.0, -11.0, -17.0, -33.0, -64.0, -112.0, -147.0, -182.0, -224.0, -284.0, -375.0, -398.0, -487.0, -512.0, -573.0, -603.0, -635.0, -673.0, -698.0, -720.0, -734.0, -744.0, -751.0, -760.0, -766.0, -767.0, -768.0, -768.0, -768.0, -768.0, -768.0, -768.0, -768.0, -768.0, -768.0, -768.0, -768.0, -768.0, -768.0, -768.0, -768.0, -768.0, -768.0]	[-490.0, -490.0, -490.0, -490.0, -490.0, -490.0, -490.0, -490.0, -490.0, -490.0, -490.0, -490.0, -490.0, -490.0, -490.0, -490.0, -490.0, -490.0, -490.0, -490.0, -490.0, -490.0, -490.0, -490.0, -490.0, -490.0, -490.0, -490.0, -490.0, -490.0, -490.0, -490.0, -490.0, -490.0, -490.0, -490.0, -490.0, -490.0, -490.0, -490.0, -490.0, -490.0, -490.0, -490.0, -485.0, -477.0, -469.0, -457.0, -440.0, -411.0, -384.0, -343.0, -286.0, -189.0, -26.0, 34.0, 169.0, 200.0, 259.0, 285.0, 313.0, 336.0, 349.0, 359.0, 365.0, 370.0, 376.0, 384.0, 392.0, 393.0, 395.0, 395.0, 395.0, 395.0, 395.0, 395.0, 395.0, 395.0, 395.0, 395.0, 395.0, 395.0, 395.0, 395.0, 395.0, 395.0, 395.0]	[0.0025804777978919446, 0.009407138641108759, 0.021160941945709055, 0.037128160318388836, 0.057065081971813925, 0.07017158812232083, 0.08754339196457295, 0.10404752721296973, 0.12050626516793272, 0.13693803781279712, 0.1540012765872234, 0.17080373691715067, 0.18712969631815213, 0.20356761295624892, 0.22070492100101546, 0.23692062982809148, 0.25397089794569183, 0.27022381207643775, 0.2877072318260616, 0.3035781942817266, 0.32065235571280937, 0.33684792588974233, 0.3540535005413403, 0.3701930921051826, 0.3873795521030843, 0.4035392823134316, 0.4207195983217389, 0.4368629445452825, 0.45405930320339394, 0.4702002600970445, 0.4874621546987328, 0.5035785356158158, 0.5207254009837925, 0.536921312494087, 0.5539183326582133, 0.5703559079629485, 0.5874570347041299, 0.6043554096177104, 0.62069092634556, 0.63760261324569, 0.6539753352772095, 0.6715816349169472, 0.6873556587925123, 0.7040758578550594, 0.7207663609478914, 0.7374094187471201, 0.7539975219224289, 0.7710573473668774, 0.78759390925552, 0.8041427591342654, 0.8206591823727649, 0.8368339312364697, 0.853689639519871, 0.8732992227851355, 0.8868480965575145, 0.9052800808276515, 0.9204376572270121, 0.9400574804858479, 0.9538374367257347, 0.9707791609362175, 0.9869423044765426, 1.0048803798381414, 1.0201819987778435, 1.0380060689021775, 1.053762684790854, 1.0715147336413793, 1.0869190938319662, 1.1048646785166056, 1.1204550652146281, 1.137697845166258, 1.153781116776372, 1.1706293157294567, 1.1868586778837198, 1.2044052442433895, 1.2203915772661276, 1.237353781460115, 1.2538033034215914, 1.27075970495207, 1.2868508272222243, 1.3039761886102497, 1.3203403773113678, 1.3373128214952885, 1.3537753141135909, 1.3706306810636306, 1.3868515098874923, 1.4040454792157107, 1.420187460109446]
27	inanimate/n24.jpg	inanimate	animate	left	1.208	[0.0, 0.0, 0.0, 0.0, 0.0, 0.0, 0.0, 0.0, 0.0, 0.0, 0.0, 0.0, 0.0, 0.0, 0.0, 0.0, 0.0, 0.0, 0.0, 0.0, 0.0, 0.0, 0.0, 0.0, 0.0, 0.0, 0.0, 0.0, 0.0, 0.0, 0.0, 0.0, 0.0, 0.0, 0.0, -1.0, -1.0, -1.0, -2.0, -2.0, -9.0, -16.0, -29.0, -47.0, -67.0, -95.0, -119.0, -142.0, -162.0, -187.0, -230.0, -304.0, -403.0, -541.0, -642.0, -728.0, -791.0, -841.0, -873.0, -889.0, -895.0, -896.0, -896.0, -896.0, -896.0, -896.0, -896.0, -895.0, -892.0, -891.0, -890.0, -890.0, -890.0]	[-490.0, -490.0, -490.0, -490.0, -490.0, -490.0, -490.0, -490.0, -490.0, -490.0, -490.0, -490.0, -490.0, -490.0, -490.0, -490.0, -490.0, -490.0, -490.0, -490.0, -490.0, -490.0, -490.0, -490.0, -490.0, -490.0, -490.0, -490.0, -490.0, -490.0, -490.0, -490.0, -490.0, -490.0, -490.0, -489.0, -488.0, -488.0, -486.0, -484.0, -465.0, -438.0, -402.0, -361.0, -310.0, -248.0, -189.0, -131.0, -85.0, -28.0, 35.0, 104.0, 161.0, 221.0, 255.0, 291.0, 321.0, 348.0, 367.0, 377.0, 385.0, 387.0, 392.0, 398.0, 410.0, 420.0, 428.0, 435.0, 441.0, 443.0, 444.0, 444.0, 444.0]	[0.011973451117228251, 0.0207736996053427, 0.02707675555939204, 0.039209438542457065, 0.05844219012942631, 0.07254368209760287, 0.08882560953497887, 0.10604313084331807, 0.12490826674547861, 0.13930296379476204, 0.15658602104667807, 0.17271025262016337, 0.18991924060173915, 0.20605371216879576, 0.22294287108888966, 0.2393155931167712, 0.2559770828993351, 0.27266724465880543, 0.28900105471984716, 0.3057833763996314, 0.32540558898836025, 0.3389404681038286, 0.35885690977374907, 0.3723706262426276, 0.39205359611514723, 0.4056273871974554, 0.42246875949422247, 0.4393487024208298, 0.4559764002333395, 0.47264710600939, 0.4891659185777826, 0.5057280804467155, 0.5222745409919298, 0.5392340145190246, 0.5556978724707733, 0.5725805460642732, 0.5888969481420645, 0.6056891684784205, 0.6223236929508857, 0.6393654277417227, 0.655759312419832, 0.6724986261360755, 0.6891928838886088, 0.705699067137175, 0.7226646846611402, 0.7390380893557449, 0.7559296376057318, 0.7723320556106046, 0.7892017585472786, 0.8056915578090411, 0.8225080127922411, 0.83904594001433, 0.8557053817967244, 0.8727682792377891, 0.889198003886122, 0.9057830350648146, 0.9222643009998137, 0.9396241581889626, 0.9556132218749553, 0.9728573671600316, 0.9892024412147293, 1.0061090081217117, 1.0223086742953456, 1.039512200950412, 1.0556081018803525, 1.0727846632253204, 1.0891666012430505, 1.1062496373342583, 1.1222615703372867, 1.139496840962238, 1.1558224590298778, 1.172911639114318, 1.189200734548649]
28	inanimate/n69.jpg	inanimate	animate	left	1.923	[0.0, 0.0, 0.0, 0.0, 0.0, 0.0, 0.0, 0.0, 1.0, 2.0, 2.0, 2.0, 2.0, 3.0, 4.0, 4.0, 4.0, 4.0, 4.0, 4.0, 4.0, 4.0, 4.0, 4.0, 3.0, 3.0, 3.0, 3.0, 1.0, 1.0, 0.0, 0.0, 0.0, -2.0, -2.0, -2.0, -2.0, -2.0, -3.0, -3.0, -3.0, -4.0, -4.0, -4.0, -4.0, -4.0, -4.0, -4.0, -4.0, -4.0, -4.0, -4.0, -4.0, -4.0, -4.0, -4.0, -4.0, -4.0, -4.0, -4.0, -4.0, -4.0, -4.0, -4.0, -4.0, -4.0, -4.0, -4.0, -4.0, -4.0, -4.0, -4.0, -4.0, -4.0, -4.0, -4.0, -4.0, -4.0, -7.0, -8.0, -9.0, 7.0, 29.0, 53.0, 81.0, 112.0, 151.0, 201.0, 260.0, 319.0, 363.0, 385.0, 389.0, 376.0, 334.0, 244.0, 121.0, -36.0, -204.0, -372.0, -521.0, -635.0, -715.0, -760.0, -787.0, -809.0, -820.0, -831.0, -840.0, -845.0, -845.0, -845.0, -845.0, -845.0, -845.0, -845.0]	[-490.0, -490.0, -490.0, -490.0, -490.0, -490.0, -490.0, -490.0, -490.0, -490.0, -490.0, -490.0, -490.0, -488.0, -487.0, -487.0, -487.0, -486.0, -486.0, -485.0, -485.0, -484.0, -484.0, -483.0, -481.0, -479.0, -477.0, -475.0, -473.0, -470.0, -469.0, -466.0, -466.0, -464.0, -464.0, -463.0, -463.0, -462.0, -460.0, -459.0, -459.0, -458.0, -458.0, -458.0, -458.0, -458.0, -458.0, -458.0, -458.0, -458.0, -458.0, -458.0, -458.0, -458.0, -458.0, -458.0, -458.0, -457.0, -457.0, -457.0, -457.0, -457.0, -457.0, -457.0, -457.0, -457.0, -457.0, -457.0, -457.0, -457.0, -457.0, -457.0, -457.0, -457.0, -457.0, -457.0, -453.0, -444.0, -429.0, -413.0, -378.0, -278.0, -231.0, -189.0, -146.0, -102.0, -49.0, 7.0, 57.0, 107.0, 156.0, 198.0, 221.0, 244.0, 255.0, 266.0, 276.0, 278.0, 286.0, 308.0, 332.0, 352.0, 370.0, 384.0, 395.0, 404.0, 409.0, 413.0, 414.0, 415.0, 415.0, 415.0, 415.0, 415.0, 415.0, 415.0]	[0.016496796590217855, 0.022768791237467667, 0.030232379533117637, 0.049483563107060036, 0.06324372203016537, 0.08031549413135508, 0.09702477053724579, 0.11379139089694945, 0.13001768105095834, 0.1470065092216828, 0.16382023353799013, 0.18059197389447945, 0.19710873846634058, 0.21401325737315346, 0.23018971290366608, 0.24694165594337392, 0.2637335349463683, 0.2802803368285822, 0.2966042482294142, 0.31368352965728263, 0.3302689021693368, 0.349391061852657, 0.36335363127000164, 0.3804800166581117, 0.3964738590075285, 0.41377637224286445, 0.42996648109328817, 0.4471710317484394, 0.46342667654243996, 0.48041243271291023, 0.4991987206849444, 0.5136985483113676, 0.5330705637788924, 0.5470010478929908, 0.5648148780237534, 0.5805639845857513, 0.5979702630647807, 0.6138122122138157, 0.6299490731107653, 0.6467453894438222, 0.6665440712167765, 0.6799489024415379, 0.6988669449674489, 0.7135497271046916, 0.7311686560678936, 0.7465982749017712, 0.7648374060045171, 0.7802134355515591, 0.7983600654006295, 0.8135446071064507, 0.830574736573908, 0.8466406002007716, 0.8637932682286191, 0.8802018302267243, 0.8971391171071446, 0.9135374391153164, 0.9303962193953339, 0.9467460721098178, 0.9637765429106366, 0.9802311848688987, 0.9971653997527028, 1.013587615070719, 1.030468582001049, 1.0466320668747358, 1.063827742866124, 1.080063590346981, 1.0970892824843759, 1.1135271991224727, 1.1304719953295717, 1.14692970928445, 1.163775860244641, 1.1802489341862383, 1.197002583889116, 1.2135852257415536, 1.2304815526549646, 1.2466368455352494, 1.263804873553454, 1.2802438141916355, 1.297107373135077, 1.3135295884530933, 1.3303921233964502, 1.346878509328235, 1.3636953056447965, 1.3802018302267243, 1.3971913410641719, 1.4132718820073933, 1.4304638033354422, 1.4467382214497775, 1.4637724469139357, 1.4801427796119242, 1.497146626436006, 1.5136169697143487, 1.530368571417057, 1.5467931760686042, 1.5637611829224625, 1.5800366250332445, 1.5971735917446495, 1.6132705166746746, 1.6304764326596342, 1.6467119388034916, 1.663788830901467, 1.6799454891115602, 1.6971715437466628, 1.713288607326831, 1.73048052865488, 1.7467378801156883, 1.7637318282831984, 1.7800106837239582, 1.7972288876990206, 1.8132831459988665, 1.8304965713105048, 1.8466347975372628, 1.863843444185477, 1.8800321877060924, 1.8972046530507214, 1.913312500641041]
29	inanimate/n3.jpg	animate	inanimate	right	1.261	[0.0, 0.0, 0.0, 0.0, 0.0, 0.0, 0.0, 0.0, 0.0, 0.0, 0.0, 0.0, 0.0, 0.0, 0.0, 0.0, 0.0, 0.0, 0.0, 0.0, 0.0, 0.0, 0.0, 0.0, 0.0, 0.0, 0.0, 0.0, 0.0, 0.0, 0.0, 0.0, 0.0, 0.0, 0.0, 0.0, 0.0, 0.0, 0.0, 0.0, 0.0, 1.0, 1.0, 4.0, 5.0, 6.0, 7.0, 9.0, 11.0, 11.0, 11.0, 11.0, 16.0, 70.0, 136.0, 233.0, 349.0, 478.0, 606.0, 716.0, 820.0, 888.0, 906.0, 908.0, 895.0, 884.0, 836.0, 815.0, 799.0, 786.0, 780.0, 779.0, 779.0, 779.0, 779.0, 779.0]	[-490.0, -490.0, -490.0, -490.0, -490.0, -490.0, -490.0, -490.0, -490.0, -490.0, -490.0, -490.0, -490.0, -490.0, -490.0, -490.0, -490.0, -490.0, -490.0, -490.0, -490.0, -490.0, -490.0, -490.0, -490.0, -490.0, -490.0, -490.0, -490.0, -488.0, -488.0, -485.0, -483.0, -482.0, -481.0, -480.0, -480.0, -480.0, -479.0, -479.0, -478.0, -476.0, -473.0, -468.0, -463.0, -460.0, -455.0, -449.0, -443.0, -433.0, -417.0, -391.0, -358.0, -263.0, -173.0, -84.0, -6.0, 76.0, 146.0, 208.0, 270.0, 311.0, 335.0, 355.0, 385.0, 398.0, 432.0, 447.0, 459.0, 468.0, 473.0, 474.0, 474.0, 474.0, 474.0, 474.0]	[0.0008277326305687893, 0.014089886648434913, 0.020088814861082938, 0.03349979008635273, 0.050577364847413264, 0.0667370950577606, 0.08392150705913082, 0.1000491519625939, 0.11722673730400857, 0.1339008564100368, 0.15052036222914467, 0.16672412439947948, 0.18393618438130943, 0.20037956234955345, 0.2171946519993071, 0.23344824879677617, 0.25048793558744364, 0.2668992282524414, 0.2838064778225089, 0.3001047892503266, 0.31737828917539446, 0.33344859012868255, 0.35052206889304216, 0.36673948438692605, 0.3839607603586046, 0.4000788479388575, 0.4172455106236157, 0.43341855282051256, 0.4506487034523161, 0.46695418286981294, 0.48388225376038463, 0.500205823831493, 0.5174264171364484, 0.5335782966867555, 0.5505418662105512, 0.5670456601255864, 0.5839566643626313, 0.6002406398001767, 0.6172304919673479, 0.6335957046685508, 0.6505316262191627, 0.6668473456302308, 0.68380169916054, 0.7012472309397708, 0.7174199318069441, 0.7347995863092365, 0.7505544955311052, 0.767169222686789, 0.7837662005258608, 0.8002826237643603, 0.817177585347963, 0.8334001208386326, 0.8501954131716047, 0.8699568896408891, 0.8834671927797899, 0.9032494905659405, 0.9168219163184403, 0.9351829033148533, 0.9502988370841194, 0.9673217985582596, 0.9835668620289653, 1.00134997218629, 1.0167539910435153, 1.0350398847695033, 1.050306346409343, 1.0679730620031478, 1.0836764299347124, 1.1005089275713544, 1.1168669722792401, 1.1337479392059322, 1.1501677651940554, 1.1671869720048562, 1.183636152636609, 1.2006038181571057, 1.2169171482346428, 1.2338223498118168]
30	inanimate/n38.jpg	animate	inanimate	right	1.227	[0.0, 0.0, 0.0, 0.0, 0.0, 0.0, 0.0, 0.0, 0.0, 0.0, 0.0, 0.0, 0.0, 0.0, 0.0, 0.0, 1.0, 1.0, 1.0, 1.0, 1.0, 1.0, 1.0, 1.0, 1.0, 1.0, 1.0, 1.0, 1.0, 1.0, 1.0, 1.0, 1.0, 1.0, 1.0, 1.0, 1.0, 1.0, 1.0, 1.0, 1.0, 1.0, 1.0, 2.0, 2.0, 2.0, 5.0, 9.0, 14.0, 26.0, 83.0, 148.0, 226.0, 311.0, 406.0, 497.0, 574.0, 622.0, 650.0, 663.0, 672.0, 682.0, 686.0, 695.0, 700.0, 701.0, 701.0, 701.0, 701.0, 701.0, 701.0, 701.0, 701.0, 701.0]	[-490.0, -490.0, -490.0, -490.0, -490.0, -490.0, -489.0, -488.0, -488.0, -487.0, -487.0, -486.0, -486.0, -486.0, -486.0, -485.0, -485.0, -484.0, -484.0, -483.0, -483.0, -483.0, -482.0, -482.0, -481.0, -481.0, -481.0, -481.0, -481.0, -481.0, -481.0, -481.0, -481.0, -481.0, -481.0, -481.0, -481.0, -481.0, -481.0, -480.0, -480.0, -480.0, -479.0, -477.0, -475.0, -471.0, -469.0, -463.0, -455.0, -436.0, -359.0, -276.0, -172.0, -58.0, 65.0, 177.0, 268.0, 336.0, 382.0, 406.0, 421.0, 440.0, 446.0, 461.0, 468.0, 468.0, 469.0, 469.0, 469.0, 469.0, 469.0, 469.0, 469.0, 469.0]	[0.0029399014929367695, 0.00980547429935541, 0.02282459918933455, 0.038249439359788084, 0.054875771838851506, 0.07131846714401036, 0.09075192255841102, 0.10456430543854367, 0.1226061460438359, 0.13787772767682327, 0.15513245428883238, 0.1711198113116552, 0.18823971136953332, 0.2045339267970121, 0.22178762940893648, 0.23803098621283425, 0.2551191422971897, 0.2711549686137005, 0.2884383671989781, 0.30474725995009067, 0.3219552239315817, 0.33781492239722866, 0.3551863849097572, 0.37121948055937537, 0.38879744955920614, 0.40466329202172346, 0.42186135734664276, 0.4380122128968651, 0.4548979584869812, 0.4713194911419123, 0.4881827087519923, 0.504679676007072, 0.521617986887577, 0.5380262075523206, 0.5549034198156733, 0.5714532936945034, 0.5882509753610066, 0.6045376814618066, 0.6217077574765426, 0.6377599677798571, 0.6549054678143875, 0.6711201526450168, 0.6882707726763329, 0.7045318788004806, 0.721482819000812, 0.7380419088731287, 0.754892838493106, 0.7714085790648824, 0.7882366393714619, 0.8048459051969985, 0.8216196935500193, 0.8381323621288175, 0.85478361191781, 0.8711870539227675, 0.8881502821132017, 0.9045369987943559, 0.9216449521954928, 0.9377500691189198, 0.9549228758005484, 0.9711983179113304, 0.9882113807252608, 1.0045021828263998, 1.0215015923204191, 1.0378398397115234, 1.054793851908471, 1.0711372192963609, 1.0882567780208774, 1.104304892327491, 1.121541186952527, 1.1378394983767066, 1.1548911318277533, 1.171063491361565, 1.188234250039386, 1.2044018309097737]
31	inanimate/n79.jpg	inanimate	animate	right	1.272	[0.0, 0.0, 0.0, 0.0, 0.0, 0.0, 0.0, 0.0, 0.0, 0.0, 0.0, 0.0, 0.0, 0.0, 0.0, 0.0, 0.0, 0.0, 0.0, 0.0, 0.0, 0.0, 0.0, 0.0, 0.0, 0.0, 0.0, 0.0, 0.0, 0.0, 0.0, 0.0, 0.0, 0.0, 0.0, 0.0, -1.0, 0.0, 1.0, 3.0, 3.0, 5.0, 6.0, 7.0, 10.0, 11.0, 11.0, 20.0, 57.0, 92.0, 131.0, 177.0, 245.0, 322.0, 386.0, 444.0, 492.0, 540.0, 599.0, 697.0, 728.0, 747.0, 759.0, 767.0, 770.0, 771.0, 771.0, 772.0, 772.0, 772.0, 772.0, 773.0, 773.0, 773.0, 773.0, 773.0]	[-490.0, -490.0, -490.0, -490.0, -490.0, -490.0, -490.0, -490.0, -490.0, -490.0, -490.0, -490.0, -490.0, -490.0, -490.0, -490.0, -490.0, -490.0, -490.0, -490.0, -490.0, -490.0, -490.0, -490.0, -490.0, -490.0, -490.0, -490.0, -490.0, -490.0, -490.0, -490.0, -490.0, -490.0, -490.0, -490.0, -490.0, -489.0, -488.0, -485.0, -484.0, -483.0, -480.0, -478.0, -470.0, -462.0, -442.0, -408.0, -333.0, -279.0, -229.0, -175.0, -99.0, -11.0, 67.0, 134.0, 186.0, 235.0, 296.0, 386.0, 415.0, 436.0, 451.0, 460.0, 464.0, 466.0, 468.0, 469.0, 469.0, 469.0, 469.0, 470.0, 470.0, 470.0, 470.0, 470.0]	[0.0072473538129997905, 0.012910410314361798, 0.028536978312331485, 0.044779993786505656, 0.06194802180471015, 0.07827637053560466, 0.09539661192684434, 0.11161880608415231, 0.12872471148875775, 0.14498957227624487, 0.1620418883903767, 0.1781944506074069, 0.19535053196523222, 0.2118048325937707, 0.22869672217711923, 0.2448677163774846, 0.2619487044685229, 0.2782487225595105, 0.29538295860402286, 0.31152698749428964, 0.32874246080609737, 0.34484109240293037, 0.36202755240083206, 0.3782889998583414, 0.3953972945928399, 0.41152835282628075, 0.42869501551103895, 0.4448636203815113, 0.4620480323828815, 0.478294802520395, 0.49527816936097224, 0.5115925234385941, 0.5287503114668652, 0.5449475883106061, 0.5620650990349532, 0.5784152930827986, 0.5952921640164277, 0.6145102382834011, 0.6287015008419985, 0.6479793083890399, 0.6619954670968582, 0.6811015841267363, 0.6953099133352225, 0.7143071451246215, 0.728627431570203, 0.7455053265002789, 0.7619343684818887, 0.7785071116741165, 0.7950989695127646, 0.8117546566354576, 0.8286711221990117, 0.8448943403564044, 0.8618176325799141, 0.8781790906177775, 0.8949044096807484, 0.9120191897418408, 0.9282454798958497, 0.9450431615623529, 0.9617800859450654, 0.9786511542151857, 0.9951232041603362, 1.0120062190871977, 1.0283611917984672, 1.0452285054052481, 1.0617210353302653, 1.0785460236402287, 1.0951095508389699, 1.1119321498154022, 1.1283198905002791, 1.1453199826610216, 1.1615135048414231, 1.1786975755094318, 1.1950948735175189, 1.2120383043911716, 1.228183357281523, 1.2453722066129558]
32	animate/a59.jpg	animate	inanimate	left	1.553	[0.0, 0.0, 0.0, 0.0, 0.0, 0.0, 0.0, 0.0, 0.0, 0.0, 0.0, 0.0, 0.0, 0.0, 0.0, 0.0, 0.0, 0.0, 0.0, 0.0, 0.0, 0.0, 0.0, 0.0, 0.0, 0.0, 0.0, 0.0, 0.0, 0.0, 0.0, 0.0, 0.0, 0.0, 0.0, 0.0, 0.0, 0.0, 1.0, 1.0, 1.0, 1.0, 1.0, 1.0, 1.0, 1.0, 1.0, 0.0, -2.0, -4.0, -9.0, -10.0, -11.0, -14.0, -19.0, -26.0, -40.0, -72.0, -128.0, -206.0, -285.0, -361.0, -480.0, -563.0, -633.0, -692.0, -730.0, -749.0, -761.0, -765.0, -765.0, -766.0, -767.0, -767.0, -767.0, -767.0, -767.0, -767.0, -767.0, -767.0, -767.0, -767.0, -765.0, -763.0, -757.0, -749.0, -738.0, -733.0, -730.0, -730.0, -730.0, -729.0, -729.0]	[-490.0, -490.0, -490.0, -490.0, -490.0, -490.0, -490.0, -490.0, -490.0, -490.0, -490.0, -490.0, -490.0, -490.0, -490.0, -490.0, -490.0, -490.0, -490.0, -490.0, -490.0, -490.0, -490.0, -490.0, -490.0, -490.0, -490.0, -490.0, -490.0, -490.0, -490.0, -490.0, -490.0, -490.0, -490.0, -490.0, -490.0, -490.0, -489.0, -489.0, -489.0, -488.0, -483.0, -478.0, -471.0, -464.0, -457.0, -446.0, -433.0, -415.0, -392.0, -376.0, -361.0, -343.0, -322.0, -299.0, -266.0, -212.0, -143.0, -77.0, -17.0, 33.0, 109.0, 159.0, 206.0, 240.0, 267.0, 280.0, 289.0, 292.0, 293.0, 295.0, 299.0, 303.0, 312.0, 317.0, 322.0, 324.0, 325.0, 326.0, 327.0, 329.0, 332.0, 339.0, 349.0, 368.0, 393.0, 403.0, 408.0, 409.0, 409.0, 409.0, 409.0]	[0.004198908416583436, 0.012344480132014723, 0.02332652942641289, 0.03977673405461246, 0.0569109701027628, 0.07310449228316429, 0.09041895217524143, 0.10697940737736644, 0.12382316900402657, 0.14179435366895632, 0.15703487399514415, 0.1764939293898351, 0.19035375756357098, 0.2097773143213999, 0.2236770784620603, 0.24125436479516793, 0.2571628738878644, 0.2743506992192124, 0.29047561345942086, 0.3073937856897828, 0.3238569609748083, 0.34030443493975326, 0.3566911516209075, 0.3764505800936604, 0.3902394109936722, 0.4083901368394436, 0.42351153193521895, 0.44058398669949383, 0.4568450928236416, 0.4737414197406906, 0.4902397523255786, 0.5070787352924526, 0.5232920547896356, 0.540473053461028, 0.5569945966963132, 0.5738888756131928, 0.5901735337174614, 0.6070780526242743, 0.6233005881149438, 0.6403327655825706, 0.6567143622705771, 0.6739550942220376, 0.6899595178983873, 0.7069493700691964, 0.723565121221327, 0.7404116135148797, 0.756893562116602, 0.773893995610706, 0.7901851390415686, 0.807067471301707, 0.8233691960558644, 0.8404890961137426, 0.8565952370372543, 0.8740080008465156, 0.889944840579119, 0.9071162819273013, 0.923288641457475, 0.9404529148123402, 0.9568597701436374, 0.9738042250173748, 0.9901953790322295, 1.007126863249141, 1.0235787745441485, 1.0404457468175679, 1.0566317596712906, 1.0739769395368057, 1.0899724885566684, 1.107096825940971, 1.1232828387983318, 1.1404208295061835, 1.1568259781743109, 1.1738346036581788, 1.1901673897227738, 1.2070671299661626, 1.2232831801302382, 1.2404447228182107, 1.2568495301529765, 1.2738926302772597, 1.2899619072304631, 1.3071162819251185, 1.3233214094325376, 1.3404382374901616, 1.3568792261285125, 1.3738646409656212, 1.3901585150633764, 1.4071053592670069, 1.4234221026781597, 1.440381234871893, 1.4566512156561657, 1.4738066143509059, 1.4899352832544537, 1.507126863249141, 1.5233688547232305]
33	animate/a62.jpg	inanimate	animate	right	1.317	[0.0, 0.0, 0.0, 0.0, 0.0, 0.0, 0.0, 0.0, 0.0, 0.0, 0.0, 0.0, 0.0, 0.0, 0.0, 0.0, 0.0, 0.0, 0.0, 0.0, 0.0, 0.0, 0.0, 0.0, 0.0, 0.0, 0.0, 0.0, 0.0, 0.0, 0.0, 0.0, 0.0, 0.0, 0.0, 0.0, 0.0, 1.0, 1.0, -8.0, -33.0, -73.0, -115.0, -141.0, -147.0, -146.0, -132.0, -131.0, -152.0, -183.0, -210.0, -248.0, -298.0, -368.0, -446.0, -513.0, -527.0, -528.0, -517.0, -487.0, -406.0, -219.0, -55.0, 110.0, 281.0, 430.0, 554.0, 638.0, 684.0, 699.0, 701.0, 701.0, 701.0, 701.0, 701.0, 702.0, 704.0, 705.0, 707.0, 707.0]	[-490.0, -490.0, -490.0, -490.0, -490.0, -490.0, -490.0, -490.0, -490.0, -490.0, -490.0, -490.0, -490.0, -490.0, -490.0, -490.0, -490.0, -490.0, -490.0, -490.0, -490.0, -490.0, -490.0, -489.0, -489.0, -489.0, -489.0, -489.0, -489.0, -489.0, -489.0, -489.0, -489.0, -489.0, -489.0, -489.0, -487.0, -477.0, -459.0, -434.0, -392.0, -320.0, -235.0, -161.0, -110.0, -70.0, -24.0, 21.0, 106.0, 155.0, 183.0, 208.0, 237.0, 266.0, 299.0, 326.0, 334.0, 334.0, 342.0, 351.0, 360.0, 374.0, 374.0, 374.0, 385.0, 404.0, 423.0, 436.0, 446.0, 451.0, 452.0, 452.0, 452.0, 452.0, 452.0, 452.0, 453.0, 454.0, 455.0, 455.0]	[0.012443466712284135, 0.017280838583246805, 0.02297051906134584, 0.037919882306596264, 0.05404786854342092, 0.07120702190150041, 0.0874200000653218, 0.10461328672681702, 0.12131402980958228, 0.13787960500849294, 0.15429021500312956, 0.17139714440418174, 0.18803371687681647, 0.2045177134750702, 0.22086893152300036, 0.2380499301943928, 0.25417620976804756, 0.2713616457695025, 0.2875193279796804, 0.30467267867788905, 0.3208354808848526, 0.338142431450251, 0.35416767643982894, 0.37134287245135056, 0.3875080639918451, 0.404730705293332, 0.4208501582070312, 0.43814379678224213, 0.454383057589439, 0.47136540043356945, 0.48780331707166624, 0.504700667985162, 0.524080534116365, 0.5379529916099273, 0.5571833538670035, 0.5712401312048314, 0.5902813949578558, 0.6045620867698744, 0.6217024668112572, 0.6380134075589012, 0.6547202946348989, 0.6713548191073642, 0.6876073919047485, 0.7044112175681221, 0.7211976352409692, 0.7379553809441859, 0.7544260655558901, 0.7710414753746591, 0.7874961173329211, 0.8042818523426831, 0.8209194488117646, 0.8377485331184289, 0.8541400284666452, 0.8711520672804909, 0.8874869013416173, 0.9045170308090746, 0.9210832886747085, 0.937606197239802, 0.9545960494106112, 0.9710442060386413, 0.9875070399903052, 1.0044276015541982, 1.0209549474493542, 1.037688458502089, 1.0541512924537528, 1.0710984779943828, 1.0874985066657246, 1.104343633625831, 1.121076803345204, 1.1377058664875221, 1.1541424177958106, 1.1711674272701202, 1.18751420798435, 1.20450986281503, 1.2211068406541017, 1.2375741119358281, 1.2541454897946096, 1.271588973573671, 1.2878500796978187, 1.3047266092980863]
