trialIndex	stimulus	isAnimate	left_option	right_option	response	response_time	xTrajectory	yTrajectory	tTrajectory
0	米饭	False	animate	inanimate	right	1.387	[0.0, 0.0, 0.0, 0.0, 0.0, 0.0, 0.0, 0.0, 0.0, 0.0, -2.0, -3.0, -7.0, -4.0, -1.0, -1.0, -1.0, -1.0, -1.0, -1.0, -1.0, -1.0, -1.0, -1.0, -1.0, 22.0, 45.0, 62.0, 77.0, 81.0, 81.0, 81.0, 70.0, 55.0, 49.0, 45.0, 40.0, 24.0, 6.0, -29.0, -75.0, -123.0, -186.0, -251.0, -317.0, -384.0, -449.0, -546.0, -603.0, -651.0, -694.0, -727.0, -752.0, -766.0, -775.0, -783.0, -783.0, -783.0, -783.0, -756.0, -726.0, -553.0, -388.0, -213.0, -16.0, 181.0, 349.0, 509.0, 638.0, 739.0, 801.0, 844.0, 847.0, 847.0, 847.0, 847.0, 847.0, 847.0, 847.0, 847.0, 847.0]	[-490.0, -490.0, -490.0, -490.0, -490.0, -490.0, -490.0, -490.0, -490.0, -490.0, -482.0, -474.0, -469.0, -461.0, -459.0, -459.0, -459.0, -459.0, -459.0, -459.0, -459.0, -459.0, -459.0, -459.0, -459.0, -467.0, -475.0, -481.0, -482.0, -482.0, -478.0, -473.0, -453.0, -423.0, -405.0, -379.0, -370.0, -328.0, -285.0, -224.0, -154.0, -71.0, 11.0, 96.0, 169.0, 240.0, 299.0, 378.0, 418.0, 447.0, 471.0, 489.0, 499.0, 502.0, 505.0, 506.0, 506.0, 506.0, 504.0, 482.0, 472.0, 440.0, 421.0, 421.0, 421.0, 421.0, 426.0, 450.0, 468.0, 482.0, 491.0, 499.0, 500.0, 500.0, 500.0, 500.0, 500.0, 500.0, 500.0, 500.0, 500.0]	[0.005110165220685303, 0.009967675723601133, 0.02672473876737058, 0.04370264426688664, 0.06073652839404531, 0.07573470228817314, 0.09394584406982176, 0.11035235808230937, 0.12590997680672444, 0.143762718886137, 0.1606805498013273, 0.1756937423197087, 0.19396188671817072, 0.21056125388713554, 0.2259557154320646, 0.2438879881228786, 0.26070341910235584, 0.27570773696061224, 0.2940089906915091, 0.3104892326227855, 0.32599838206078857, 0.34390539609012194, 0.3607583737175446, 0.3757251449569594, 0.3944465796521399, 0.41059743519872427, 0.4259526434179861, 0.4438245001656469, 0.46073072575381957, 0.47574084627558477, 0.4939769053889904, 0.5103830780426506, 0.5258993954630569, 0.5438248415011913, 0.5606583631306421, 0.5756893049692735, 0.5939349214022513, 0.6104629499604926, 0.6258666274952702, 0.6437350709165912, 0.6606344698229805, 0.6757640569121577, 0.6939267294073943, 0.7104015100339893, 0.7259123661206104, 0.743701961619081, 0.7606180858274456, 0.7761367925850209, 0.7943916250078473, 0.8131898596475367, 0.8257229262962937, 0.8435568950662855, 0.8606218405184336, 0.8755053264612798, 0.893870068131946, 0.9104516859806608, 0.9258959821308963, 0.9437634015630465, 0.9607314084132668, 0.9756647289905231, 0.993897374777589, 1.0105196112708654, 1.0259505954163615, 1.0438405428139959, 1.0606484644813463, 1.0757053476409055, 1.0939137587556615, 1.1104411046544556, 1.125872430158779, 1.1437081056064926, 1.1606682617857587, 1.1756125050596893, 1.194420296989847, 1.2104318886704277, 1.2259140727983322, 1.2437640842108522, 1.260771003057016, 1.2756411770242266, 1.2939830493705813, 1.3103868327161763, 1.325898030132521]
1	法官	True	inanimate	animate	right	1.041	[0.0, 0.0, 0.0, 0.0, 0.0, -3.0, -5.0, -7.0, -12.0, -14.0, -14.0, -14.0, -13.0, -3.0, 3.0, 5.0, 10.0, 13.0, 15.0, 15.0, 15.0, 15.0, 15.0, 15.0, 10.0, -2.0, -34.0, -73.0, -121.0, -173.0, -232.0, -292.0, -352.0, -410.0, -460.0, -545.0, -576.0, -633.0, -669.0, -689.0, -704.0, -719.0, -725.0, -731.0, -731.0, -732.0, -732.0, -732.0, -732.0, -659.0, -500.0, -270.0, -31.0, 198.0, 407.0, 574.0, 699.0, 778.0, 815.0, 817.0, 817.0, 817.0]	[-490.0, -490.0, -490.0, -490.0, -490.0, -489.0, -485.0, -478.0, -465.0, -454.0, -435.0, -419.0, -409.0, -375.0, -353.0, -332.0, -310.0, -291.0, -270.0, -246.0, -221.0, -192.0, -165.0, -136.0, -98.0, -40.0, 16.0, 78.0, 134.0, 184.0, 235.0, 275.0, 315.0, 348.0, 375.0, 414.0, 424.0, 441.0, 446.0, 447.0, 447.0, 447.0, 444.0, 441.0, 441.0, 440.0, 440.0, 440.0, 440.0, 440.0, 440.0, 440.0, 440.0, 440.0, 450.0, 472.0, 491.0, 501.0, 514.0, 516.0, 516.0, 516.0]	[0.00041922525269910693, 0.005177407845621929, 0.01597957464400679, 0.03451225213939324, 0.05083548088441603, 0.0663091316819191, 0.08400212990818545, 0.10105308069614694, 0.11599459327408113, 0.13430813499144278, 0.1508969208225608, 0.16617464646697044, 0.18412262047058903, 0.20096774742705747, 0.2159918626130093, 0.23428697235067375, 0.25067744369152933, 0.2661903477855958, 0.28392259930842556, 0.30099573676125146, 0.31599459328572266, 0.3342668336990755, 0.3507883769343607, 0.3662289184285328, 0.38404513787827455, 0.4009203021414578, 0.4159898146172054, 0.43425693502649665, 0.45060951841878705, 0.4662371104059275, 0.48384341003838927, 0.5009165474912152, 0.5159782092960086, 0.5341961777594406, 0.5506573050515726, 0.5661763531388715, 0.5840021299081855, 0.6008974328287877, 0.6159618253004737, 0.6342149510746822, 0.6506624250323512, 0.6663234676816501, 0.6841724551049992, 0.7010015394189395, 0.7159778679779265, 0.7342470363655593, 0.7506590117118321, 0.7662132171099074, 0.7837983540957794, 0.8009090381674469, 0.8159833292884286, 0.8342985776544083, 0.8507303502992727, 0.8662968436838128, 0.8837891381117515, 0.9009609207860194, 0.9160072226077318, 0.9343371482973453, 0.950511897157412, 0.9661848864634521, 0.9838147380796727, 1.0010841420153156]
2	大象	True	inanimate	animate	right	0.871	[0.0, 0.0, 0.0, 0.0, 0.0, 0.0, 0.0, 0.0, 0.0, 0.0, 0.0, 0.0, 0.0, 0.0, 0.0, 0.0, 0.0, 0.0, 0.0, 0.0, -1.0, -3.0, -9.0, -20.0, -36.0, -67.0, -105.0, -150.0, -209.0, -269.0, -331.0, -398.0, -463.0, -520.0, -569.0, -610.0, -646.0, -663.0, -668.0, -672.0, -676.0, -678.0, -678.0, -627.0, -461.0, -227.0, 23.0, 289.0, 537.0, 764.0, 901.0, 959.0, 959.0]	[-490.0, -490.0, -490.0, -490.0, -490.0, -490.0, -490.0, -490.0, -490.0, -490.0, -490.0, -490.0, -490.0, -489.0, -471.0, -449.0, -405.0, -373.0, -351.0, -296.0, -243.0, -191.0, -142.0, -89.0, -32.0, 28.0, 88.0, 151.0, 213.0, 270.0, 322.0, 361.0, 393.0, 418.0, 433.0, 444.0, 451.0, 451.0, 450.0, 446.0, 437.0, 419.0, 415.0, 411.0, 421.0, 451.0, 483.0, 502.0, 506.0, 506.0, 506.0, 506.0, 506.0]	[0.014607415796490386, 0.021162034187000245, 0.02815185222425498, 0.046026780968531966, 0.06394062167964876, 0.0783738893806003, 0.09618669550400227, 0.11316084634745494, 0.12796377771883272, 0.1464759752561804, 0.1628497212950606, 0.17834009739453904, 0.1960743969248142, 0.21310793972224928, 0.2281037242792081, 0.24636367667699233, 0.26291559857781976, 0.2782759268011432, 0.2962279968196526, 0.31303694247617386, 0.32805150031344965, 0.3463548020226881, 0.3627445907040965, 0.3783697933831718, 0.39598633302375674, 0.41291167322197, 0.4280996282759588, 0.44631964471773244, 0.46282480398076586, 0.47830664677894674, 0.4961727008630987, 0.5130191931384616, 0.5280914362811018, 0.5463844980113208, 0.5629135505587328, 0.5783831053704489, 0.5962897780991625, 0.6130263611266855, 0.6280829029565211, 0.6463821086799726, 0.6628364092903212, 0.6782878734520636, 0.6961781621794216, 0.7130335291440133, 0.7281040656089317, 0.7463367113668937, 0.7625684628728777, 0.7783670627104584, 0.7959115810808726, 0.8130591291119345, 0.8280743696377613, 0.8463623113639187, 0.8629350545525085]
3	公路	False	animate	inanimate	right	0.992	[0.0, 0.0, 0.0, 0.0, 0.0, 0.0, 0.0, 0.0, 0.0, 0.0, 9.0, 19.0, 22.0, 36.0, 44.0, 49.0, 57.0, 57.0, 57.0, 57.0, 52.0, 36.0, -12.0, -66.0, -98.0, -201.0, -288.0, -369.0, -436.0, -493.0, -526.0, -565.0, -575.0, -591.0, -596.0, -596.0, -596.0, -608.0, -629.0, -658.0, -699.0, -735.0, -757.0, -768.0, -773.0, -773.0, -773.0, -773.0, -773.0, -632.0, -405.0, -135.0, 127.0, 359.0, 588.0, 766.0, 874.0, 913.0, 914.0]	[-490.0, -490.0, -490.0, -490.0, -490.0, -490.0, -490.0, -490.0, -486.0, -466.0, -428.0, -401.0, -386.0, -322.0, -286.0, -246.0, -194.0, -145.0, -104.0, -66.0, -25.0, 20.0, 103.0, 154.0, 171.0, 228.0, 266.0, 302.0, 332.0, 349.0, 356.0, 367.0, 370.0, 373.0, 373.0, 373.0, 373.0, 377.0, 383.0, 392.0, 403.0, 419.0, 432.0, 438.0, 443.0, 443.0, 443.0, 443.0, 443.0, 443.0, 443.0, 450.0, 466.0, 498.0, 523.0, 540.0, 540.0, 540.0, 540.0]	[0.004234304651618004, 0.009709627978736535, 0.02402854908723384, 0.04208199502318166, 0.05910188451525755, 0.07371776536456309, 0.09221460291882977, 0.10879724475671537, 0.12413641033344902, 0.14205605370807461, 0.1591281671426259, 0.17391232520458288, 0.19221972289960831, 0.2085815222817473, 0.224195119633805, 0.24202362707001157, 0.25903088721679524, 0.2736355040979106, 0.29205246971105225, 0.3087361461366527, 0.32408418637351133, 0.3419348804745823, 0.3588909406680614, 0.3739358771708794, 0.3921248323167674, 0.40863374623586424, 0.4241224156867247, 0.4419884697708767, 0.45885987937799655, 0.4736491574149113, 0.49207533901790157, 0.508644327550428, 0.5241121756844223, 0.541756363294553, 0.5588434953824617, 0.5736539360950701, 0.5921162989980076, 0.6085740129637998, 0.6241207090206444, 0.6419649177987594, 0.6590469298826065, 0.6736645174096338, 0.6922019735793583, 0.7084845837089233, 0.7241650823270902, 0.7417300806555431, 0.75888650334673, 0.7739031091914512, 0.7921548696176615, 0.8086337462300435, 0.8240974983782507, 0.8419748164596967, 0.8589793459395878, 0.8736617867543828, 0.8921422403072938, 0.9087852981174365, 0.9241446023224853, 0.9418840218568221, 0.9589493086386938]
4	书包	False	inanimate	animate	left	0.73	[0.0, 0.0, 0.0, 0.0, 0.0, 0.0, 0.0, 0.0, 0.0, 0.0, 2.0, 2.0, 2.0, 2.0, 2.0, 2.0, 2.0, -3.0, -13.0, -32.0, -55.0, -83.0, -143.0, -200.0, -273.0, -356.0, -416.0, -494.0, -553.0, -634.0, -698.0, -750.0, -780.0, -795.0, -807.0, -813.0, -816.0, -819.0, -821.0, -821.0, -821.0, -821.0, -821.0, -821.0]	[-490.0, -490.0, -490.0, -490.0, -490.0, -490.0, -490.0, -490.0, -490.0, -490.0, -470.0, -450.0, -422.0, -386.0, -340.0, -277.0, -212.0, -129.0, -46.0, 35.0, 108.0, 186.0, 302.0, 376.0, 457.0, 526.0, 540.0, 540.0, 540.0, 540.0, 540.0, 540.0, 540.0, 538.0, 520.0, 497.0, 480.0, 458.0, 437.0, 428.0, 428.0, 428.0, 428.0, 428.0]	[0.006649235874647275, 0.011364069185219705, 0.017428874678444117, 0.030696831352543086, 0.046938140178099275, 0.06227491641766392, 0.08024234641925432, 0.09707723336759955, 0.11202318329014815, 0.13038485296419822, 0.14688011354883201, 0.16215613251551986, 0.18014233582653105, 0.1970106734370347, 0.2118252101354301, 0.23038178097340278, 0.24663332974887453, 0.26222542312461883, 0.2801935357856564, 0.2969686894793995, 0.3120409326220397, 0.3302438824030105, 0.3465698418149259, 0.3622274711087812, 0.3801116158720106, 0.39692056152853183, 0.4117712794977706, 0.4303234130202327, 0.44652342051267624, 0.46221040445379913, 0.4800126292684581, 0.49703900408349, 0.5120027033262886, 0.53031658634427, 0.546777713636402, 0.5622315671062097, 0.5798525440914091, 0.5969178308441769, 0.612004751310451, 0.6303534503094852, 0.6467944389441982, 0.6623087083862629, 0.6801338024961296, 0.6970844013849273]
5	西瓜	False	inanimate	animate	left	0.666	[0.0, 0.0, 0.0, 0.0, 0.0, 0.0, 0.0, 0.0, 0.0, 1.0, 0.0, -2.0, -9.0, -24.0, -40.0, -47.0, -67.0, -90.0, -118.0, -167.0, -227.0, -290.0, -392.0, -434.0, -520.0, -589.0, -704.0, -737.0, -800.0, -832.0, -854.0, -862.0, -863.0, -864.0, -864.0, -864.0, -860.0, -847.0, -843.0, -843.0, -843.0]	[-490.0, -490.0, -490.0, -490.0, -490.0, -490.0, -490.0, -490.0, -490.0, -491.0, -467.0, -453.0, -420.0, -323.0, -251.0, -216.0, -128.0, -55.0, 30.0, 120.0, 207.0, 292.0, 402.0, 440.0, 510.0, 540.0, 540.0, 540.0, 540.0, 540.0, 540.0, 540.0, 540.0, 533.0, 510.0, 466.0, 432.0, 388.0, 384.0, 384.0, 384.0]	[0.007910461485153064, 0.012631438818061724, 0.01703736570198089, 0.03323327723774128, 0.04951622866792604, 0.06490386353107169, 0.08268629101803526, 0.09973963114316575, 0.1143968132964801, 0.1328956988581922, 0.149571865942562, 0.16480897294241004, 0.18278084028861485, 0.1997348524746485, 0.2146674903924577, 0.23291686148149893, 0.24923223958467133, 0.264869388891384, 0.2827835709322244, 0.29958056993200444, 0.3143572186527308, 0.3328209469036665, 0.3493868634395767, 0.36483935159048997, 0.3824306325695943, 0.3996645378647372, 0.4145883011224214, 0.43286634419928305, 0.44936467678053305, 0.46480317029636353, 0.4826504510419909, 0.4995679406274576, 0.5143684826616663, 0.5328588348638732, 0.5491260849812534, 0.5648171649372671, 0.5826709310349543, 0.5995385859860107, 0.6145978584536351, 0.6328817041940056, 0.6493653594516218]
6	番茄	False	animate	inanimate	right	0.942	[0.0, 0.0, 0.0, 0.0, 0.0, 0.0, 0.0, 0.0, 0.0, 0.0, -5.0, -7.0, -7.0, -7.0, -7.0, -13.0, -23.0, -29.0, -49.0, -74.0, -102.0, -137.0, -215.0, -284.0, -363.0, -440.0, -514.0, -581.0, -646.0, -699.0, -733.0, -765.0, -794.0, -811.0, -816.0, -816.0, -816.0, -816.0, -816.0, -816.0, -816.0, -816.0, -816.0, -816.0, -810.0, -730.0, -502.0, -294.0, -67.0, 154.0, 359.0, 526.0, 736.0, 788.0, 858.0, 882.0, 883.0]	[-490.0, -490.0, -490.0, -490.0, -490.0, -490.0, -490.0, -490.0, -490.0, -489.0, -455.0, -434.0, -410.0, -379.0, -342.0, -298.0, -231.0, -202.0, -146.0, -87.0, -37.0, 17.0, 98.0, 155.0, 206.0, 247.0, 286.0, 328.0, 371.0, 399.0, 420.0, 444.0, 464.0, 474.0, 476.0, 476.0, 476.0, 476.0, 476.0, 476.0, 476.0, 476.0, 476.0, 476.0, 474.0, 458.0, 432.0, 421.0, 421.0, 421.0, 421.0, 442.0, 459.0, 459.0, 459.0, 459.0, 459.0]	[0.0015753202605992556, 0.006549225334310904, 0.017993780900724232, 0.036651727656135336, 0.05295823107007891, 0.06848956717294641, 0.086397946550278, 0.10332396943704225, 0.11805351419025101, 0.1365612744120881, 0.15307872163248248, 0.16840730590047315, 0.18627916264813393, 0.2032550201693084, 0.2182456846931018, 0.23667323164409027, 0.2528606098203454, 0.2684561165224295, 0.2863573279173579, 0.30327959614805877, 0.31819311939761974, 0.3365110984595958, 0.3529517457645852, 0.36840047923033126, 0.38633036261308007, 0.4032283961714711, 0.4181876580696553, 0.43655854373355396, 0.45272236995515414, 0.4697958487085998, 0.4862566346710082, 0.5031372602679767, 0.5182013114099391, 0.5364578504813835, 0.5529500390985049, 0.5684311992081348, 0.5862982772814576, 0.6032048441993538, 0.618223839381244, 0.6364503411750775, 0.6529490150860511, 0.668517215148313, 0.6863310452608857, 0.703222252195701, 0.7180910608440172, 0.7364745758241042, 0.752963351085782, 0.7684168632258661, 0.7863341172633227, 0.8031710522191133, 0.8182893753401004, 0.8366479729884304, 0.8527602579270024, 0.8684096952201799, 0.8864034078724217, 0.9032714041532017, 0.9182098447345197]
7	金鱼	True	inanimate	animate	right	0.94	[0.0, 0.0, 0.0, 0.0, 0.0, 0.0, -1.0, -1.0, -1.0, -1.0, -1.0, 2.0, 13.0, 22.0, 27.0, 27.0, 27.0, 24.0, 14.0, 2.0, -10.0, -27.0, -54.0, -91.0, -146.0, -252.0, -323.0, -358.0, -466.0, -552.0, -628.0, -669.0, -712.0, -751.0, -788.0, -799.0, -810.0, -813.0, -813.0, -813.0, -813.0, -813.0, -796.0, -729.0, -588.0, -405.0, -81.0, 30.0, 216.0, 359.0, 517.0, 562.0, 698.0, 778.0, 832.0, 854.0, 854.0]	[-490.0, -490.0, -490.0, -490.0, -490.0, -487.0, -472.0, -448.0, -416.0, -375.0, -314.0, -293.0, -252.0, -208.0, -179.0, -167.0, -134.0, -108.0, -82.0, -56.0, -35.0, -14.0, 12.0, 32.0, 70.0, 129.0, 165.0, 183.0, 228.0, 265.0, 296.0, 315.0, 337.0, 359.0, 378.0, 384.0, 391.0, 394.0, 394.0, 394.0, 395.0, 400.0, 413.0, 437.0, 462.0, 486.0, 491.0, 491.0, 491.0, 493.0, 510.0, 516.0, 535.0, 538.0, 538.0, 538.0, 538.0]	[0.01598814208409749, 0.025981008249800652, 0.030396492453292012, 0.04915922845248133, 0.06543091591447592, 0.08085814540390857, 0.09874399681575596, 0.11572804630850442, 0.13030262588290498, 0.14880355942295864, 0.16541009460343048, 0.18073492418625392, 0.19871669018175453, 0.2156911823549308, 0.23056750031537376, 0.24887250870233402, 0.26542374791461043, 0.2808069454622455, 0.2986764128727373, 0.31562564641353674, 0.3304965030401945, 0.34878410343662836, 0.36535104396170937, 0.38081172411330044, 0.39865832222858444, 0.4155420198221691, 0.43035041249822825, 0.4487175435060635, 0.46539063859381713, 0.4807721294928342, 0.4986839221965056, 0.5157457956229337, 0.5303517778520472, 0.5488475913880393, 0.5654196519171819, 0.5808724813978188, 0.5986521782178897, 0.6156877690227702, 0.6304104871232994, 0.6487561141257174, 0.6653513853088953, 0.6807868067990057, 0.6984559117117897, 0.7156239397299942, 0.7303490471676923, 0.7489069833245594, 0.7653752786281984, 0.7808414200844709, 0.7984316770744044, 0.8155235878366511, 0.8305647696543019, 0.8488277940778062, 0.8654025852738414, 0.8807816868065856, 0.898703036858933, 0.9158263502467889, 0.9306040229566861]
8	铅笔	False	animate	inanimate	right	0.875	[0.0, 0.0, 0.0, 0.0, 0.0, 0.0, 0.0, 0.0, 0.0, 0.0, 2.0, 8.0, 12.0, 18.0, 23.0, 23.0, 23.0, 23.0, 23.0, 23.0, 13.0, -3.0, -24.0, -51.0, -87.0, -115.0, -159.0, -221.0, -339.0, -419.0, -459.0, -552.0, -608.0, -666.0, -704.0, -727.0, -750.0, -771.0, -785.0, -793.0, -793.0, -793.0, -793.0, -765.0, -614.0, -364.0, -83.0, 197.0, 432.0, 636.0, 787.0, 855.0, 864.0]	[-490.0, -490.0, -490.0, -490.0, -490.0, -490.0, -490.0, -490.0, -485.0, -473.0, -451.0, -420.0, -383.0, -331.0, -283.0, -226.0, -166.0, -76.0, -49.0, 33.0, 83.0, 126.0, 165.0, 199.0, 234.0, 253.0, 284.0, 312.0, 364.0, 396.0, 405.0, 434.0, 445.0, 458.0, 462.0, 465.0, 467.0, 471.0, 472.0, 474.0, 474.0, 474.0, 474.0, 473.0, 454.0, 454.0, 454.0, 454.0, 462.0, 480.0, 495.0, 506.0, 507.0]	[0.015736920962808654, 0.021348777489038184, 0.029839778260793537, 0.04851615696679801, 0.06502746022306383, 0.08033863650052808, 0.09812447731383145, 0.11509214283432811, 0.13009543670341372, 0.14841068506939337, 0.16481754041160457, 0.18034239116241224, 0.1981132133223582, 0.21508702283608727, 0.2301596073084511, 0.24840078642591834, 0.2648516737099271, 0.2802922152040992, 0.2981722639524378, 0.31505391353857704, 0.3298725462227594, 0.34822261056979187, 0.36470899649430066, 0.38036799113615416, 0.3979005628498271, 0.4150757588504348, 0.429887223552214, 0.44840078640845604, 0.46484723637695424, 0.4803481938142795, 0.4982063972565811, 0.5151088681595866, 0.5301698473049328, 0.5484325303987134, 0.5648059350787662, 0.5803287378221285, 0.5979364028025884, 0.6150252415682189, 0.6301203540060669, 0.6483297891390976, 0.6648004737508018, 0.6803884711116552, 0.6982111759134568, 0.7151406121265609, 0.7301944232895039, 0.7484352610481437, 0.7648731776862405, 0.7803915431140922, 0.7979090961744078, 0.8150791721709538, 0.8300732500501908, 0.8484639330126811, 0.8649148203257937]
9	蟋蟀	True	inanimate	animate	right	1.022	[0.0, 0.0, 0.0, 0.0, 0.0, 0.0, 0.0, 0.0, -1.0, -1.0, -1.0, 4.0, 11.0, 19.0, 30.0, 32.0, 32.0, 32.0, 32.0, 26.0, 15.0, 5.0, -14.0, -46.0, -88.0, -161.0, -233.0, -269.0, -409.0, -491.0, -556.0, -613.0, -656.0, -685.0, -703.0, -706.0, -706.0, -705.0, -668.0, -573.0, -393.0, -320.0, -281.0, -264.0, -263.0, -269.0, -349.0, -463.0, -568.0, -644.0, -662.0, -662.0, -452.0, -153.0, 166.0, 505.0, 796.0, 959.0, 959.0, 959.0, 959.0]	[-490.0, -490.0, -490.0, -490.0, -490.0, -490.0, -490.0, -490.0, -483.0, -468.0, -448.0, -418.0, -368.0, -311.0, -225.0, -198.0, -116.0, -72.0, -28.0, 8.0, 46.0, 76.0, 110.0, 148.0, 182.0, 217.0, 244.0, 256.0, 313.0, 339.0, 358.0, 373.0, 382.0, 391.0, 401.0, 404.0, 405.0, 407.0, 407.0, 407.0, 415.0, 425.0, 438.0, 443.0, 443.0, 443.0, 440.0, 440.0, 440.0, 440.0, 440.0, 440.0, 440.0, 440.0, 448.0, 448.0, 448.0, 448.0, 443.0, 440.0, 440.0]	[0.00331134011503309, 0.008030952099943534, 0.02214268405805342, 0.04012547404272482, 0.05711054755374789, 0.07194146822439507, 0.09033078586799093, 0.10694790235720575, 0.1223450945399236, 0.14012274338165298, 0.15709621156565845, 0.17206912676920183, 0.1904331857804209, 0.2068697370996233, 0.22226795327151194, 0.2400025941315107, 0.2570402329438366, 0.2720974574331194, 0.29031918055261485, 0.30681853712303564, 0.3222314306476619, 0.3400094208191149, 0.35705183827667497, 0.37181346834404394, 0.3903058685536962, 0.4067980571417138, 0.4223372438864317, 0.44012513270718046, 0.4570658329175785, 0.4720636654528789, 0.49036935649928637, 0.5065744839957915, 0.5223519212158863, 0.5399288662010804, 0.5569989316281863, 0.5720629827992525, 0.5905325136845931, 0.6065444466948975, 0.6223351958906278, 0.6401886206585914, 0.657085288898088, 0.6721824493433814, 0.6904273831169121, 0.7067806491686497, 0.7224000491551124, 0.7400128341396339, 0.7571088408876676, 0.7721087214013096, 0.7903894951450638, 0.8065642440051306, 0.8223177879117429, 0.8402142206323333, 0.8570617369259708, 0.8717895750305615, 0.8903287378780078, 0.9065676573372912, 0.9225225877307821, 0.9400841727328952, 0.9571003075689077, 0.9720827800920233, 0.9904249937972054]
10	花瓶	False	inanimate	animate	left	0.833	[0.0, 0.0, 0.0, 0.0, 0.0, 0.0, 0.0, 0.0, 0.0, 0.0, 4.0, 4.0, 4.0, 5.0, 6.0, 11.0, 13.0, 13.0, 13.0, 13.0, 7.0, -10.0, -33.0, -61.0, -91.0, -162.0, -195.0, -277.0, -429.0, -531.0, -586.0, -728.0, -801.0, -855.0, -878.0, -890.0, -892.0, -895.0, -896.0, -900.0, -903.0, -904.0, -904.0, -904.0, -904.0, -905.0, -901.0, -884.0, -867.0, -860.0, -860.0]	[-490.0, -490.0, -490.0, -490.0, -490.0, -490.0, -490.0, -490.0, -490.0, -490.0, -480.0, -463.0, -438.0, -400.0, -387.0, -355.0, -314.0, -248.0, -223.0, -155.0, -111.0, -64.0, -12.0, 33.0, 77.0, 136.0, 162.0, 220.0, 312.0, 354.0, 376.0, 439.0, 470.0, 488.0, 493.0, 496.0, 496.0, 496.0, 496.0, 493.0, 492.0, 492.0, 492.0, 492.0, 492.0, 492.0, 486.0, 476.0, 469.0, 466.0, 466.0]	[0.015087671403307468, 0.019984776561614126, 0.028624939848668873, 0.04682550032157451, 0.06375596052384935, 0.07866743579506874, 0.09704548947047442, 0.1135096887301188, 0.12892360624391586, 0.14668384709511884, 0.16375288853305392, 0.17850598527002148, 0.19699872683850117, 0.21336632885504514, 0.22888674229034223, 0.2466742897813674, 0.26363410463090986, 0.27858927054330707, 0.2969243162369821, 0.3135134433978237, 0.3288826462812722, 0.34675074837286957, 0.36378599784802645, 0.3785295372654218, 0.3969734681886621, 0.41344824878615327, 0.42895569157553837, 0.44672617240576074, 0.4636313739756588, 0.4786561718210578, 0.496951622859342, 0.5132328676409088, 0.5288901556050405, 0.5467319750459865, 0.563738552533323, 0.5784964279446285, 0.5969427482050378, 0.613457806117367, 0.628805505024502, 0.6467039857525378, 0.6637023712391965, 0.6787159050873015, 0.6969816601776984, 0.7134741900954396, 0.7289099529443774, 0.74655277520651, 0.7637337738706265, 0.7785623052332085, 0.7969096389133483, 0.8134253794851247, 0.8289188275812194]
11	老鼠	True	animate	inanimate	left	0.794	[0.0, 0.0, 0.0, 0.0, 0.0, 0.0, -1.0, -1.0, -1.0, -1.0, 2.0, 2.0, 2.0, 2.0, 2.0, 2.0, 2.0, 2.0, 2.0, 0.0, -7.0, -16.0, -37.0, -64.0, -106.0, -168.0, -286.0, -330.0, -466.0, -543.0, -643.0, -746.0, -833.0, -889.0, -926.0, -931.0, -931.0, -931.0, -919.0, -909.0, -889.0, -886.0, -886.0, -886.0, -886.0, -886.0, -886.0, -886.0]	[-490.0, -490.0, -490.0, -490.0, -490.0, -490.0, -486.0, -482.0, -470.0, -455.0, -436.0, -410.0, -372.0, -320.0, -236.0, -208.0, -148.0, -115.0, -84.0, -52.0, -23.0, 5.0, 37.0, 65.0, 96.0, 133.0, 189.0, 209.0, 265.0, 292.0, 322.0, 352.0, 378.0, 393.0, 405.0, 407.0, 407.0, 408.0, 412.0, 413.0, 415.0, 417.0, 417.0, 417.0, 417.0, 417.0, 417.0, 417.0]	[0.013637040043249726, 0.020312831678893417, 0.025940389547031373, 0.04448364840936847, 0.06084954377729446, 0.07614911469863728, 0.09402165413484909, 0.11115247683483176, 0.1257588003645651, 0.1442815792397596, 0.16068638657452539, 0.17620236266520806, 0.19403599010547623, 0.2109398263564799, 0.22575265637715347, 0.24417883798014373, 0.26075431183562614, 0.2761815413541626, 0.2940523741126526, 0.31108182089519687, 0.32594243754283525, 0.3442587099270895, 0.3606771705672145, 0.3761637920397334, 0.3940318941313308, 0.410873949091183, 0.4259816908452194, 0.44416825665393844, 0.4607478265243117, 0.47615628270432353, 0.4938813662447501, 0.5109654263360426, 0.5258209229796194, 0.5441631366848014, 0.5607095972227398, 0.5761743733601179, 0.5939687475038227, 0.6109097890439443, 0.6260564427939244, 0.6442512006033212, 0.6607167652109638, 0.6761996319983155, 0.6940052701393142, 0.7110265249502845, 0.7259342455654405, 0.7441928326443303, 0.7607720611558761, 0.776187685347395]
12	铅笔	False	inanimate	animate	left	0.913	[0.0, 0.0, 0.0, 0.0, 0.0, 0.0, 0.0, 0.0, 0.0, 0.0, 0.0, 0.0, 0.0, 0.0, 0.0, 0.0, 0.0, 0.0, -7.0, -10.0, -12.0, -22.0, -34.0, -50.0, -77.0, -129.0, -252.0, -303.0, -458.0, -571.0, -623.0, -769.0, -838.0, -872.0, -880.0, -880.0, -880.0, -880.0, -860.0, -843.0, -814.0, -764.0, -667.0, -586.0, -520.0, -474.0, -448.0, -443.0, -443.0, -477.0, -580.0, -696.0, -792.0, -824.0, -835.0]	[-490.0, -490.0, -490.0, -490.0, -490.0, -490.0, -490.0, -490.0, -490.0, -490.0, -490.0, -490.0, -490.0, -490.0, -471.0, -438.0, -359.0, -305.0, -245.0, -181.0, -121.0, -63.0, -12.0, 30.0, 76.0, 135.0, 227.0, 257.0, 326.0, 375.0, 395.0, 450.0, 478.0, 490.0, 494.0, 494.0, 494.0, 494.0, 490.0, 486.0, 485.0, 485.0, 485.0, 485.0, 485.0, 485.0, 485.0, 485.0, 485.0, 481.0, 481.0, 481.0, 473.0, 466.0, 461.0]	[0.0001864361111074686, 0.0048951254284475, 0.015506828378420323, 0.03416272712638602, 0.05039311325526796, 0.06579269480425864, 0.08377616744837724, 0.1006748836953193, 0.11538258314249106, 0.1337695114489179, 0.15037297460366972, 0.1657490041689016, 0.18370858349953778, 0.20054859045194462, 0.21556826832238585, 0.23383334072423168, 0.25017704945639707, 0.26574763882672414, 0.28372121282154694, 0.3004830545105506, 0.315563148324145, 0.33385518603608944, 0.3501790974405594, 0.3657162361778319, 0.38344097838853486, 0.40052572113927454, 0.4153047591971699, 0.433803644758882, 0.4501125375099946, 0.46572135618771426, 0.48363895155489445, 0.5004881745262537, 0.5152979325503111, 0.5336756448668893, 0.5502968573418912, 0.5657469561556354, 0.5836252982262522, 0.6004868091840763, 0.6155256016936619, 0.6338036447414197, 0.6502989053551573, 0.665719649521634, 0.683621202246286, 0.700482030515559, 0.7155283323372714, 0.7340070792415645, 0.7502903720305767, 0.7657841614563949, 0.7836232502304483, 0.8004990971821826, 0.815558369649807, 0.8338814686867408, 0.8502961746708024, 0.8657438841764815, 0.8836645515402779]
13	袜子	False	inanimate	animate	left	0.654	[0.0, 0.0, 0.0, 0.0, 0.0, 0.0, 0.0, -1.0, -1.0, 1.0, 8.0, 14.0, 15.0, 23.0, 26.0, 29.0, 29.0, 19.0, 12.0, -25.0, -58.0, -84.0, -134.0, -197.0, -266.0, -378.0, -417.0, -495.0, -572.0, -688.0, -724.0, -820.0, -851.0, -883.0, -903.0, -911.0, -911.0, -911.0, -911.0, -911.0]	[-490.0, -490.0, -490.0, -490.0, -490.0, -490.0, -490.0, -484.0, -468.0, -444.0, -411.0, -366.0, -319.0, -235.0, -206.0, -148.0, -64.0, -13.0, 11.0, 87.0, 129.0, 153.0, 190.0, 223.0, 260.0, 311.0, 328.0, 357.0, 385.0, 431.0, 446.0, 487.0, 498.0, 510.0, 519.0, 522.0, 522.0, 522.0, 522.0, 522.0]	[0.013008611800614744, 0.017233973543625325, 0.024402308743447065, 0.04271141311619431, 0.05938758022966795, 0.07455300728906877, 0.09291058094822802, 0.10923039636691101, 0.12479074575821869, 0.1427066344767809, 0.15959613470477052, 0.17447484203148633, 0.19280749838799238, 0.20935088692931458, 0.22474637246341445, 0.24265748250763863, 0.2595043161418289, 0.2745383299770765, 0.29282695436268114, 0.30926794299739413, 0.3247593431151472, 0.3425960425520316, 0.3596333400346339, 0.37442261807154864, 0.3927818984084297, 0.4092778416525107, 0.42473988712299615, 0.44246667734114453, 0.459603302704636, 0.4745830445899628, 0.49286415966344066, 0.5094334895256907, 0.5248753963387571, 0.5426585065142717, 0.5596302680205554, 0.5743062235123944, 0.592716021114029, 0.609104444476543, 0.6248170284088701, 0.6426318825397175]
14	坦克	False	animate	inanimate	left	0.67	[0.0, 0.0, 0.0, 0.0, 0.0, 0.0, 0.0, 4.0, 14.0, 23.0, 31.0, 37.0, 42.0, 43.0, 43.0, 43.0, 37.0, 26.0, 9.0, -15.0, -53.0, -94.0, -143.0, -203.0, -275.0, -354.0, -436.0, -522.0, -639.0, -696.0, -738.0, -784.0, -807.0, -819.0, -826.0, -826.0, -826.0, -826.0, -826.0, -826.0, -826.0]	[-490.0, -490.0, -490.0, -490.0, -490.0, -490.0, -490.0, -489.0, -477.0, -462.0, -439.0, -415.0, -376.0, -326.0, -280.0, -231.0, -167.0, -126.0, -82.0, -32.0, 25.0, 73.0, 117.0, 159.0, 198.0, 242.0, 284.0, 318.0, 370.0, 393.0, 410.0, 429.0, 444.0, 451.0, 455.0, 455.0, 455.0, 455.0, 455.0, 455.0, 455.0]	[0.006946195673663169, 0.011280101316515356, 0.015244001930113882, 0.031257300259312615, 0.04740713181672618, 0.06291286789928563, 0.08070963138015941, 0.09777662483975291, 0.11264475079951808, 0.13119654296315275, 0.14727844926528633, 0.1628193426586222, 0.18068334873532876, 0.19760698231402785, 0.21247408428462222, 0.23088149257819168, 0.2473241878906265, 0.26280568932997994, 0.2807051940471865, 0.297621318284655, 0.3125973055139184, 0.33095931651769206, 0.34731599589576945, 0.3628381159796845, 0.3807270393881481, 0.39757967565674335, 0.41397663234965876, 0.4309630711795762, 0.4473439852008596, 0.4628510866314173, 0.48070348738110624, 0.4976230249449145, 0.5125116309209261, 0.5310480631014798, 0.5473426198586822, 0.562895459937863, 0.5807860899949446, 0.5976848062418867, 0.6125938921759371, 0.6309166498831473, 0.6473750465083867]
15	汽车	False	animate	inanimate	right	0.871	[0.0, 0.0, 0.0, 0.0, 0.0, 0.0, 0.0, 0.0, 4.0, 9.0, 15.0, 20.0, 27.0, 32.0, 37.0, 40.0, 43.0, 43.0, 43.0, 43.0, 43.0, 37.0, 28.0, 12.0, -8.0, -40.0, -81.0, -129.0, -214.0, -266.0, -293.0, -367.0, -434.0, -496.0, -569.0, -644.0, -695.0, -719.0, -732.0, -732.0, -732.0, -702.0, -637.0, -329.0, -110.0, 95.0, 265.0, 433.0, 572.0, 680.0, 722.0, 728.0, 728.0]	[-490.0, -490.0, -490.0, -490.0, -490.0, -490.0, -490.0, -490.0, -488.0, -470.0, -447.0, -423.0, -394.0, -368.0, -342.0, -314.0, -268.0, -240.0, -214.0, -187.0, -161.0, -128.0, -95.0, -53.0, -10.0, 39.0, 83.0, 125.0, 185.0, 222.0, 239.0, 277.0, 308.0, 333.0, 366.0, 397.0, 410.0, 414.0, 415.0, 415.0, 415.0, 415.0, 415.0, 425.0, 434.0, 456.0, 480.0, 508.0, 521.0, 521.0, 521.0, 521.0, 521.0]	[0.01358956066542305, 0.01954752890742384, 0.026006232714280486, 0.04436995039577596, 0.06082834702101536, 0.07623373120441101, 0.09425611581536941, 0.11098109354497865, 0.12588983814930543, 0.1443382064171601, 0.1607406244147569, 0.17613918194547296, 0.19408920395653695, 0.2109121442772448, 0.22590622215648182, 0.24422249451163225, 0.26068566981120966, 0.2761487392708659, 0.2940915932995267, 0.31092852825531736, 0.32594376878114417, 0.34433615842135623, 0.360672357812291, 0.3761719499307219, 0.39405131599050947, 0.41099030955228955, 0.4259236301295459, 0.44428154511842877, 0.46071604843018577, 0.47614566728589125, 0.4940366386726964, 0.5108875682926737, 0.5258908621617593, 0.5441975771973375, 0.5605969231983181, 0.5761944779078476, 0.593889865471283, 0.6109790455375332, 0.6257178063096944, 0.6440009693615139, 0.6604498086671811, 0.6761204086360522, 0.6939059081196319, 0.710963685560273, 0.7256990329769906, 0.7442989531264175, 0.7606023845437448, 0.7761487392708659, 0.7940741853090003, 0.810995088191703, 0.8259086114703678, 0.8441398919094354, 0.8607109284494072]
16	乌龟	True	animate	inanimate	left	0.885	[0.0, 0.0, 0.0, 0.0, 0.0, 0.0, 0.0, 0.0, 0.0, 0.0, 0.0, 0.0, 0.0, 0.0, 4.0, 9.0, 24.0, 35.0, 47.0, 54.0, 59.0, 65.0, 71.0, 79.0, 82.0, 82.0, 82.0, 81.0, 70.0, 52.0, 29.0, -12.0, -73.0, -109.0, -174.0, -241.0, -295.0, -357.0, -421.0, -485.0, -573.0, -625.0, -648.0, -680.0, -706.0, -738.0, -769.0, -792.0, -804.0, -808.0, -809.0, -809.0, -809.0, -809.0]	[-490.0, -490.0, -490.0, -490.0, -490.0, -490.0, -490.0, -490.0, -490.0, -490.0, -490.0, -490.0, -490.0, -490.0, -476.0, -464.0, -423.0, -383.0, -337.0, -295.0, -251.0, -208.0, -164.0, -130.0, -106.0, -87.0, -59.0, -51.0, -23.0, 1.0, 25.0, 56.0, 87.0, 107.0, 135.0, 163.0, 186.0, 212.0, 238.0, 264.0, 301.0, 325.0, 340.0, 359.0, 374.0, 394.0, 417.0, 433.0, 444.0, 448.0, 449.0, 449.0, 449.0, 449.0]	[0.015470988408196718, 0.020328498911112547, 0.029342763242311776, 0.04768497691839002, 0.06457959715044126, 0.07950028844061308, 0.09782099814037792, 0.11414764018263668, 0.12976328554213978, 0.14763377694180235, 0.16451815722393803, 0.17948253909708, 0.19777252883068286, 0.21428758674301207, 0.22974485353915952, 0.24767780891852453, 0.26443965060752816, 0.2794357764942106, 0.2977244008798152, 0.3142650587542448, 0.3297499735490419, 0.34753308369545266, 0.3644068826397415, 0.37949687510263175, 0.3977189395518508, 0.4142206854594406, 0.42968136561103165, 0.4475518570106942, 0.4644338479556609, 0.4795101870840881, 0.49770494489348494, 0.5141957681626081, 0.5298243841389194, 0.5473914305039216, 0.5644604719418567, 0.5794210991589352, 0.5977134782297071, 0.6140619656071067, 0.6297987841826398, 0.6473337452043779, 0.6644550106138922, 0.6794996057578828, 0.6976953875564504, 0.7141725575202145, 0.7297509975614958, 0.7474709610978607, 0.7644055173150264, 0.7794989231042564, 0.797747952863574, 0.8142049841408152, 0.8296997975849081, 0.8475422996853013, 0.8644270212971605, 0.8794432858121581]
17	黑狗	True	animate	inanimate	left	0.788	[0.0, 0.0, 0.0, 0.0, 0.0, 0.0, 0.0, 0.0, 0.0, 0.0, 0.0, 1.0, 1.0, 1.0, -4.0, -8.0, -8.0, -8.0, -8.0, -8.0, -10.0, -13.0, -15.0, -19.0, -25.0, -45.0, -76.0, -96.0, -181.0, -233.0, -320.0, -412.0, -505.0, -577.0, -626.0, -687.0, -739.0, -776.0, -782.0, -784.0, -784.0, -784.0, -784.0, -784.0, -784.0, -784.0, -784.0, -784.0]	[-490.0, -490.0, -490.0, -490.0, -490.0, -490.0, -490.0, -490.0, -490.0, -483.0, -470.0, -447.0, -409.0, -360.0, -316.0, -279.0, -234.0, -207.0, -183.0, -162.0, -146.0, -133.0, -124.0, -115.0, -104.0, -77.0, -45.0, -28.0, 35.0, 70.0, 138.0, 200.0, 264.0, 304.0, 329.0, 354.0, 377.0, 395.0, 399.0, 401.0, 401.0, 401.0, 401.0, 401.0, 401.0, 401.0, 401.0, 401.0]	[0.014896183565724641, 0.01973253142205067, 0.02813273758511059, 0.04654526588274166, 0.0634453474485781, 0.0783622840535827, 0.09662599113653414, 0.11316528369206935, 0.12875976637587883, 0.14650020992849022, 0.16336991285788827, 0.17825135082239285, 0.1965724018518813, 0.21310111309867352, 0.22857032655156218, 0.24646983126876876, 0.2632774116063956, 0.2783039161004126, 0.2965621618786827, 0.31300280918367207, 0.32872802240308374, 0.34655960186501034, 0.363478798099095, 0.3783721827203408, 0.39660243917023763, 0.4131349050439894, 0.4285324385855347, 0.44620427416521125, 0.4632924302422907, 0.47831654542824253, 0.496578545862576, 0.513047865126282, 0.5286170891777147, 0.5464186313329265, 0.5633494328649249, 0.5783571640786249, 0.5966515911277384, 0.6130816570948809, 0.6286341558443382, 0.6461769675370306, 0.6633016462437809, 0.6783527267398313, 0.6966649031091947, 0.7130731237703003, 0.7286126518447418, 0.7464479859627318, 0.7633576248772442, 0.7784387426509056]
18	石头	False	animate	inanimate	right	0.847	[0.0, 0.0, 0.0, 0.0, 0.0, 0.0, 0.0, 0.0, 0.0, 0.0, 1.0, 4.0, 4.0, 4.0, 4.0, 4.0, 4.0, 4.0, 3.0, -8.0, -25.0, -30.0, -42.0, -55.0, -79.0, -114.0, -158.0, -207.0, -252.0, -321.0, -403.0, -486.0, -599.0, -626.0, -690.0, -711.0, -725.0, -727.0, -727.0, -727.0, -703.0, -603.0, -451.0, -279.0, 35.0, 147.0, 471.0, 652.0, 792.0, 868.0, 877.0, 877.0]	[-490.0, -490.0, -490.0, -490.0, -490.0, -490.0, -490.0, -490.0, -490.0, -487.0, -468.0, -446.0, -418.0, -380.0, -344.0, -314.0, -272.0, -260.0, -229.0, -186.0, -129.0, -109.0, -80.0, -53.0, -18.0, 25.0, 76.0, 122.0, 154.0, 195.0, 241.0, 289.0, 349.0, 362.0, 402.0, 416.0, 424.0, 424.0, 424.0, 424.0, 424.0, 424.0, 424.0, 424.0, 463.0, 476.0, 520.0, 520.0, 506.0, 495.0, 493.0, 493.0]	[0.007443517912179232, 0.0116337223444134, 0.016071051883045584, 0.03215466483379714, 0.04855264548677951, 0.06395598169183359, 0.08187289439956658, 0.09877229330595583, 0.11365373127046041, 0.13196010497631505, 0.14855878948583268, 0.16389727240311913, 0.1817210011940915, 0.19906788773369044, 0.21372916587279178, 0.23191095303627662, 0.24859155746526085, 0.2638774750812445, 0.2816366919432767, 0.29864668275695294, 0.31374281921307556, 0.331904809048865, 0.34833828834234737, 0.36387645109789446, 0.3817592304840218, 0.3987228000187315, 0.4136953738925513, 0.4318693103850819, 0.44842601093114354, 0.4638907870685216, 0.4817070065473672, 0.49864053874625824, 0.5136707979254425, 0.5319075396982953, 0.5484628748963587, 0.5638518751075026, 0.5818025797780138, 0.5987497653404716, 0.6136380299576558, 0.6320215449377429, 0.6484072376333643, 0.6638761097565293, 0.6817247558501549, 0.6986913973814808, 0.7136066273087636, 0.7319126596848946, 0.7483969976310618, 0.7638580191123765, 0.7817151985364035, 0.798805743950652, 0.8136667019280139, 0.8320416835776996]
19	医生	True	animate	inanimate	left	0.752	[0.0, 0.0, 0.0, 0.0, 0.0, 0.0, 0.0, 0.0, 0.0, 0.0, 0.0, 0.0, 0.0, 0.0, 0.0, 0.0, 0.0, 0.0, 0.0, 0.0, 0.0, 0.0, -3.0, -10.0, -21.0, -39.0, -63.0, -103.0, -166.0, -239.0, -333.0, -424.0, -510.0, -578.0, -644.0, -667.0, -674.0, -686.0, -692.0, -695.0, -698.0, -701.0, -706.0, -719.0, -722.0, -724.0]	[-490.0, -490.0, -490.0, -490.0, -490.0, -490.0, -487.0, -476.0, -457.0, -430.0, -384.0, -351.0, -315.0, -282.0, -247.0, -218.0, -191.0, -165.0, -138.0, -110.0, -83.0, -63.0, -37.0, -21.0, 0.0, 23.0, 48.0, 74.0, 105.0, 134.0, 174.0, 215.0, 251.0, 283.0, 318.0, 335.0, 342.0, 359.0, 369.0, 376.0, 381.0, 389.0, 401.0, 425.0, 432.0, 436.0]	[0.014325474709039554, 0.018855305534088984, 0.026948994607664645, 0.045240008330438286, 0.06217183388071135, 0.07684198670904152, 0.0953685202402994, 0.11191668745595962, 0.12729886098532006, 0.14526117098284885, 0.1620588526420761, 0.17714986912324093, 0.19531527228537016, 0.21176923156599514, 0.22751355945365503, 0.245126003108453, 0.26209537527756765, 0.2771543064445723, 0.2954429308301769, 0.3118712901487015, 0.3273176343063824, 0.3451922217209358, 0.36205782866454683, 0.37713485045242123, 0.39534565090434626, 0.41168970096623525, 0.42732753296149895, 0.44516628040582873, 0.4620489540102426, 0.477110615815036, 0.4953029842872638, 0.5118811888096388, 0.5273087596287951, 0.5450386218435597, 0.5620851352869067, 0.577104813157348, 0.5953087869565934, 0.6116920903150458, 0.6273381142818835, 0.6451806163822766, 0.6620465646556113, 0.6771249517914839, 0.6975766036775894, 0.711804047547048, 0.7273937515565194, 0.7451560404151678]
20	将军	True	inanimate	animate	right	0.911	[0.0, 0.0, 0.0, 0.0, 0.0, 0.0, 0.0, 0.0, 0.0, 0.0, 0.0, 0.0, 0.0, 0.0, 0.0, 0.0, 0.0, 0.0, 0.0, 0.0, 0.0, 0.0, -4.0, -13.0, -35.0, -70.0, -122.0, -202.0, -334.0, -426.0, -473.0, -601.0, -682.0, -739.0, -780.0, -798.0, -806.0, -807.0, -807.0, -807.0, -807.0, -808.0, -801.0, -745.0, -613.0, -418.0, -178.0, 88.0, 331.0, 528.0, 674.0, 771.0, 837.0, 840.0, 840.0]	[-490.0, -490.0, -490.0, -490.0, -490.0, -490.0, -490.0, -489.0, -471.0, -448.0, -423.0, -391.0, -344.0, -298.0, -249.0, -202.0, -139.0, -95.0, -60.0, -29.0, -5.0, 12.0, 29.0, 47.0, 75.0, 108.0, 145.0, 191.0, 257.0, 293.0, 313.0, 370.0, 394.0, 419.0, 439.0, 446.0, 450.0, 450.0, 450.0, 450.0, 450.0, 451.0, 453.0, 454.0, 454.0, 456.0, 456.0, 456.0, 456.0, 456.0, 458.0, 470.0, 479.0, 479.0, 479.0]	[0.001768514746800065, 0.007024702266789973, 0.01848837247234769, 0.03797541718813591, 0.05354259323212318, 0.06886127882171422, 0.08685942878946662, 0.10372162240673788, 0.11862285769893788, 0.1368824687669985, 0.15351221460150555, 0.16883431351743639, 0.186809594189981, 0.20358816118096001, 0.21873037761542946, 0.23693947138963267, 0.25323471083538607, 0.26883533751242794, 0.2866105970169883, 0.3036250251461752, 0.3186371936753858, 0.33694288472179323, 0.3532845454465132, 0.3687940362142399, 0.3867119729111437, 0.40356631588656455, 0.41847813248750754, 0.4369019247533288, 0.453408108005533, 0.46883738550241105, 0.48666759961633943, 0.5036236598389223, 0.5185788257222157, 0.5370183193299454, 0.5534296119876672, 0.5688803934608586, 0.5867536155565176, 0.6036646197899245, 0.618398260558024, 0.6366469489876181, 0.6533388174138963, 0.6688428468478378, 0.6866850076185074, 0.7035489078843966, 0.7187703135714401, 0.7369858926977031, 0.7534152760053985, 0.7688786868238822, 0.7867208475945517, 0.8036478944704868, 0.8185979403788224, 0.8368974874319974, 0.8531480122474022, 0.8688578654837329, 0.8866730609443039]
21	孕妇	True	animate	inanimate	left	0.826	[0.0, 0.0, 0.0, 0.0, 0.0, 0.0, 0.0, 0.0, 0.0, -1.0, -7.0, -9.0, -14.0, -20.0, -28.0, -32.0, -43.0, -51.0, -59.0, -68.0, -81.0, -96.0, -118.0, -155.0, -212.0, -244.0, -339.0, -435.0, -570.0, -651.0, -687.0, -769.0, -807.0, -816.0, -817.0, -817.0, -817.0, -817.0, -817.0, -817.0, -816.0, -813.0, -813.0, -812.0, -811.0, -810.0, -810.0, -810.0, -810.0]	[-490.0, -490.0, -490.0, -490.0, -490.0, -490.0, -490.0, -490.0, -490.0, -468.0, -439.0, -412.0, -383.0, -331.0, -282.0, -256.0, -170.0, -113.0, -61.0, -8.0, 30.0, 68.0, 97.0, 126.0, 162.0, 173.0, 239.0, 296.0, 362.0, 398.0, 416.0, 461.0, 477.0, 480.0, 482.0, 482.0, 482.0, 482.0, 482.0, 482.0, 482.0, 482.0, 482.0, 482.0, 482.0, 482.0, 482.0, 482.0, 482.0]	[0.00396567553980276, 0.008717714168597013, 0.02324177644914016, 0.0415757981245406, 0.05871549548464827, 0.07348395223380066, 0.09191900849691592, 0.10835453579784371, 0.12385105591965839, 0.14165805937955156, 0.15866361287771724, 0.17360171212931164, 0.19182480056770146, 0.20828797586727887, 0.22376060264650732, 0.24167000604211353, 0.25855199695797637, 0.2735402721737046, 0.29177837929455563, 0.30828217320959084, 0.3238466185866855, 0.3416314354108181, 0.3584499383869115, 0.37356143482611515, 0.39181114724488, 0.408297191868769, 0.42376469864393584, 0.44166113139363006, 0.4585216183331795, 0.47331123769981787, 0.49178281662170775, 0.5082767118583433, 0.5238653919077478, 0.5415467848069966, 0.5585666742990725, 0.573542661499232, 0.5917998832592275, 0.6082466745574493, 0.623860271909507, 0.6414522355480585, 0.6585898849298246, 0.6735897654725704, 0.6918678085494321, 0.7083944717596751, 0.7238066826248541, 0.7416211954259779, 0.7586308449099306, 0.7735853281337768, 0.7918558618985116]
22	蜜蜂	True	inanimate	animate	right	0.835	[0.0, 0.0, 0.0, 0.0, 0.0, 0.0, 0.0, 0.0, -2.0, -7.0, -8.0, -8.0, -8.0, -8.0, -12.0, -15.0, -21.0, -26.0, -34.0, -42.0, -51.0, -63.0, -78.0, -108.0, -151.0, -290.0, -390.0, -501.0, -603.0, -711.0, -796.0, -851.0, -894.0, -915.0, -920.0, -920.0, -920.0, -920.0, -886.0, -788.0, -634.0, -427.0, -165.0, 104.0, 363.0, 589.0, 772.0, 891.0, 928.0, 931.0]	[-490.0, -490.0, -490.0, -490.0, -490.0, -490.0, -490.0, -490.0, -479.0, -444.0, -405.0, -356.0, -301.0, -220.0, -166.0, -138.0, -107.0, -82.0, -60.0, -35.0, -13.0, 11.0, 33.0, 62.0, 98.0, 177.0, 226.0, 273.0, 317.0, 363.0, 398.0, 422.0, 444.0, 454.0, 455.0, 455.0, 455.0, 457.0, 463.0, 477.0, 498.0, 521.0, 527.0, 527.0, 527.0, 527.0, 540.0, 540.0, 540.0, 540.0]	[0.005029269290389493, 0.010032529011368752, 0.025862531503662467, 0.04386204681941308, 0.06067679513944313, 0.07565960902138613, 0.09392980142729357, 0.11053428860032, 0.12585365684935823, 0.14379651087801903, 0.1606798671418801, 0.17543091587140225, 0.19397656404180452, 0.21052404859801754, 0.2259267021145206, 0.2438098228594754, 0.26071468309964985, 0.27560977439861745, 0.2939557427307591, 0.3104308646870777, 0.32586150750285015, 0.34372551360866055, 0.36067474714946, 0.3756241103692446, 0.39388235614751466, 0.41038819804089144, 0.42585058487020433, 0.4436801162955817, 0.46064436848973855, 0.47561796638183296, 0.4939789533964358, 0.5104011686926242, 0.5257946062483825, 0.5434708791435696, 0.5605010086146649, 0.5756381050450727, 0.5938557321496774, 0.610384102066746, 0.6257870969129726, 0.6434640524967108, 0.6606443685013801, 0.6756323023873847, 0.6939451614161953, 0.7104189180245157, 0.7258485368511174, 0.7435603084159084, 0.7606122831930406, 0.7756555130181368, 0.7939745160692837, 0.8105414565943647]
23	蝌蚪	True	inanimate	animate	right	0.832	[0.0, 0.0, 0.0, 0.0, 0.0, 0.0, 0.0, -3.0, -7.0, -12.0, -20.0, -27.0, -43.0, -60.0, -68.0, -83.0, -90.0, -96.0, -103.0, -116.0, -127.0, -134.0, -164.0, -193.0, -249.0, -378.0, -430.0, -544.0, -637.0, -697.0, -743.0, -784.0, -796.0, -801.0, -808.0, -808.0, -808.0, -808.0, -808.0, -784.0, -689.0, -536.0, -319.0, 41.0, 275.0, 499.0, 693.0, 856.0, 959.0, 959.0, 959.0]	[-490.0, -490.0, -490.0, -490.0, -490.0, -490.0, -490.0, -482.0, -461.0, -429.0, -377.0, -333.0, -283.0, -216.0, -191.0, -132.0, -80.0, -36.0, -10.0, 24.0, 40.0, 50.0, 72.0, 91.0, 115.0, 156.0, 176.0, 215.0, 248.0, 265.0, 284.0, 302.0, 304.0, 307.0, 310.0, 310.0, 310.0, 310.0, 311.0, 325.0, 350.0, 391.0, 430.0, 480.0, 508.0, 540.0, 540.0, 540.0, 540.0, 540.0, 540.0]	[0.014828940911684185, 0.01977383269695565, 0.02807402826147154, 0.04637323398492299, 0.06325624891906045, 0.07792401241022162, 0.09639763931045309, 0.11302089979290031, 0.12834334003855474, 0.14631315937731415, 0.163195150293177, 0.178253057441907, 0.19659766045515426, 0.21304957175743766, 0.22839419866795652, 0.24633944203378633, 0.26318354497198015, 0.2781824015255552, 0.2964351859409362, 0.3129089425492566, 0.3283576760441065, 0.3462892660754733, 0.3631388303474523, 0.37832268938655034, 0.3965311005304102, 0.4129563878523186, 0.42837474268162623, 0.4462455754401162, 0.4630934330634773, 0.47792503639357165, 0.49646317525184713, 0.5129638971702661, 0.528376449336065, 0.5462950687215198, 0.5631432676746044, 0.5781868388294242, 0.5963580446841661, 0.612756366666872, 0.6284102413337678, 0.6461240608769003, 0.6632255289296154, 0.678261932102032, 0.6964850205695257, 0.712691513414029, 0.7284546146111097, 0.7462308981048409, 0.76315453168354, 0.7781701135390904, 0.7964689779037144, 0.8129543398390524, 0.8283802040095907]
24	夫妻	True	inanimate	animate	right	0.862	[0.0, 0.0, 0.0, 0.0, 0.0, 0.0, 0.0, 0.0, 0.0, 0.0, 0.0, 0.0, 2.0, 9.0, 16.0, 27.0, 30.0, 30.0, 30.0, 30.0, 24.0, 11.0, -4.0, -29.0, -66.0, -118.0, -179.0, -261.0, -343.0, -434.0, -520.0, -634.0, -694.0, -733.0, -755.0, -771.0, -780.0, -782.0, -782.0, -782.0, -782.0, -733.0, -678.0, -438.0, -204.0, 55.0, 303.0, 535.0, 728.0, 854.0, 885.0, 886.0, 886.0]	[-490.0, -490.0, -490.0, -490.0, -490.0, -490.0, -490.0, -490.0, -490.0, -490.0, -477.0, -455.0, -431.0, -397.0, -358.0, -307.0, -257.0, -200.0, -142.0, -91.0, -57.0, -23.0, -1.0, 28.0, 63.0, 98.0, 135.0, 179.0, 217.0, 253.0, 292.0, 340.0, 367.0, 387.0, 401.0, 411.0, 416.0, 417.0, 417.0, 417.0, 417.0, 417.0, 417.0, 417.0, 417.0, 417.0, 417.0, 417.0, 400.0, 392.0, 392.0, 392.0, 392.0]	[0.008095805358607322, 0.012995299824979156, 0.017386890744091943, 0.03293734148610383, 0.050099566840799525, 0.06518409796990454, 0.08296652545686811, 0.10004956155898981, 0.11475350632099435, 0.13323395990300924, 0.14968040987150744, 0.16531278053298593, 0.18298495744238608, 0.19987923637381755, 0.21487638622056693, 0.23321757590747438, 0.2496933805232402, 0.26511446601944044, 0.28304332538391463, 0.2998410070722457, 0.3147238103556447, 0.33307899470673874, 0.34963740190141834, 0.365150988654932, 0.3830030481040012, 0.39996115627582185, 0.4149081302166451, 0.4331933412759099, 0.4497316098131705, 0.4650987647182774, 0.48302796541247517, 0.499832473724382, 0.5149839061487, 0.5331704719574191, 0.5496428632177413, 0.5651643006422091, 0.5829736934392713, 0.6000400042103138, 0.6149538688187022, 0.6331281466409564, 0.6497452631301712, 0.6650612180819735, 0.6827323710022029, 0.6998505643859971, 0.7146633944066707, 0.7331738852954004, 0.7494305540749338, 0.7652062846173067, 0.7830272827413864, 0.7999594496213831, 0.8148989142209757, 0.8331192719924729, 0.8495254446752369]
25	医生	True	inanimate	animate	right	0.878	[0.0, 0.0, 0.0, 0.0, 0.0, 0.0, 0.0, 0.0, 0.0, 0.0, 0.0, -9.0, -17.0, -27.0, -31.0, -39.0, -45.0, -50.0, -61.0, -69.0, -89.0, -114.0, -153.0, -213.0, -294.0, -428.0, -529.0, -634.0, -732.0, -807.0, -864.0, -904.0, -927.0, -936.0, -937.0, -937.0, -937.0, -937.0, -937.0, -904.0, -868.0, -805.0, -689.0, -504.0, -258.0, 14.0, 259.0, 460.0, 603.0, 726.0, 745.0, 746.0, 746.0]	[-490.0, -490.0, -490.0, -490.0, -490.0, -490.0, -489.0, -478.0, -461.0, -436.0, -407.0, -368.0, -326.0, -261.0, -218.0, -171.0, -135.0, -106.0, -73.0, -42.0, -2.0, 36.0, 82.0, 120.0, 177.0, 257.0, 310.0, 358.0, 408.0, 435.0, 460.0, 476.0, 487.0, 493.0, 494.0, 494.0, 494.0, 494.0, 494.0, 494.0, 494.0, 494.0, 494.0, 479.0, 477.0, 477.0, 477.0, 489.0, 510.0, 531.0, 538.0, 538.0, 538.0]	[0.012777870695572346, 0.017681802506558597, 0.023866074567195028, 0.042280992201995105, 0.05901108990656212, 0.0738986718642991, 0.09229447485995479, 0.1089737139409408, 0.12414323701523244, 0.14223900821525604, 0.1589885619468987, 0.17418402631301433, 0.19230812817113474, 0.20886346336919814, 0.2242179889290128, 0.24217381360358559, 0.25903054588707164, 0.2741526236641221, 0.2924030187423341, 0.3088054367690347, 0.32426918888813816, 0.34211578700342216, 0.3590305458928924, 0.3738119732879568, 0.39225419756257907, 0.4085630902845878, 0.42424358893185854, 0.4418440859008115, 0.4590237192460336, 0.47380992528633215, 0.4921616962819826, 0.5086412555538118, 0.5242319835815579, 0.5419867630989756, 0.5590462472173385, 0.5740061917749699, 0.5921917335945182, 0.6087439968250692, 0.6242555355711374, 0.6422021442558616, 0.6591534258041065, 0.6740147251111921, 0.692399946769001, 0.708807826100383, 0.7242930821957998, 0.7421236376685556, 0.7590469298884273, 0.7738048052997328, 0.7921886616095435, 0.8087436554778833, 0.8242900102050044, 0.8418888005253393, 0.8590943751914892]
26	金鱼	True	animate	inanimate	left	0.865	[0.0, 0.0, 0.0, 0.0, 0.0, 0.0, 0.0, 4.0, 8.0, 11.0, 19.0, 26.0, 31.0, 38.0, 43.0, 43.0, 43.0, 43.0, 33.0, 6.0, -30.0, -87.0, -175.0, -328.0, -383.0, -521.0, -594.0, -622.0, -680.0, -709.0, -726.0, -733.0, -733.0, -733.0, -733.0, -726.0, -698.0, -648.0, -621.0, -610.0, -510.0, -417.0, -366.0, -350.0, -350.0, -379.0, -496.0, -658.0, -804.0, -937.0, -951.0, -951.0]	[-490.0, -490.0, -490.0, -490.0, -490.0, -490.0, -490.0, -487.0, -477.0, -465.0, -444.0, -421.0, -398.0, -359.0, -327.0, -291.0, -245.0, -204.0, -158.0, -96.0, -30.0, 30.0, 106.0, 224.0, 264.0, 363.0, 409.0, 428.0, 471.0, 493.0, 509.0, 513.0, 513.0, 513.0, 513.0, 510.0, 490.0, 456.0, 439.0, 433.0, 407.0, 404.0, 405.0, 413.0, 421.0, 429.0, 436.0, 436.0, 436.0, 436.0, 436.0, 436.0]	[0.015802456910023466, 0.02099037781590596, 0.030279415223049, 0.04865542086190544, 0.06511415881686844, 0.0805430949840229, 0.09837911176146008, 0.11519727340782993, 0.13023367658024654, 0.1485615542915184, 0.16501653756131418, 0.18041338844341226, 0.19835658380179666, 0.2151870334346313, 0.2302217299293261, 0.24845437571639195, 0.26499878824688494, 0.2803516071580816, 0.2983371278096456, 0.31512900680536404, 0.33017326064873487, 0.3484267277235631, 0.3648916096717585, 0.3804168017813936, 0.39826851987163536, 0.41516348146251403, 0.43019749529776163, 0.44846461570705287, 0.46473186582443304, 0.48051305767148733, 0.49835248780436814, 0.5151788414514158, 0.5302121725981124, 0.5484564237121958, 0.5649172096746042, 0.5804533243936021, 0.5980777147051413, 0.6151460734545253, 0.6302196819451638, 0.6484673463564832, 0.6649066283425782, 0.6805417296709493, 0.6984347490651999, 0.7151371988002211, 0.7302278739225585, 0.7484516450494993, 0.7649595349503215, 0.7804488870606292, 0.798040509398561, 0.8151327614905313, 0.8302514259121381, 0.8485922742693219]
27	蜗牛	True	inanimate	animate	right	0.876	[0.0, 0.0, 0.0, 0.0, 0.0, 0.0, 0.0, 0.0, 0.0, 0.0, 0.0, 0.0, 7.0, 14.0, 18.0, 18.0, 16.0, 12.0, 6.0, 0.0, -10.0, -13.0, -21.0, -35.0, -59.0, -106.0, -182.0, -283.0, -467.0, -591.0, -703.0, -781.0, -845.0, -877.0, -887.0, -889.0, -889.0, -889.0, -889.0, -869.0, -742.0, -580.0, -348.0, -89.0, 185.0, 432.0, 642.0, 799.0, 904.0, 944.0, 948.0, 948.0]	[-490.0, -490.0, -490.0, -490.0, -490.0, -490.0, -490.0, -490.0, -490.0, -470.0, -439.0, -407.0, -357.0, -315.0, -272.0, -234.0, -186.0, -155.0, -125.0, -103.0, -70.0, -62.0, -43.0, -21.0, 4.0, 40.0, 89.0, 146.0, 250.0, 322.0, 386.0, 424.0, 458.0, 476.0, 484.0, 487.0, 488.0, 488.0, 489.0, 495.0, 500.0, 500.0, 500.0, 496.0, 496.0, 511.0, 540.0, 540.0, 540.0, 540.0, 540.0, 540.0]	[0.001537090924102813, 0.00630790286231786, 0.018276745977345854, 0.03674422888434492, 0.05285378312692046, 0.06844314583577216, 0.08642320515355095, 0.10326116412761621, 0.1182938126148656, 0.13663636764977127, 0.15307667362503707, 0.1683509859140031, 0.18632660791627131, 0.20313691889168695, 0.21820233538164757, 0.236479013110511, 0.2529558417154476, 0.26836156722856686, 0.28632455991464667, 0.30949595346464776, 0.3179214182891883, 0.33652236239868216, 0.3529974843550008, 0.3684465591504704, 0.3862941812549252, 0.40315057220868766, 0.41817571138381027, 0.4363994825107511, 0.4527134952659253, 0.4683881912205834, 0.4862685812986456, 0.503129068238195, 0.518162740743719, 0.5364254238083959, 0.5527541138872039, 0.5684605538262986, 0.5863552798691671, 0.6032167908269912, 0.6179166396032088, 0.6363670558785088, 0.6528834791097324, 0.6684274444996845, 0.6863600585493259, 0.70328949476243, 0.7182047246897127, 0.7365646877151448, 0.7528568551351782, 0.7684414391696919, 0.7863941918476485, 0.8032615054689813, 0.8182194020191673, 0.8365602503763512]
28	蝌蚪	True	animate	inanimate	left	0.877	[0.0, 0.0, 0.0, 0.0, 0.0, 0.0, 0.0, 0.0, 0.0, 0.0, 0.0, -4.0, -7.0, -8.0, -1.0, -1.0, -1.0, -1.0, -1.0, -1.0, -1.0, -1.0, -1.0, -1.0, -1.0, 2.0, 8.0, 26.0, 42.0, 42.0, 31.0, -28.0, -154.0, -283.0, -383.0, -448.0, -482.0, -498.0, -503.0, -503.0, -490.0, -484.0, -477.0, -478.0, -493.0, -546.0, -630.0, -708.0, -791.0, -862.0, -906.0, -918.0, -919.0]	[-490.0, -490.0, -490.0, -490.0, -490.0, -490.0, -490.0, -490.0, -490.0, -490.0, -490.0, -490.0, -493.0, -514.0, -524.0, -524.0, -524.0, -524.0, -524.0, -524.0, -524.0, -524.0, -524.0, -524.0, -524.0, -528.0, -524.0, -516.0, -506.0, -500.0, -470.0, -378.0, -202.0, -64.0, 30.0, 100.0, 154.0, 197.0, 224.0, 249.0, 281.0, 291.0, 305.0, 321.0, 323.0, 323.0, 323.0, 330.0, 350.0, 385.0, 414.0, 426.0, 426.0]	[0.016620632231933996, 0.021052159107057378, 0.03158979277941398, 0.04978693992597982, 0.06682218937203288, 0.08213200033060275, 0.09979905723594129, 0.11690905864816159, 0.13167239536414854, 0.15017844890826382, 0.16666654151049443, 0.1821364376519341, 0.20006700366502628, 0.21679471206152812, 0.23187651252374053, 0.2501566036080476, 0.2666894108406268, 0.28208318969700485, 0.30002501970739104, 0.3168575173476711, 0.3318536432343535, 0.35018425158341415, 0.36665220552822575, 0.382055541704176, 0.40010420899488963, 0.41689096798654646, 0.43182462992263027, 0.4502381822094321, 0.4666569841792807, 0.48207260837079957, 0.49996801710221916, 0.5168568346707616, 0.5318915311945602, 0.5502245288807899, 0.5663774324348196, 0.5821081070171203, 0.6000065877451561, 0.6168790213414468, 0.63178742461605, 0.6501525076164398, 0.6665494642802514, 0.6821279043215327, 0.699668326677056, 0.7167909574054647, 0.7319007471669465, 0.7501064276439138, 0.7665491229563486, 0.7820825070375577, 0.7999632384453434, 0.8167578481079545, 0.8318382832221687, 0.850141584960511, 0.8665559496148489]
29	篮球	False	inanimate	animate	left	1.033	[0.0, 0.0, 0.0, 0.0, 0.0, 0.0, 0.0, 0.0, 6.0, 9.0, 9.0, 9.0, 13.0, 23.0, 24.0, 24.0, 24.0, 15.0, 0.0, -19.0, -47.0, -101.0, -250.0, -347.0, -423.0, -535.0, -629.0, -700.0, -750.0, -764.0, -770.0, -770.0, -770.0, -752.0, -666.0, -531.0, -319.0, -47.0, 223.0, 473.0, 654.0, 766.0, 818.0, 839.0, 841.0, 841.0, 841.0, 841.0, 825.0, 771.0, 677.0, 539.0, 358.0, 153.0, -63.0, -268.0, -508.0, -574.0, -672.0, -701.0, -706.0, -708.0]	[-490.0, -490.0, -490.0, -490.0, -490.0, -490.0, -490.0, -487.0, -469.0, -444.0, -384.0, -335.0, -304.0, -234.0, -204.0, -175.0, -140.0, -114.0, -72.0, -44.0, -9.0, 24.0, 105.0, 144.0, 181.0, 243.0, 297.0, 333.0, 361.0, 367.0, 373.0, 373.0, 375.0, 379.0, 379.0, 379.0, 390.0, 428.0, 468.0, 502.0, 527.0, 537.0, 537.0, 537.0, 537.0, 537.0, 537.0, 537.0, 530.0, 509.0, 486.0, 463.0, 436.0, 434.0, 434.0, 434.0, 434.0, 437.0, 456.0, 477.0, 483.0, 491.0]	[0.016094637976493686, 0.020973652484826744, 0.03071427351096645, 0.04931590030901134, 0.0656292303756345, 0.08109810249879956, 0.09916349509148858, 0.11589017949881963, 0.13086377739091404, 0.14913943110150285, 0.16560670238686725, 0.1810267638938967, 0.19903208187315613, 0.21579187558381818, 0.23057364427950233, 0.2490401031973306, 0.26569852099055424, 0.2810571425361559, 0.2988969139987603, 0.31582054754835553, 0.3305302950029727, 0.34889913265942596, 0.3656309370417148, 0.38100935591501184, 0.39891295664710924, 0.4157816355873365, 0.4307842467678711, 0.44910939381225035, 0.46553775313077495, 0.4810383692383766, 0.4989184179576114, 0.515846488851821, 0.5307777614507359, 0.5491230471234303, 0.5655203451460693, 0.5810383692150936, 0.5988873566675466, 0.6159239714615978, 0.6307712761336006, 0.6491425031272229, 0.6655712037463672, 0.6810496332182083, 0.6989586952840909, 0.715903491480276, 0.7307825401076116, 0.7491960923944134, 0.7655770064156968, 0.7810588492138777, 0.7989242206385825, 0.8159092941496056, 0.8307975587667897, 0.849164007086074, 0.865327150648227, 0.880979318608297, 0.898852540703956, 0.9158116728940513, 0.9307914147793781, 0.9491295324696694, 0.9654626598639879, 0.9809909239411354, 0.9989109086454846, 1.015999064722564]
30	蜘蛛	True	inanimate	animate	right	0.85	[0.0, 0.0, 0.0, 0.0, 0.0, 0.0, 0.0, 0.0, 0.0, 1.0, 6.0, 7.0, 7.0, 7.0, 7.0, 7.0, 7.0, 7.0, 4.0, -3.0, -8.0, -22.0, -51.0, -59.0, -91.0, -167.0, -225.0, -303.0, -376.0, -445.0, -530.0, -610.0, -675.0, -700.0, -739.0, -763.0, -782.0, -798.0, -800.0, -800.0, -799.0, -732.0, -602.0, -408.0, -155.0, 112.0, 378.0, 591.0, 743.0, 835.0, 839.0, 839.0]	[-490.0, -490.0, -490.0, -490.0, -490.0, -490.0, -490.0, -490.0, -488.0, -472.0, -450.0, -424.0, -381.0, -299.0, -247.0, -203.0, -166.0, -146.0, -121.0, -98.0, -78.0, -48.0, 4.0, 18.0, 58.0, 126.0, 160.0, 208.0, 254.0, 295.0, 337.0, 382.0, 414.0, 429.0, 449.0, 464.0, 475.0, 485.0, 487.0, 487.0, 487.0, 485.0, 466.0, 466.0, 466.0, 466.0, 493.0, 518.0, 524.0, 524.0, 524.0, 524.0]	[0.013628131273435429, 0.01952431825338863, 0.02595742209814489, 0.044582600879948586, 0.06085155764594674, 0.07624226453481242, 0.09398236672859639, 0.11101454417803325, 0.12600008872686885, 0.1442938331165351, 0.1608727202983573, 0.17622076053521596, 0.19414927856996655, 0.2109630029008258, 0.2259864353982266, 0.24432591843651608, 0.26077612306107767, 0.2763088244537357, 0.29414484126027673, 0.3109298936033156, 0.32591680347104557, 0.3442125958681572, 0.3605877072259318, 0.3762705951521639, 0.39405541197629645, 0.4109264802536927, 0.4259212407923769, 0.444280521129258, 0.46057405389728956, 0.4764009843929671, 0.4938977161364164, 0.5109756322053727, 0.5260062327142805, 0.5442242011777125, 0.5604760913120117, 0.5761422539362684, 0.5941158279310912, 0.6109595895686653, 0.6260577740031295, 0.6441968945437111, 0.6607092217891477, 0.6762487498635892, 0.6941960412077606, 0.7109544695704244, 0.7260004300624132, 0.7442457051656675, 0.760455270006787, 0.7762443125247955, 0.7939379934105091, 0.8110940747719724, 0.8260164727107622, 0.8442924677801784]
31	奶牛	True	animate	inanimate	left	0.702	[0.0, 0.0, 0.0, 0.0, 0.0, 1.0, 8.0, 14.0, 21.0, 22.0, 26.0, 26.0, 26.0, 26.0, 26.0, 24.0, 16.0, 7.0, -9.0, -35.0, -83.0, -106.0, -208.0, -286.0, -373.0, -467.0, -556.0, -642.0, -757.0, -789.0, -827.0, -850.0, -857.0, -858.0, -858.0, -858.0, -858.0, -858.0, -858.0, -858.0, -858.0, -858.0]	[-490.0, -490.0, -490.0, -490.0, -490.0, -490.0, -484.0, -469.0, -432.0, -420.0, -339.0, -282.0, -230.0, -184.0, -153.0, -126.0, -95.0, -67.0, -31.0, 9.0, 67.0, 86.0, 164.0, 211.0, 252.0, 291.0, 330.0, 366.0, 420.0, 439.0, 464.0, 482.0, 493.0, 494.0, 495.0, 496.0, 496.0, 496.0, 496.0, 496.0, 496.0, 496.0]	[0.0007479289779439569, 0.0059382391918916255, 0.016715488687623292, 0.035058043693425134, 0.0512833098473493, 0.06680030992720276, 0.08475852393894456, 0.10165109619265422, 0.1165236594970338, 0.13494267311762087, 0.15150722430553287, 0.16691465649637394, 0.18472882796777412, 0.20167328283423558, 0.21644139825366437, 0.23492253446602263, 0.25137683510547504, 0.2668371738982387, 0.28451412948197685, 0.30161491490434855, 0.31658305146265775, 0.3349549611157272, 0.3514416883699596, 0.36684161121957004, 0.3844994521641638, 0.40182858938351274, 0.4165939741069451, 0.43490103050135076, 0.45133724046172574, 0.4668023579288274, 0.48467592135421, 0.5016220828983933, 0.5166649713937659, 0.5349187797983177, 0.5513058378128335, 0.566860725870356, 0.5847127853194252, 0.6016872774926014, 0.616610699420562, 0.6349467691034079, 0.6514481737103779, 0.6669320644869003]
32	石头	False	inanimate	animate	left	0.729	[0.0, 0.0, 0.0, 0.0, 0.0, 0.0, 0.0, 0.0, 1.0, 8.0, 11.0, 13.0, 13.0, 13.0, 13.0, 13.0, 13.0, 13.0, 11.0, 0.0, -9.0, -22.0, -43.0, -81.0, -127.0, -226.0, -298.0, -358.0, -433.0, -498.0, -565.0, -684.0, -720.0, -783.0, -839.0, -891.0, -901.0, -903.0, -903.0, -903.0, -903.0, -903.0, -903.0]	[-490.0, -490.0, -490.0, -490.0, -490.0, -490.0, -490.0, -490.0, -488.0, -473.0, -459.0, -438.0, -416.0, -384.0, -364.0, -341.0, -314.0, -284.0, -262.0, -234.0, -206.0, -172.0, -144.0, -103.0, -42.0, 58.0, 119.0, 160.0, 207.0, 246.0, 290.0, 371.0, 399.0, 442.0, 474.0, 502.0, 507.0, 509.0, 509.0, 509.0, 509.0, 509.0, 509.0]	[0.005895913898712024, 0.010902245616307482, 0.02772006593295373, 0.04555847204755992, 0.06246367361745797, 0.07736183691304177, 0.09575593320187181, 0.11203239930910058, 0.12756578339030966, 0.14554857337498106, 0.16241622832603753, 0.1771573784062639, 0.19560677066328935, 0.21224846312543377, 0.22765487132710405, 0.24553116539027542, 0.2623237270745449, 0.27730244494159706, 0.29574330389732495, 0.31216620188206434, 0.327575682051247, 0.345483720098855, 0.3623131457425188, 0.37737241823924705, 0.39560233333031647, 0.41209418058861047, 0.42757943671313114, 0.44551068541477434, 0.4624401216278784, 0.4774533141462598, 0.49582795446622185, 0.5120904259383678, 0.5276210793526843, 0.5454478801402729, 0.5623472790466622, 0.5771153944369871, 0.5956258853257168, 0.6118572954728734, 0.6274155968567356, 0.6454297894961201, 0.6624592362786643, 0.6772567063162569, 0.6956931279273704]
33	诗人	True	animate	inanimate	left	0.726	[0.0, 0.0, 0.0, 0.0, 0.0, 0.0, 0.0, 0.0, 0.0, -1.0, -1.0, -1.0, -1.0, -1.0, -1.0, -1.0, -1.0, -3.0, -7.0, -14.0, -23.0, -32.0, -50.0, -79.0, -127.0, -196.0, -301.0, -344.0, -434.0, -497.0, -573.0, -644.0, -704.0, -759.0, -807.0, -842.0, -861.0, -868.0, -868.0, -868.0, -868.0, -868.0, -868.0]	[-490.0, -490.0, -490.0, -490.0, -490.0, -490.0, -490.0, -490.0, -490.0, -485.0, -467.0, -443.0, -415.0, -370.0, -345.0, -333.0, -286.0, -251.0, -211.0, -172.0, -139.0, -115.0, -80.0, -43.0, 7.0, 59.0, 130.0, 157.0, 221.0, 266.0, 317.0, 367.0, 410.0, 447.0, 485.0, 509.0, 524.0, 527.0, 527.0, 527.0, 527.0, 527.0, 527.0]	[0.0036963637685403228, 0.008236775902332738, 0.023001819296041504, 0.04100645461585373, 0.057980946789029986, 0.07279343547997996, 0.09118787312763743, 0.10760565110831521, 0.1232929763791617, 0.1411518624809105, 0.15799596544820815, 0.17297673132270575, 0.19125887038535438, 0.20785380023880862, 0.22319194179726765, 0.24118599577923305, 0.2579775334452279, 0.2729780966474209, 0.29123292907024734, 0.30776880829944275, 0.32330185105092824, 0.3411153398337774, 0.3580700347083621, 0.3729617126809899, 0.3912404384172987, 0.4077554963005241, 0.4231434725224972, 0.44108837452949956, 0.4579788987757638, 0.4727162941999268, 0.49113974516512826, 0.5077824616164435, 0.5232131044613197, 0.5410562892211601, 0.557857384235831, 0.5729641020006966, 0.5912056224478874, 0.6077049790183082, 0.6231639524921775, 0.6407903907820582, 0.6579717308050022, 0.6729634193470702, 0.6912104010989424]
34	毛巾	False	animate	inanimate	right	0.869	[0.0, 0.0, 0.0, 0.0, 0.0, 0.0, 0.0, 0.0, -1.0, -1.0, -1.0, -3.0, -9.0, -16.0, -22.0, -30.0, -34.0, -43.0, -47.0, -59.0, -75.0, -79.0, -101.0, -121.0, -147.0, -177.0, -211.0, -257.0, -296.0, -346.0, -416.0, -483.0, -590.0, -623.0, -701.0, -738.0, -776.0, -807.0, -830.0, -838.0, -838.0, -838.0, -827.0, -762.0, -539.0, -427.0, -47.0, 217.0, 463.0, 661.0, 786.0, 815.0, 815.0]	[-490.0, -490.0, -490.0, -490.0, -490.0, -490.0, -490.0, -490.0, -479.0, -469.0, -444.0, -419.0, -381.0, -334.0, -283.0, -233.0, -190.0, -150.0, -117.0, -80.0, -41.0, -32.0, -1.0, 18.0, 37.0, 58.0, 84.0, 116.0, 141.0, 171.0, 211.0, 253.0, 322.0, 346.0, 405.0, 432.0, 457.0, 480.0, 496.0, 502.0, 502.0, 502.0, 502.0, 489.0, 453.0, 441.0, 439.0, 440.0, 447.0, 458.0, 479.0, 489.0, 489.0]	[0.014498871867544949, 0.021153159526875243, 0.02795251371571794, 0.04676167102297768, 0.06259747614967637, 0.07820492950850166, 0.09590509574627504, 0.1129458065261133, 0.12789721778244711, 0.14625069545581937, 0.16273059605737217, 0.1781523642130196, 0.1959839436749462, 0.21296867585624568, 0.22801941499346867, 0.2461872074927669, 0.2627326440415345, 0.2781585082120728, 0.29585628511267714, 0.31296594519517384, 0.3276794473058544, 0.34618720749858767, 0.3626933907507919, 0.37812812958145514, 0.3959068024123553, 0.41289119323482737, 0.4279757243639324, 0.44614522354095243, 0.46263638813979924, 0.4781458789075259, 0.4959245517384261, 0.5129475131980143, 0.5279272550833412, 0.5462346528074704, 0.5627213800617028, 0.5781591908889823, 0.5956893732654862, 0.6129147452302277, 0.6279494417249225, 0.646235676802462, 0.6625787028460763, 0.6781315428961534, 0.695839559804881, 0.7129304465488531, 0.7278719591267873, 0.7462489887839183, 0.7626135188038461, 0.7781383695546538, 0.7959364983835258, 0.813112035713857, 0.8279183804115746, 0.8461943754809909, 0.8624148629896808]
35	黑狗	True	inanimate	animate	right	0.88	[0.0, 0.0, 0.0, 0.0, 0.0, 0.0, 0.0, 0.0, 0.0, 2.0, -4.0, -6.0, -10.0, -17.0, -24.0, -30.0, -33.0, -42.0, -46.0, -52.0, -63.0, -79.0, -101.0, -137.0, -175.0, -231.0, -291.0, -364.0, -440.0, -514.0, -584.0, -669.0, -698.0, -722.0, -737.0, -745.0, -746.0, -746.0, -746.0, -748.0, -748.0, -748.0, -748.0, -598.0, -384.0, -249.0, 190.0, 478.0, 718.0, 875.0, 927.0, 929.0, 929.0]	[-490.0, -490.0, -490.0, -490.0, -490.0, -490.0, -490.0, -490.0, -490.0, -490.0, -445.0, -424.0, -393.0, -354.0, -307.0, -264.0, -218.0, -166.0, -137.0, -77.0, -36.0, 1.0, 40.0, 90.0, 134.0, 179.0, 221.0, 266.0, 303.0, 340.0, 371.0, 409.0, 420.0, 431.0, 437.0, 441.0, 441.0, 441.0, 441.0, 441.0, 441.0, 441.0, 441.0, 442.0, 451.0, 456.0, 463.0, 463.0, 463.0, 463.0, 463.0, 463.0, 463.0]	[0.00018984940834343433, 0.004898197395959869, 0.015478497691219673, 0.03414292976958677, 0.05031938530737534, 0.06574934546370059, 0.083670695516048, 0.10052299045491964, 0.11548498301999643, 0.1338476766832173, 0.1504067665664479, 0.16581317473901436, 0.18370551147381775, 0.2004909051465802, 0.2154788390325848, 0.23382310071610846, 0.25032689463114366, 0.2656827855389565, 0.2834361997083761, 0.30040318256942555, 0.31549488168093376, 0.3338077407388482, 0.35021903339657, 0.36576334011624567, 0.3836867381760385, 0.4004612091812305, 0.4154904443421401, 0.43378009274601936, 0.45022278805845417, 0.46575685479911044, 0.4835560076171532, 0.5005349371058401, 0.5154709883790929, 0.5337288927985355, 0.5502029907365795, 0.5657414948218502, 0.5836058422282804, 0.600540398445446, 0.615510241681477, 0.6337589301110711, 0.6499998975777999, 0.6657199908222537, 0.6836348555516452, 0.7003738279163372, 0.7154924923670478, 0.7338183220417704, 0.750319385289913, 0.7658077134110499, 0.7836177888966631, 0.800473155832151, 0.8155344763072208, 0.8338603060110472, 0.8503688786004204]
36	老师	True	inanimate	animate	right	0.848	[0.0, 0.0, 0.0, 0.0, 0.0, 0.0, 0.0, 0.0, 0.0, 0.0, 0.0, 0.0, 4.0, 6.0, 6.0, 6.0, 3.0, -5.0, -15.0, -22.0, -28.0, -41.0, -54.0, -79.0, -113.0, -169.0, -260.0, -295.0, -404.0, -467.0, -545.0, -616.0, -694.0, -757.0, -843.0, -867.0, -890.0, -901.0, -901.0, -901.0, -846.0, -747.0, -591.0, -389.0, -149.0, 111.0, 384.0, 617.0, 801.0, 905.0, 933.0, 933.0]	[-490.0, -490.0, -490.0, -490.0, -490.0, -490.0, -490.0, -490.0, -490.0, -490.0, -479.0, -459.0, -434.0, -412.0, -380.0, -370.0, -328.0, -289.0, -246.0, -204.0, -173.0, -131.0, -99.0, -61.0, -21.0, 26.0, 92.0, 114.0, 175.0, 210.0, 253.0, 294.0, 337.0, 369.0, 422.0, 438.0, 455.0, 466.0, 470.0, 473.0, 474.0, 467.0, 450.0, 450.0, 450.0, 468.0, 480.0, 491.0, 520.0, 540.0, 540.0, 540.0]	[0.007977362780366093, 0.012312633742112666, 0.01687147785560228, 0.03272742166882381, 0.049671876535285264, 0.06478098363731988, 0.0827740136301145, 0.09984783371328376, 0.11459888247190975, 0.13307421604986303, 0.1495568472892046, 0.16501684478134848, 0.18278732561157085, 0.19986797237652354, 0.21467431707424112, 0.23302096809493378, 0.24960429259226657, 0.26498510080273263, 0.28281770425383, 0.2997031085251365, 0.3147477036691271, 0.3329841041122563, 0.34949609002796933, 0.36488167688366957, 0.3829221521737054, 0.39973485248629004, 0.414485218556365, 0.43298581076669507, 0.44945649537839927, 0.46504824742441997, 0.48283579491544515, 0.4997369004704524, 0.5145452931756154, 0.5329407548124436, 0.5494626393774524, 0.5649260501959361, 0.5827938109287061, 0.5997795670991763, 0.6148340609215666, 0.6329448508040514, 0.6495042820170056, 0.6649274155206513, 0.6829402428120375, 0.6998089217522647, 0.7147477036633063, 0.7330076560901944, 0.7494943833444268, 0.76498237013584, 0.7830030480981804, 0.7997416791331489, 0.8147705729934387, 0.8330977680161595]
37	楼梯	False	animate	inanimate	right	1.012	[0.0, 0.0, 0.0, 0.0, 0.0, 0.0, 0.0, 0.0, 0.0, 0.0, 0.0, 0.0, 0.0, 0.0, 10.0, 15.0, 16.0, 5.0, -15.0, -46.0, -82.0, -122.0, -186.0, -264.0, -341.0, -424.0, -554.0, -599.0, -732.0, -797.0, -850.0, -877.0, -891.0, -896.0, -896.0, -896.0, -896.0, -896.0, -890.0, -886.0, -846.0, -769.0, -677.0, -630.0, -622.0, -622.0, -622.0, -622.0, -621.0, -618.0, -573.0, -503.0, -160.0, 107.0, 350.0, 525.0, 645.0, 695.0, 701.0, 701.0, 701.0]	[-490.0, -490.0, -490.0, -490.0, -490.0, -490.0, -490.0, -490.0, -490.0, -488.0, -452.0, -436.0, -395.0, -335.0, -244.0, -221.0, -112.0, -40.0, 20.0, 81.0, 128.0, 167.0, 214.0, 252.0, 293.0, 327.0, 379.0, 400.0, 456.0, 484.0, 507.0, 519.0, 525.0, 527.0, 527.0, 527.0, 527.0, 527.0, 526.0, 523.0, 505.0, 478.0, 453.0, 438.0, 436.0, 436.0, 436.0, 434.0, 430.0, 428.0, 426.0, 426.0, 467.0, 502.0, 537.0, 540.0, 540.0, 540.0, 540.0, 540.0, 540.0]	[0.01621171523584053, 0.02109038838534616, 0.030536097678123042, 0.049472230835817754, 0.06571388099109754, 0.08119674777844921, 0.09915154846385121, 0.11604889936279505, 0.13103444391163066, 0.14926982033648528, 0.16589478749665432, 0.18120835308218375, 0.19888394334702753, 0.21598814209573902, 0.23070062018814497, 0.24915581510867923, 0.26564800369669683, 0.2811264331685379, 0.29879929273738526, 0.31586116619291715, 0.3309327266761102, 0.3492629936954472, 0.3656609743484296, 0.38120971841271967, 0.39876174612436444, 0.4159249954682309, 0.43098870528046973, 0.44916059376555495, 0.46570944364066236, 0.4811199478281196, 0.4989822472562082, 0.5160355873813387, 0.5308484174020123, 0.5492162310692947, 0.5657220729626715, 0.5812185930844862, 0.5990068232349586, 0.6159355767886154, 0.630984950606944, 0.6492670896986965, 0.6657405049481895, 0.6811950411065482, 0.6989668872847687, 0.7159741474315524, 0.7309487693128176, 0.7491991644201335, 0.7656790650216863, 0.7812291744048707, 0.7991170738241635, 0.8159017848374788, 0.8306900388852227, 0.8491087111469824, 0.8655094224959612, 0.8811359904939309, 0.8990829405083787, 0.9160383180424105, 0.931005430611549, 0.949238076369511, 0.965652441023849, 0.9812264437496196, 0.9989897565974388]
38	狐狸	True	inanimate	animate	right	0.814	[0.0, 0.0, 0.0, 0.0, 0.0, 0.0, 0.0, 0.0, 0.0, 0.0, 0.0, 0.0, 2.0, 5.0, 7.0, 7.0, 7.0, 7.0, 7.0, 7.0, 6.0, -6.0, -45.0, -80.0, -121.0, -175.0, -239.0, -321.0, -409.0, -482.0, -552.0, -619.0, -691.0, -717.0, -759.0, -768.0, -773.0, -773.0, -773.0, -762.0, -674.0, -513.0, -273.0, -9.0, 373.0, 485.0, 716.0, 783.0, 791.0]	[-490.0, -490.0, -490.0, -490.0, -490.0, -490.0, -490.0, -490.0, -490.0, -490.0, -490.0, -484.0, -469.0, -451.0, -427.0, -398.0, -363.0, -319.0, -264.0, -191.0, -82.0, -44.0, 61.0, 123.0, 173.0, 233.0, 286.0, 342.0, 391.0, 426.0, 454.0, 482.0, 517.0, 527.0, 540.0, 540.0, 540.0, 540.0, 540.0, 538.0, 519.0, 502.0, 499.0, 499.0, 524.0, 540.0, 540.0, 540.0, 540.0]	[0.0017121947894338518, 0.007045523583656177, 0.018445364519720897, 0.037200249847956, 0.05344531330047175, 0.0688053001940716, 0.08672391957952641, 0.10368817177368328, 0.11858565238071606, 0.1368428741407115, 0.15343166000093333, 0.16881758818635717, 0.18673927956842817, 0.20362843849579804, 0.21861637235269882, 0.23686369546339847, 0.2533903587027453, 0.2687769695476163, 0.2866577009554021, 0.30352057723212056, 0.3185791670694016, 0.3367732421902474, 0.35334325474104844, 0.3687213322846219, 0.38643754116492346, 0.40360591051285155, 0.4184183992038015, 0.4368551621446386, 0.4533323320792988, 0.46879062289372087, 0.4864815731125418, 0.5035591478808783, 0.5183781218947843, 0.5367575408890843, 0.5530681402888149, 0.5688223668548744, 0.5864331038319506, 0.6036816864507273, 0.6186631349846721, 0.6367418395529967, 0.6532667961146217, 0.6687424949195702, 0.6863928265229333, 0.7035263799189124, 0.718573364400072, 0.7367824582033791, 0.7532811321143527, 0.7687401055882219, 0.7866095729987137]
39	教室	False	inanimate	animate	left	0.831	[0.0, 0.0, 0.0, 0.0, 0.0, 0.0, 0.0, 0.0, 0.0, 0.0, 0.0, 0.0, 0.0, 0.0, 0.0, 0.0, 0.0, 0.0, 0.0, 3.0, 3.0, 5.0, 5.0, 2.0, -1.0, -11.0, -22.0, -50.0, -85.0, -122.0, -180.0, -238.0, -295.0, -344.0, -405.0, -469.0, -482.0, -512.0, -528.0, -543.0, -565.0, -589.0, -617.0, -636.0, -645.0, -645.0, -648.0, -657.0, -660.0, -665.0, -667.0]	[-490.0, -490.0, -490.0, -490.0, -490.0, -490.0, -490.0, -490.0, -490.0, -490.0, -490.0, -490.0, -490.0, -490.0, -490.0, -490.0, -490.0, -490.0, -488.0, -479.0, -474.0, -465.0, -446.0, -406.0, -399.0, -360.0, -327.0, -269.0, -211.0, -156.0, -86.0, -17.0, 43.0, 100.0, 163.0, 241.0, 260.0, 300.0, 318.0, 329.0, 340.0, 352.0, 369.0, 380.0, 384.0, 384.0, 385.0, 390.0, 393.0, 396.0, 396.0]	[0.014021688286447898, 0.018942004098789766, 0.026421293703606352, 0.04491983793559484, 0.06170523160835728, 0.07665698416531086, 0.09495721390703693, 0.11149718912201934, 0.12681382670416497, 0.14481163534219377, 0.16172775957966223, 0.17665766683057882, 0.1949606272391975, 0.21128590396256186, 0.22686161333695054, 0.24476145938388072, 0.2616786076396238, 0.2766955548140686, 0.29499714987468906, 0.31143882116884924, 0.3268527386826463, 0.3447734060464427, 0.36378258449258283, 0.37663274953956716, 0.3949578965548426, 0.4112415306735784, 0.42683669601683505, 0.44471230744966306, 0.4616809969593305, 0.4767300294479355, 0.49490498992963694, 0.511419365182519, 0.5268148507166188, 0.544637214159593, 0.5616168263368309, 0.5763583177758846, 0.5948353580024559, 0.6113374452397693, 0.6268742426473182, 0.6445467609155457, 0.66162945565884, 0.6767440240946598, 0.6949142059311271, 0.7113975198590197, 0.7268530800065491, 0.7445477849105373, 0.7615570930647664, 0.7765771122358274, 0.7948111233417876, 0.8113002399622928, 0.8267708187340759]
40	电脑	False	inanimate	animate	left	0.767	[0.0, 0.0, 0.0, 0.0, 0.0, 0.0, 0.0, 0.0, 0.0, 0.0, 0.0, 0.0, 0.0, 0.0, 0.0, 0.0, 0.0, 0.0, -1.0, -8.0, -13.0, -13.0, -13.0, -20.0, -31.0, -67.0, -94.0, -134.0, -189.0, -246.0, -304.0, -370.0, -433.0, -495.0, -559.0, -582.0, -635.0, -709.0, -749.0, -782.0, -805.0, -834.0, -852.0, -857.0, -858.0, -858.0, -858.0]	[-490.0, -490.0, -490.0, -490.0, -490.0, -490.0, -490.0, -490.0, -490.0, -490.0, -490.0, -490.0, -490.0, -490.0, -490.0, -490.0, -490.0, -490.0, -488.0, -472.0, -452.0, -420.0, -371.0, -296.0, -220.0, -108.0, -31.0, 48.0, 122.0, 189.0, 243.0, 297.0, 342.0, 379.0, 414.0, 425.0, 455.0, 488.0, 502.0, 513.0, 518.0, 524.0, 524.0, 524.0, 523.0, 523.0, 523.0]	[0.013089166430290788, 0.01835900725563988, 0.024861743033397943, 0.04283224503160454, 0.060193808894837275, 0.07516570010920987, 0.09293891160632484, 0.10993524911464192, 0.12473988713463768, 0.14315890075522475, 0.15962036937708035, 0.17515477744746022, 0.1930594021687284, 0.20988302514888346, 0.22488700167741627, 0.24326198332710192, 0.2596265133761335, 0.27524284136598, 0.2930761275056284, 0.30993285978911445, 0.3248788096825592, 0.3431749434093945, 0.35963163335691206, 0.37516365211922675, 0.39300888488651253, 0.4099086251226254, 0.4249457109544892, 0.443191327387467, 0.4595067054615356, 0.4752404520404525, 0.4930761274881661, 0.5099335424310993, 0.5246248579060193, 0.5431490021001082, 0.5596695213462226, 0.5751264468126465, 0.5929655355866998, 0.6098444545059465, 0.6249419563100673, 0.6431739194085822, 0.6596237827034201, 0.6751930067548528, 0.6930399461998604, 0.7098471851786599, 0.7249235243070871, 0.7432083940366283, 0.7596818093152251]
41	衬衫	False	inanimate	animate	left	0.766	[0.0, 0.0, 0.0, 0.0, 0.0, 0.0, 0.0, 0.0, 0.0, 0.0, 0.0, 0.0, 0.0, 0.0, 0.0, 0.0, 0.0, 0.0, 0.0, 1.0, 1.0, 0.0, -8.0, -15.0, -33.0, -78.0, -95.0, -141.0, -202.0, -245.0, -269.0, -340.0, -388.0, -438.0, -477.0, -489.0, -504.0, -524.0, -541.0, -559.0, -596.0, -653.0, -690.0, -781.0, -807.0, -810.0, -810.0]	[-490.0, -490.0, -490.0, -490.0, -490.0, -490.0, -490.0, -490.0, -490.0, -490.0, -490.0, -490.0, -490.0, -490.0, -490.0, -490.0, -490.0, -490.0, -490.0, -490.0, -486.0, -468.0, -443.0, -420.0, -385.0, -320.0, -290.0, -225.0, -138.0, -77.0, -45.0, 54.0, 125.0, 193.0, 255.0, 284.0, 318.0, 357.0, 383.0, 400.0, 418.0, 435.0, 444.0, 462.0, 469.0, 471.0, 471.0]	[0.013751011196291074, 0.0183115619875025, 0.0258652621996589, 0.044031689350958914, 0.06112052811658941, 0.07602381138713099, 0.09425543315592222, 0.11068788848933764, 0.12628783250693232, 0.14401906004059128, 0.16106523215421475, 0.17602176338550635, 0.1942793264752254, 0.21091589896241203, 0.22629397650598548, 0.24405967866186984, 0.26112428278429434, 0.27604121938929893, 0.29438548104371876, 0.31088244830607437, 0.32631650447729044, 0.34428564115660265, 0.3611785547400359, 0.3761432779720053, 0.39428751848754473, 0.4106506831885781, 0.4262550645216834, 0.4441740252368618, 0.460980581556214, 0.47588352352613583, 0.49420355053734966, 0.5106858404760715, 0.526296365831513, 0.5441989425453357, 0.5609048056358006, 0.5760603340168018, 0.5942475825140718, 0.6109019042924047, 0.6262574538704939, 0.6441828999086283, 0.6611075574473944, 0.6761367926374078, 0.6943998170318082, 0.710548624600051, 0.7262536991911475, 0.7442064518691041, 0.7609949175384827]
42	镜子	False	animate	inanimate	right	1.092	[0.0, 0.0, 0.0, 0.0, 0.0, 0.0, 0.0, 0.0, 0.0, 0.0, 0.0, 0.0, 0.0, 0.0, 0.0, 0.0, 0.0, 0.0, 0.0, 0.0, -15.0, -41.0, -94.0, -130.0, -144.0, -199.0, -252.0, -317.0, -385.0, -441.0, -497.0, -558.0, -610.0, -667.0, -725.0, -759.0, -777.0, -807.0, -815.0, -816.0, -816.0, -816.0, -818.0, -820.0, -820.0, -820.0, -820.0, -820.0, -820.0, -820.0, -820.0, -815.0, -734.0, -593.0, -405.0, -181.0, 43.0, 272.0, 486.0, 740.0, 854.0, 900.0, 909.0, 909.0, 909.0, 909.0]	[-490.0, -490.0, -490.0, -490.0, -490.0, -490.0, -490.0, -490.0, -490.0, -490.0, -490.0, -490.0, -490.0, -490.0, -490.0, -490.0, -490.0, -490.0, -490.0, -490.0, -468.0, -438.0, -381.0, -338.0, -316.0, -239.0, -166.0, -71.0, 19.0, 89.0, 156.0, 221.0, 272.0, 323.0, 389.0, 430.0, 448.0, 475.0, 480.0, 481.0, 481.0, 481.0, 484.0, 485.0, 485.0, 485.0, 485.0, 485.0, 485.0, 485.0, 485.0, 485.0, 478.0, 461.0, 461.0, 461.0, 461.0, 461.0, 469.0, 478.0, 478.0, 482.0, 484.0, 484.0, 484.0, 484.0]	[0.013434970955131575, 0.02094975920044817, 0.02542088073096238, 0.04356136659043841, 0.06203567615011707, 0.07584840035997331, 0.09368783046375029, 0.11064832800184377, 0.12545501402928494, 0.143871638312703, 0.16042526686214842, 0.17578457109630108, 0.19377384640392847, 0.21067392796976492, 0.22560485923895612, 0.24390406496240757, 0.26043960283277556, 0.27586478434386663, 0.29379739839350805, 0.3106326266715769, 0.32536421943223104, 0.3437569504021667, 0.36040000821230933, 0.3758654670091346, 0.3937066037906334, 0.410525789426174, 0.42555297660874203, 0.44379347303765826, 0.4604116135451477, 0.47575931245228276, 0.4936451638350263, 0.5105257894319948, 0.5255441019544378, 0.5438750516623259, 0.5603696295875125, 0.5758268963836599, 0.5937260597711429, 0.610578696068842, 0.6256004219176248, 0.6437897183932364, 0.6600791551463772, 0.6758340643718839, 0.6937216224323492, 0.7106804133218247, 0.7255359099654015, 0.7437757237348706, 0.76033754425589, 0.7758132430608384, 0.79366837447742, 0.8106281893560663, 0.8253492007788736, 0.8438402356696315, 0.8603614375751931, 0.8758309923869092, 0.893627755867783, 0.910488584137056, 0.9256567418633495, 0.9438733449787833, 0.9603170642803889, 0.9758067577204201, 0.9937185504531953, 1.0105875707231462, 1.0255478566105012, 1.043901675613597, 1.0604348241758998, 1.075836453703232]
43	法官	True	animate	inanimate	left	0.885	[0.0, 0.0, 0.0, 0.0, 0.0, 0.0, 0.0, 0.0, 0.0, 0.0, 0.0, 0.0, 0.0, 0.0, 0.0, 0.0, 0.0, 0.0, 0.0, 0.0, 0.0, 0.0, 0.0, 0.0, 0.0, 0.0, 0.0, -1.0, -2.0, -4.0, -12.0, -32.0, -43.0, -65.0, -136.0, -203.0, -237.0, -360.0, -434.0, -473.0, -524.0, -568.0, -611.0, -675.0, -694.0, -725.0, -746.0, -749.0, -751.0, -753.0, -756.0, -761.0, -763.0, -763.0]	[-490.0, -490.0, -490.0, -490.0, -490.0, -490.0, -490.0, -490.0, -490.0, -490.0, -490.0, -490.0, -490.0, -490.0, -490.0, -490.0, -490.0, -490.0, -490.0, -490.0, -490.0, -490.0, -490.0, -490.0, -490.0, -490.0, -490.0, -490.0, -484.0, -476.0, -459.0, -418.0, -394.0, -353.0, -236.0, -141.0, -94.0, 50.0, 133.0, 175.0, 227.0, 269.0, 308.0, 355.0, 368.0, 389.0, 405.0, 406.0, 407.0, 409.0, 412.0, 419.0, 422.0, 422.0]	[0.014971618162235245, 0.019656072836369276, 0.028296236123424023, 0.046617628482636064, 0.06312415306456387, 0.07843259867513552, 0.09700657750363462, 0.11317211037385277, 0.12871266243746504, 0.14650498860282823, 0.16348323543206789, 0.17830596413114108, 0.1966980124125257, 0.21317142769112252, 0.22886319030658342, 0.246689991094172, 0.26348050477099605, 0.278202540212078, 0.29654577787732705, 0.3132690489583183, 0.32871709976461716, 0.34658963917172514, 0.3634767501207534, 0.3784718519891612, 0.39672634308226407, 0.41308233977179043, 0.4287293877569027, 0.4466852124314755, 0.4634989367623348, 0.47842338267946616, 0.4967737883562222, 0.513090531778289, 0.5286645344749559, 0.5464667592896149, 0.5634176994790323, 0.5784394253278151, 0.5967041564290412, 0.6131642597028986, 0.6286604384949896, 0.6466261618188582, 0.6634050701686647, 0.6784110947046429, 0.6966713884612545, 0.7129427345644217, 0.728682625136571, 0.7465677938598674, 0.763368206215091, 0.7784506893367507, 0.7967280497250613, 0.8132396943110507, 0.8287331424362492, 0.8464636872813571, 0.8635146380693186, 0.8784721933188848]
44	核桃	False	animate	inanimate	right	0.869	[0.0, 0.0, 0.0, 0.0, 0.0, 0.0, 0.0, 0.0, 0.0, 0.0, 0.0, -6.0, -27.0, -48.0, -96.0, -114.0, -170.0, -209.0, -259.0, -306.0, -350.0, -384.0, -436.0, -483.0, -536.0, -590.0, -669.0, -698.0, -768.0, -798.0, -826.0, -843.0, -856.0, -869.0, -877.0, -881.0, -882.0, -882.0, -882.0, -882.0, -874.0, -751.0, -548.0, -271.0, 15.0, 297.0, 643.0, 710.0, 830.0, 881.0, 890.0, 890.0, 890.0]	[-490.0, -490.0, -490.0, -490.0, -490.0, -490.0, -490.0, -490.0, -490.0, -490.0, -490.0, -471.0, -441.0, -408.0, -340.0, -315.0, -236.0, -181.0, -122.0, -61.0, 0.0, 40.0, 97.0, 144.0, 195.0, 242.0, 309.0, 333.0, 398.0, 433.0, 463.0, 484.0, 503.0, 522.0, 540.0, 540.0, 540.0, 540.0, 540.0, 540.0, 540.0, 523.0, 492.0, 468.0, 461.0, 461.0, 461.0, 462.0, 483.0, 503.0, 508.0, 508.0, 508.0]	[0.009780283900909126, 0.014167778834234923, 0.035019473056308925, 0.03893524571321905, 0.053065750980749726, 0.0686243936943356, 0.08651707175886258, 0.10349429459893145, 0.11821428206167184, 0.1367162395908963, 0.1530957882932853, 0.16855476176715456, 0.18644675714313053, 0.2034103266778402, 0.2184026978793554, 0.23661179168266244, 0.25307940429775044, 0.2686353163444437, 0.2864303731766995, 0.30332123875268735, 0.3183566179359332, 0.3365967730351258, 0.3530766736366786, 0.3685441804409493, 0.3861801760504022, 0.40341271602665074, 0.41839962589438073, 0.43666981830028817, 0.45316473755519837, 0.4685796790581662, 0.4862644853128586, 0.5034676706418395, 0.5184163512021769, 0.5366476316412445, 0.5530742843111511, 0.5685407670971472, 0.5861822240403853, 0.60341783601325, 0.6184371725248639, 0.6366800582909491, 0.6530903269595001, 0.6685950390528888, 0.686471333145164, 0.7034615266311448, 0.7183675405976828, 0.736675962281879, 0.7530790629680268, 0.7686291723512113, 0.7863388959085569, 0.8034263693261892, 0.818426249868935, 0.836695076955948, 0.8531230949156452]
45	骑兵	True	inanimate	animate	right	0.98	[0.0, 0.0, 0.0, 0.0, 0.0, 0.0, 0.0, 0.0, 0.0, 0.0, 0.0, 0.0, 0.0, 0.0, 0.0, 0.0, 0.0, 0.0, 0.0, 0.0, -1.0, -6.0, -32.0, -41.0, -67.0, -129.0, -180.0, -207.0, -316.0, -413.0, -502.0, -611.0, -693.0, -763.0, -836.0, -846.0, -856.0, -857.0, -857.0, -857.0, -855.0, -841.0, -834.0, -831.0, -831.0, -831.0, -831.0, -831.0, -831.0, -767.0, -604.0, -488.0, -73.0, 240.0, 525.0, 762.0, 959.0, 959.0, 959.0]	[-490.0, -490.0, -490.0, -490.0, -490.0, -490.0, -490.0, -490.0, -490.0, -490.0, -490.0, -490.0, -490.0, -487.0, -484.0, -483.0, -475.0, -466.0, -450.0, -430.0, -406.0, -380.0, -316.0, -293.0, -236.0, -122.0, -46.0, -8.0, 115.0, 201.0, 261.0, 336.0, 384.0, 428.0, 471.0, 478.0, 487.0, 488.0, 488.0, 488.0, 488.0, 483.0, 479.0, 479.0, 479.0, 479.0, 479.0, 479.0, 479.0, 469.0, 462.0, 460.0, 466.0, 512.0, 540.0, 540.0, 540.0, 540.0, 540.0]	[0.0009418061235919595, 0.005687359400326386, 0.01696432044263929, 0.035645477852085605, 0.05168813082855195, 0.06724404287524521, 0.08518587291473523, 0.10206854649004526, 0.11705067771254107, 0.13533145145629533, 0.15189770932192914, 0.1673000215087086, 0.1852309288806282, 0.20207503181882203, 0.21703361105755903, 0.23539016072754748, 0.25169905347866006, 0.26731572282733396, 0.28524833684787154, 0.3020576238341164, 0.31683085922850296, 0.33528707816731185, 0.35164478153456, 0.3672450668818783, 0.3851544702774845, 0.40202519719605334, 0.41703873107326217, 0.43893012570333667, 0.4515789042634424, 0.4672682775417343, 0.48511419296846725, 0.5020880024821963, 0.5170472643803805, 0.5353741180733778, 0.551769709418295, 0.5672447255637962, 0.584939089108957, 0.6020152985583991, 0.6170824216969777, 0.6352225661976263, 0.6515570589399431, 0.6672484802256804, 0.6848834518168587, 0.7021504664444365, 0.7170274670643266, 0.7352840061648749, 0.7514816243201494, 0.767344053456327, 0.7849039318098221, 0.8019596612721216, 0.8170281497295946, 0.835272400843678, 0.8515515976177994, 0.8672191255609505, 0.8851616382598877, 0.9020828825014178, 0.9169933337543625, 0.9352843474771362, 0.951735917449696]
46	画家	True	inanimate	animate	right	0.845	[0.0, 0.0, 0.0, 0.0, 0.0, 0.0, 0.0, 0.0, 1.0, 1.0, -4.0, -4.0, -6.0, -9.0, -9.0, -9.0, -9.0, -9.0, -11.0, -15.0, -23.0, -40.0, -65.0, -98.0, -142.0, -238.0, -311.0, -349.0, -470.0, -566.0, -650.0, -701.0, -752.0, -791.0, -813.0, -816.0, -818.0, -818.0, -818.0, -818.0, -810.0, -724.0, -575.0, -372.0, -119.0, 158.0, 433.0, 677.0, 869.0, 959.0, 959.0, 959.0]	[-490.0, -490.0, -490.0, -490.0, -490.0, -490.0, -490.0, -490.0, -489.0, -485.0, -462.0, -453.0, -438.0, -413.0, -393.0, -381.0, -347.0, -320.0, -291.0, -261.0, -235.0, -196.0, -148.0, -97.0, -39.0, 61.0, 122.0, 146.0, 225.0, 277.0, 322.0, 349.0, 373.0, 394.0, 403.0, 405.0, 405.0, 405.0, 405.0, 405.0, 406.0, 406.0, 413.0, 442.0, 475.0, 510.0, 540.0, 540.0, 540.0, 540.0, 540.0, 540.0]	[0.008859367371769622, 0.013329464884009212, 0.018581897747935727, 0.03517375557566993, 0.05122357656364329, 0.06676685929414816, 0.08450115882442333, 0.101559277594788, 0.11650522751733661, 0.13486792118055746, 0.15117237658705562, 0.1667600326181855, 0.1845400707970839, 0.20155722959316336, 0.21648372351774015, 0.234881915821461, 0.25136488841963, 0.2667979206016753, 0.28462130806292407, 0.3015213896287605, 0.3165284381539095, 0.33475698792608455, 0.35112800329807214, 0.36673784599406645, 0.3845984387444332, 0.40145346435019746, 0.41623830507160164, 0.4345924654044211, 0.4511549686139915, 0.46673409131472, 0.4844936495064758, 0.5014671176904812, 0.5165079581784084, 0.5347904385707807, 0.5511771552555729, 0.5667276059975848, 0.5845602094486821, 0.6014555123401806, 0.6165055688470602, 0.6348542678460944, 0.65123006189242, 0.6667371633229777, 0.6845813721010927, 0.7015200243040454, 0.7165123955055606, 0.7347860012378078, 0.7511959285766352, 0.7667170246713795, 0.7846667053527199, 0.8015760029084049, 0.8165236595086753, 0.8347972652409226]
47	月亮	False	inanimate	animate	left	0.955	[0.0, 0.0, 0.0, 0.0, 0.0, 0.0, 0.0, 0.0, 0.0, 0.0, 0.0, 0.0, -7.0, -15.0, -26.0, -42.0, -58.0, -85.0, -99.0, -135.0, -157.0, -203.0, -242.0, -305.0, -379.0, -449.0, -496.0, -557.0, -622.0, -699.0, -721.0, -760.0, -769.0, -769.0, -769.0, -769.0, -769.0, -769.0, -771.0, -772.0, -773.0, -774.0, -774.0, -774.0, -774.0, -774.0, -774.0, -774.0, -774.0, -774.0, -774.0, -772.0, -749.0, -736.0, -736.0, -736.0, -736.0, -736.0]	[-490.0, -490.0, -490.0, -490.0, -490.0, -490.0, -490.0, -490.0, -491.0, -486.0, -476.0, -458.0, -436.0, -407.0, -366.0, -314.0, -259.0, -169.0, -136.0, -44.0, -6.0, 54.0, 100.0, 157.0, 212.0, 258.0, 296.0, 327.0, 357.0, 391.0, 396.0, 408.0, 409.0, 409.0, 409.0, 409.0, 409.0, 409.0, 409.0, 409.0, 409.0, 409.0, 409.0, 409.0, 409.0, 409.0, 409.0, 409.0, 409.0, 409.0, 409.0, 407.0, 405.0, 405.0, 405.0, 405.0, 405.0, 405.0]	[0.01361686730524525, 0.018147380760638043, 0.025582297093933448, 0.04391358813154511, 0.0604279633553233, 0.07859609718434513, 0.09427386513561942, 0.1106639951467514, 0.12594069680199027, 0.14376067090779543, 0.16072321645333432, 0.17576030228519812, 0.19407998796668835, 0.21051722194533795, 0.22596390743274242, 0.24386102284188382, 0.26080684302723967, 0.2757217316539027, 0.2940700893232133, 0.3105103952984791, 0.3259813154290896, 0.343952841416467, 0.36079114172025584, 0.37576439828262664, 0.39400079869665205, 0.41027248615864664, 0.42596424877410755, 0.4435572364309337, 0.460754619067302, 0.4757459662796464, 0.493937652092427, 0.5104363260325044, 0.5259260194725357, 0.5436722656595521, 0.560711611120496, 0.5757381156145129, 0.5939676894049626, 0.6104803579801228, 0.6259543501073495, 0.6439388467697427, 0.6608061603619717, 0.6755363878037315, 0.6938966921297833, 0.7104649980028626, 0.7260372940509114, 0.7438978868012782, 0.7607805604056921, 0.7757398223038763, 0.7941270919400267, 0.8105250726221129, 0.8259656140871812, 0.8438166495470796, 0.8607402830966748, 0.8756766756705474, 0.8940741853148211, 0.9105124432826415, 0.9260055500781164, 0.9435882977268193]
48	信封	False	animate	inanimate	right	0.965	[0.0, 0.0, 0.0, 0.0, 0.0, 0.0, 0.0, 0.0, 0.0, 6.0, 7.0, 13.0, 20.0, 27.0, 33.0, 33.0, 31.0, 23.0, 10.0, -5.0, -27.0, -53.0, -84.0, -133.0, -183.0, -244.0, -353.0, -398.0, -523.0, -604.0, -679.0, -747.0, -809.0, -847.0, -868.0, -869.0, -869.0, -869.0, -869.0, -869.0, -869.0, -869.0, -869.0, -869.0, -869.0, -867.0, -771.0, -591.0, -370.0, -149.0, 193.0, 300.0, 604.0, 759.0, 856.0, 884.0, 886.0, 886.0]	[-490.0, -490.0, -490.0, -490.0, -490.0, -490.0, -490.0, -490.0, -490.0, -480.0, -470.0, -453.0, -428.0, -405.0, -369.0, -353.0, -303.0, -266.0, -222.0, -177.0, -126.0, -76.0, -28.0, 33.0, 83.0, 136.0, 211.0, 234.0, 290.0, 326.0, 355.0, 387.0, 413.0, 430.0, 439.0, 439.0, 439.0, 439.0, 439.0, 439.0, 439.0, 439.0, 439.0, 439.0, 439.0, 439.0, 432.0, 424.0, 424.0, 424.0, 452.0, 473.0, 518.0, 529.0, 529.0, 529.0, 529.0, 529.0]	[0.006651966599747539, 0.011144592077471316, 0.015850209398195148, 0.03096648451173678, 0.046969542861916125, 0.06258689487003721, 0.08028398908209056, 0.09735644384636544, 0.11238158302148804, 0.1306920527422335, 0.1471327000472229, 0.16256948688533157, 0.18029457042575814, 0.1973386945319362, 0.2123157057503704, 0.23069000474060886, 0.24711017205845565, 0.26256402555736713, 0.2804962982481811, 0.2975428116915282, 0.31231980174197815, 0.3306289061438292, 0.347062044107588, 0.36248176428489387, 0.38033689570147544, 0.3973008065659087, 0.41239148168824613, 0.43057804749696516, 0.44703644412220456, 0.46249405227717943, 0.4801894398406148, 0.4973533718730323, 0.5121679085423239, 0.5306429007905535, 0.5470084548287559, 0.5625623188680038, 0.5803423570469022, 0.5973933078348637, 0.6120614126557484, 0.6304425382986665, 0.6470623854547739, 0.662657209468307, 0.6804567036160734, 0.6973803371656686, 0.7123706603888422, 0.7307439353608061, 0.746789319004165, 0.7625329642323777, 0.7801918291661423, 0.7972574572777376, 0.8121634712151717, 0.8305620048486162, 0.8470453187765088, 0.8625595882185735, 0.8803017384198029, 0.8972898839274421, 0.9123454017390031, 0.9307906979811378]
49	钉子	False	inanimate	animate	left	0.789	[0.0, 0.0, 0.0, 0.0, 0.0, 0.0, 0.0, 0.0, 0.0, 0.0, 0.0, 0.0, 0.0, 0.0, 0.0, 0.0, 0.0, 0.0, 0.0, -5.0, -21.0, -50.0, -96.0, -146.0, -190.0, -268.0, -338.0, -366.0, -439.0, -502.0, -556.0, -596.0, -635.0, -667.0, -692.0, -711.0, -724.0, -734.0, -734.0, -734.0, -737.0, -740.0, -746.0, -752.0, -754.0, -754.0, -754.0]	[-490.0, -490.0, -490.0, -490.0, -490.0, -490.0, -490.0, -490.0, -490.0, -490.0, -490.0, -490.0, -490.0, -490.0, -490.0, -490.0, -490.0, -489.0, -465.0, -432.0, -375.0, -305.0, -220.0, -142.0, -75.0, 30.0, 108.0, 142.0, 209.0, 279.0, 334.0, 378.0, 415.0, 445.0, 466.0, 478.0, 487.0, 492.0, 492.0, 492.0, 492.0, 492.0, 492.0, 492.0, 492.0, 492.0, 492.0]	[0.0038602036074735224, 0.008566503587644547, 0.023404933599522337, 0.04145087019423954, 0.058304530481109396, 0.07302656592219137, 0.09150701947510242, 0.10812072263797745, 0.12351859750924632, 0.1414655475236941, 0.15831681847339496, 0.17322795241489075, 0.1914039369148668, 0.20831835447461344, 0.22350323750288226, 0.24141707821399905, 0.2583236451318953, 0.2732033764477819, 0.2916200007312, 0.3081951332569588, 0.3234220002486836, 0.3413501769537106, 0.3581819919345435, 0.3731805071292911, 0.3915807474113535, 0.4079288934590295, 0.4234380428970326, 0.441328672983218, 0.45829667983343825, 0.4730292965832632, 0.49147015550988726, 0.5080681573599577, 0.5235523894662037, 0.5412740596802905, 0.5581970105704386, 0.5732023524469696, 0.5915077021636534, 0.6079671227780636, 0.6234564748883713, 0.6413505182717927, 0.6581741412519477, 0.6730760592035949, 0.6914179315499496, 0.7080227600526996, 0.7234465762157924, 0.7413573449593969, 0.7582731278380379]
50	道士	True	inanimate	animate	right	0.831	[0.0, 0.0, 0.0, 0.0, 0.0, 0.0, 0.0, 0.0, 0.0, 0.0, -2.0, -4.0, -5.0, -5.0, -5.0, -6.0, -10.0, -17.0, -25.0, -35.0, -52.0, -76.0, -131.0, -189.0, -215.0, -310.0, -401.0, -502.0, -610.0, -704.0, -788.0, -864.0, -913.0, -952.0, -960.0, -960.0, -960.0, -960.0, -960.0, -949.0, -876.0, -730.0, -515.0, -232.0, 232.0, 370.0, 730.0, 891.0, 959.0, 959.0, 959.0]	[-490.0, -490.0, -490.0, -490.0, -490.0, -490.0, -490.0, -490.0, -490.0, -490.0, -488.0, -473.0, -460.0, -442.0, -422.0, -403.0, -381.0, -357.0, -330.0, -297.0, -249.0, -197.0, -114.0, -44.0, -22.0, 62.0, 132.0, 209.0, 284.0, 346.0, 396.0, 452.0, 486.0, 513.0, 526.0, 526.0, 526.0, 526.0, 526.0, 526.0, 526.0, 526.0, 526.0, 526.0, 533.0, 540.0, 540.0, 540.0, 540.0, 540.0, 540.0]	[0.007741842942778021, 0.012339940352831036, 0.01640009687980637, 0.0328769255138468, 0.049187183583853766, 0.06457140512065962, 0.08238148057716899, 0.09923002088908106, 0.11395683497539721, 0.13237687258515507, 0.14908205301617272, 0.16449119185563177, 0.18239820591406897, 0.19926995685091242, 0.21428826937335543, 0.23259020573459566, 0.24914622362121008, 0.26449085053172894, 0.2824094698880799, 0.29924538085469976, 0.31420976275694557, 0.3324867818446364, 0.349027439719066, 0.3644058585923631, 0.38229478200082667, 0.3991972529038321, 0.4141950854391325, 0.4324731285159942, 0.44898101841681637, 0.46441678126575425, 0.48238660057540983, 0.4991733595961705, 0.5143531226494815, 0.5326062483945861, 0.5489956957462709, 0.5644952878647018, 0.5823429099691566, 0.5993255941430107, 0.6143971545970999, 0.6324946325039491, 0.6488639411982149, 0.6645440984866582, 0.6822695233568083, 0.6991921329172328, 0.7139742429717444, 0.7323714112571906, 0.7491151622962207, 0.7643802586244419, 0.7823862592631485, 0.7992221702297684, 0.8140233949234243]
51	轮船	False	inanimate	animate	left	0.786	[0.0, 0.0, 0.0, 0.0, 0.0, 0.0, 0.0, 0.0, 0.0, 0.0, -8.0, -15.0, -18.0, -35.0, -48.0, -65.0, -92.0, -128.0, -172.0, -245.0, -281.0, -361.0, -477.0, -572.0, -618.0, -757.0, -830.0, -890.0, -940.0, -960.0, -960.0, -960.0, -960.0, -960.0, -960.0, -960.0, -960.0, -960.0, -960.0, -960.0, -957.0, -940.0, -911.0, -848.0, -827.0, -810.0, -807.0, -807.0]	[-490.0, -490.0, -490.0, -490.0, -490.0, -490.0, -490.0, -490.0, -490.0, -490.0, -470.0, -453.0, -444.0, -408.0, -375.0, -340.0, -290.0, -236.0, -175.0, -91.0, -58.0, 6.0, 99.0, 161.0, 191.0, 277.0, 321.0, 362.0, 400.0, 434.0, 463.0, 493.0, 503.0, 521.0, 537.0, 540.0, 540.0, 540.0, 540.0, 540.0, 540.0, 530.0, 513.0, 478.0, 468.0, 461.0, 460.0, 460.0]	[0.014861026284052059, 0.019917192636057734, 0.028050476365024224, 0.04644320733495988, 0.06322518768138252, 0.07797862574807368, 0.09637374605517834, 0.11287412664387375, 0.12841194804059342, 0.14638415671652183, 0.16326921962900087, 0.17818649756372906, 0.19650652460404672, 0.21301987583865412, 0.22850888661923818, 0.24633978342171758, 0.26324396100244485, 0.277922305802349, 0.29628841279190965, 0.3130000785458833, 0.32846144132781774, 0.34631384210661054, 0.3631053797726054, 0.3781834255787544, 0.3964515699772164, 0.41290484662749805, 0.4284023907093797, 0.44605306367157027, 0.46315419039456174, 0.4779141138133127, 0.49620512753608637, 0.5127270121010952, 0.5284109240456019, 0.5462448928155936, 0.5631507770740427, 0.5781909349025227, 0.5964280180050991, 0.6129864251997788, 0.6284450573439244, 0.6463131594355218, 0.6633958542079199, 0.6781783055921551, 0.6965048179554287, 0.7129703825630713, 0.7283866894140374, 0.7462718581373338, 0.7631842277187388, 0.7779851110826712]
52	公鸡	True	inanimate	animate	right	0.968	[0.0, 0.0, 0.0, 0.0, 0.0, 0.0, 0.0, 0.0, 0.0, 0.0, 0.0, 0.0, 0.0, 0.0, 1.0, 1.0, 1.0, 1.0, 1.0, -6.0, -29.0, -62.0, -99.0, -150.0, -216.0, -344.0, -381.0, -470.0, -545.0, -614.0, -673.0, -734.0, -759.0, -769.0, -787.0, -794.0, -801.0, -803.0, -803.0, -803.0, -803.0, -803.0, -781.0, -743.0, -719.0, -687.0, -619.0, -492.0, -331.0, -43.0, 67.0, 283.0, 469.0, 614.0, 724.0, 781.0, 781.0, 781.0, 781.0]	[-490.0, -490.0, -490.0, -490.0, -490.0, -490.0, -490.0, -490.0, -490.0, -490.0, -490.0, -490.0, -479.0, -466.0, -445.0, -420.0, -389.0, -344.0, -295.0, -206.0, -137.0, -76.0, -17.0, 40.0, 102.0, 194.0, 217.0, 272.0, 315.0, 355.0, 390.0, 424.0, 435.0, 440.0, 448.0, 450.0, 454.0, 456.0, 456.0, 456.0, 456.0, 456.0, 456.0, 456.0, 456.0, 456.0, 456.0, 445.0, 428.0, 410.0, 410.0, 410.0, 436.0, 472.0, 498.0, 501.0, 501.0, 501.0, 501.0]	[0.014605367789044976, 0.019571422220906243, 0.027504002122441307, 0.04596465837676078, 0.06282582797575742, 0.0777376445767004, 0.09606347428052686, 0.11242049498832785, 0.12793544708983973, 0.14594486105488613, 0.16276336403097957, 0.17770828993525356, 0.19612525557749905, 0.21242868699482642, 0.22796172971720807, 0.2458967331040185, 0.2626872467517387, 0.27774822592618875, 0.29600886098342016, 0.31235768971964717, 0.32793203374603763, 0.345676573284436, 0.3626834921014961, 0.3777502739103511, 0.39613959155394696, 0.4122389058175031, 0.4280149776895996, 0.4458192504826002, 0.46273708139779046, 0.47773730324115604, 0.4959549303748645, 0.5122279831557535, 0.5279173564340454, 0.5457786318729632, 0.5627009000745602, 0.5777577832341194, 0.5960515276237857, 0.6122115991602186, 0.6280354576592799, 0.6458704504475463, 0.6627971559937578, 0.6778181991830934, 0.6959924770053476, 0.7122723564389162, 0.7280020070320461, 0.7458670371270273, 0.7626735934463795, 0.7775669780676253, 0.7960604022955522, 0.8123979670053814, 0.8279770897061098, 0.8458482637943234, 0.8626981694251299, 0.8777308179414831, 0.8959771170339081, 0.9122481218073517, 0.9278934631147422, 0.945865330460947, 0.9627852093544789]
