trialIndex	stimulus	isAnimate	left_option	right_option	response	response_time	xTrajectory	yTrajectory	tTrajectory
0	面包	False	animate	inanimate	right	1.488	[0.0, 0.0, 0.0, 0.0, 0.0, 0.0, 0.0, 1.0, 2.0, 2.0, 2.0, 2.0, -1.0, -9.0, -15.0, -21.0, -36.0, -36.0, -36.0, -36.0, -36.0, -36.0, -36.0, -36.0, -36.0, -36.0, -36.0, -36.0, -109.0, -230.0, -338.0, -412.0, -477.0, -528.0, -549.0, -551.0, -548.0, -529.0, -482.0, -469.0, -427.0, -403.0, -389.0, -382.0, -379.0, -378.0, -378.0, -378.0, -378.0, -378.0, -378.0, -378.0, -378.0, -378.0, -378.0, -378.0, -378.0, -378.0, -378.0, -376.0, -376.0, -374.0, -372.0, -370.0, -353.0, -328.0, -279.0, -208.0, -133.0, -51.0, 32.0, 215.0, 215.0, 427.0, 478.0, 523.0, 645.0, 754.0, 784.0, 847.0, 860.0, 877.0, 885.0, 888.0, 888.0, 888.0, 888.0, 888.0, 888.0]	[-490.0, -490.0, -490.0, -490.0, -490.0, -490.0, -490.0, -490.0, -490.0, -491.0, -492.0, -493.0, -496.0, -500.0, -503.0, -508.0, -520.0, -520.0, -520.0, -520.0, -520.0, -520.0, -520.0, -520.0, -520.0, -520.0, -520.0, -520.0, -539.0, -539.0, -526.0, -512.0, -486.0, -453.0, -421.0, -379.0, -338.0, -288.0, -196.0, -168.0, -96.0, -63.0, -44.0, -33.0, -28.0, -27.0, -27.0, -27.0, -27.0, -27.0, -27.0, -27.0, -27.0, -27.0, -27.0, -27.0, -27.0, -27.0, -26.0, -26.0, -26.0, -26.0, -24.0, -22.0, -10.0, 9.0, 43.0, 93.0, 157.0, 232.0, 302.0, 417.0, 417.0, 491.0, 501.0, 507.0, 530.0, 540.0, 540.0, 540.0, 540.0, 539.0, 537.0, 535.0, 535.0, 535.0, 535.0, 535.0, 535.0]	[0.0016498679178766906, 0.007075358473230153, 0.01863358193077147, 0.03673755133058876, 0.05665911978576332, 0.06780023407191038, 0.08645886986050755, 0.10415085015119985, 0.1185554507537745, 0.13618428440531716, 0.15310553438030183, 0.16800302010960877, 0.18820072710514069, 0.20293778623454273, 0.21829504769993946, 0.24578875093720853, 0.25194844912039116, 0.26784979563672096, 0.28694192453986034, 0.30937297438504174, 0.317983444663696, 0.3361283740377985, 0.35320561326807365, 0.3678897657664493, 0.386450438934844, 0.40921087528113276, 0.4180473081069067, 0.44059441122226417, 0.4533189700450748, 0.4680785571108572, 0.4865279556834139, 0.5054596579866484, 0.5182292727986351, 0.538467257109005, 0.553206022887025, 0.5710222484194674, 0.5864911258104257, 0.6050309776910581, 0.6182368162553757, 0.6377504916163161, 0.6532139076734893, 0.6692760221194476, 0.6866133572184481, 0.703948644339107, 0.7184133196133189, 0.7360878919134848, 0.752835403312929, 0.7714998417650349, 0.7860809116391465, 0.8050136379315518, 0.8179508473258466, 0.8362876059254631, 0.852807106799446, 0.8709667135262862, 0.8861341937445104, 0.9038753259810619, 0.9179508814704604, 0.9368655171128921, 0.9543602068442851, 0.9716671633068472, 0.9861103345756419, 1.0034725870355032, 1.0181601528311148, 1.0375454868772067, 1.0534212334314361, 1.0710248083923943, 1.0863854832132347, 1.103065069357399, 1.1179857656825334, 1.1376622569514439, 1.165102712227963, 1.1732080094516277, 1.199124070815742, 1.20796869561309, 1.218140765093267, 1.2371465367032215, 1.2651317596901208, 1.272529131907504, 1.2944829980260693, 1.303055238968227, 1.3179919779649936, 1.3363840325619094, 1.3651236018631607, 1.3722888674819842, 1.3865425988915376, 1.4031518703559414, 1.4182104653446004, 1.4366506478982046, 1.4528366662561893]
1	毛巾	False	animate	inanimate	right	0.912	[0.0, 0.0, 0.0, 0.0, 0.0, 0.0, 0.0, 0.0, 1.0, 1.0, 1.0, 1.0, 0.0, -3.0, -8.0, -13.0, -24.0, -44.0, -46.0, -46.0, -46.0, -46.0, -46.0, -46.0, -46.0, -46.0, -46.0, -46.0, -94.0, -124.0, -148.0, -174.0, -176.0, -177.0, -177.0, -147.0, -133.0, -101.0, -80.0, -31.0, 40.0, 240.0, 306.0, 450.0, 599.0, 668.0, 854.0, 959.0, 959.0, 959.0, 959.0, 959.0, 959.0, 959.0, 959.0]	[-490.0, -490.0, -490.0, -490.0, -490.0, -490.0, -490.0, -490.0, -490.0, -490.0, -490.0, -490.0, -490.0, -490.0, -490.0, -490.0, -490.0, -493.0, -493.0, -493.0, -493.0, -493.0, -493.0, -493.0, -493.0, -493.0, -493.0, -493.0, -497.0, -489.0, -475.0, -451.0, -443.0, -424.0, -408.0, -355.0, -321.0, -265.0, -223.0, -145.0, -52.0, 147.0, 202.0, 290.0, 362.0, 390.0, 468.0, 513.0, 526.0, 540.0, 540.0, 540.0, 540.0, 540.0, 540.0]	[0.012308337143622339, 0.018494318006560206, 0.03294499858748168, 0.05149440775858238, 0.06791697000153363, 0.08345718606142327, 0.10174615803407505, 0.11840970150660723, 0.13379597628954798, 0.15714555367594585, 0.16817948938114569, 0.18291620712261647, 0.20118640578584746, 0.21853910089703277, 0.2332293973886408, 0.2514016334316693, 0.26839900069171563, 0.2836180222220719, 0.3017305249813944, 0.32112268573837355, 0.3328351917443797, 0.35155014746123925, 0.3689373172237538, 0.387343707785476, 0.40123118867632, 0.4183159372769296, 0.43318406835896894, 0.4514907896518707, 0.46788126655155793, 0.4832777813426219, 0.5014565027086064, 0.5201670211390592, 0.5332824063953012, 0.5532070468761958, 0.5824408665648662, 0.5909503022558056, 0.6112756678485312, 0.6171308968332596, 0.6327506434754469, 0.6514297592802905, 0.6810441654524766, 0.688089964503888, 0.7032523247180507, 0.7180238584987819, 0.732910762890242, 0.7512966734939255, 0.7750060160178691, 0.782991505227983, 0.8178917967015877, 0.8241463854792528, 0.8329138690023683, 0.8514871714869514, 0.8741527172387578, 0.8871803798829205, 0.907181820308324]
2	葫芦	False	inanimate	animate	right	6.591	[0.0, 0.0, 0.0, 0.0, 0.0, 0.0, 0.0, 0.0, 0.0, 0.0, 3.0, 3.0, 3.0, 6.0, 9.0, 11.0, 15.0, 16.0, 19.0, 23.0, 29.0, 32.0, 40.0, 49.0, 55.0, 72.0, 89.0, 97.0, 121.0, 128.0, 141.0, 151.0, 163.0, 170.0, 182.0, 189.0, 198.0, 209.0, 221.0, 238.0, 259.0, 278.0, 298.0, 316.0, 345.0, 351.0, 364.0, 367.0, 367.0, 367.0, 367.0, 367.0, 368.0, 382.0, 389.0, 417.0, 427.0, 458.0, 508.0, 540.0, 572.0, 600.0, 630.0, 646.0, 655.0, 656.0, 656.0, 656.0, 656.0, 656.0, 656.0, 656.0, 656.0, 656.0, 656.0, 656.0, 656.0, 656.0, 656.0, 651.0, 651.0, 649.0, 649.0, 649.0, 649.0, 649.0, 649.0, 649.0, 649.0, 649.0, 649.0, 649.0, 649.0, 643.0, 604.0, 563.0, 511.0, 464.0, 418.0, 377.0, 341.0, 299.0, 287.0, 254.0, 244.0, 214.0, 197.0, 182.0, 171.0, 161.0, 155.0, 150.0, 146.0, 138.0, 136.0, 124.0, 117.0, 97.0, 90.0, 62.0, 53.0, 20.0, -38.0, -58.0, -81.0, -123.0, -174.0, -227.0, -279.0, -325.0, -382.0, -415.0, -428.0, -458.0, -476.0, -491.0, -506.0, -519.0, -531.0, -542.0, -549.0, -555.0, -563.0, -565.0, -567.0, -574.0, -577.0, -581.0, -592.0, -595.0, -599.0, -609.0, -622.0, -625.0, -633.0, -636.0, -638.0, -638.0, -638.0, -638.0, -639.0, -640.0, -640.0, -641.0, -643.0, -644.0, -648.0, -653.0, -663.0, -673.0, -682.0, -691.0, -696.0, -697.0, -697.0, -697.0, -698.0, -695.0, -650.0, -581.0, -530.0, -356.0, -216.0, -70.0, 104.0, 255.0, 392.0, 511.0, 651.0, 691.0, 784.0, 840.0, 849.0, 861.0, 861.0, 861.0, 861.0, 861.0, 861.0, 861.0, 861.0, 861.0, 861.0, 862.0, 859.0, 855.0, 855.0, 851.0, 848.0, 844.0, 843.0, 840.0, 838.0, 838.0, 838.0, 838.0, 838.0, 838.0, 838.0, 838.0, 838.0, 838.0, 838.0, 838.0, 838.0, 838.0, 838.0, 838.0, 838.0, 838.0, 838.0, 838.0, 838.0, 838.0, 838.0, 838.0, 838.0, 838.0, 838.0, 838.0, 838.0, 838.0, 838.0, 838.0, 838.0, 838.0, 838.0, 838.0, 838.0, 838.0, 838.0, 838.0, 838.0, 838.0, 838.0, 838.0, 838.0, 838.0, 838.0, 838.0, 838.0, 838.0, 838.0, 838.0, 838.0, 838.0, 838.0, 838.0, 838.0, 838.0, 838.0, 838.0, 838.0, 838.0, 838.0, 838.0, 838.0, 838.0, 838.0, 838.0, 838.0, 838.0, 838.0, 838.0, 838.0, 838.0, 838.0, 838.0, 838.0, 838.0, 838.0, 838.0, 838.0, 838.0, 838.0, 838.0, 838.0, 838.0, 838.0, 838.0, 838.0, 838.0, 838.0, 838.0, 838.0, 838.0, 838.0, 838.0, 838.0, 838.0, 838.0, 838.0, 838.0, 838.0, 838.0, 838.0, 838.0, 838.0, 838.0, 838.0, 838.0, 838.0, 838.0, 838.0, 838.0, 838.0, 838.0, 838.0, 838.0, 838.0, 838.0, 838.0, 838.0, 838.0, 838.0, 838.0, 838.0, 838.0, 838.0, 838.0, 838.0, 838.0, 838.0, 838.0, 838.0, 838.0, 838.0, 838.0, 838.0, 838.0, 838.0, 838.0, 838.0, 838.0, 838.0, 838.0, 838.0, 838.0, 838.0, 838.0, 838.0, 838.0, 838.0, 838.0, 838.0, 838.0, 838.0, 838.0, 838.0, 838.0, 838.0, 838.0, 838.0, 838.0, 838.0, 838.0, 838.0, 838.0, 838.0, 838.0, 838.0, 838.0, 838.0, 838.0, 838.0, 838.0, 838.0, 838.0, 838.0, 838.0, 838.0, 838.0, 838.0, 838.0, 838.0]	[-490.0, -490.0, -490.0, -490.0, -490.0, -490.0, -490.0, -490.0, -490.0, -490.0, -483.0, -483.0, -483.0, -474.0, -467.0, -465.0, -453.0, -450.0, -445.0, -437.0, -420.0, -413.0, -392.0, -373.0, -362.0, -321.0, -281.0, -262.0, -211.0, -198.0, -173.0, -147.0, -94.0, -77.0, -44.0, -26.0, -6.0, 15.0, 35.0, 56.0, 78.0, 98.0, 116.0, 131.0, 156.0, 161.0, 169.0, 172.0, 173.0, 173.0, 173.0, 173.0, 174.0, 185.0, 191.0, 208.0, 213.0, 231.0, 260.0, 278.0, 297.0, 312.0, 326.0, 333.0, 337.0, 337.0, 337.0, 337.0, 337.0, 337.0, 337.0, 337.0, 337.0, 337.0, 337.0, 337.0, 337.0, 337.0, 337.0, 339.0, 339.0, 339.0, 339.0, 339.0, 339.0, 339.0, 339.0, 339.0, 339.0, 339.0, 339.0, 339.0, 339.0, 340.0, 346.0, 350.0, 358.0, 365.0, 371.0, 378.0, 383.0, 389.0, 390.0, 395.0, 396.0, 401.0, 404.0, 406.0, 407.0, 410.0, 410.0, 410.0, 411.0, 413.0, 413.0, 413.0, 413.0, 413.0, 413.0, 413.0, 413.0, 414.0, 414.0, 416.0, 419.0, 420.0, 426.0, 428.0, 429.0, 434.0, 438.0, 443.0, 444.0, 447.0, 447.0, 447.0, 447.0, 447.0, 447.0, 447.0, 447.0, 447.0, 447.0, 447.0, 447.0, 447.0, 447.0, 447.0, 447.0, 447.0, 447.0, 446.0, 445.0, 444.0, 442.0, 441.0, 440.0, 440.0, 440.0, 440.0, 439.0, 438.0, 438.0, 438.0, 436.0, 436.0, 432.0, 428.0, 422.0, 419.0, 415.0, 413.0, 411.0, 411.0, 411.0, 411.0, 410.0, 407.0, 397.0, 394.0, 394.0, 394.0, 394.0, 394.0, 383.0, 364.0, 349.0, 331.0, 312.0, 305.0, 294.0, 288.0, 288.0, 288.0, 288.0, 288.0, 288.0, 288.0, 288.0, 288.0, 288.0, 288.0, 288.0, 312.0, 338.0, 351.0, 351.0, 361.0, 374.0, 385.0, 387.0, 395.0, 397.0, 398.0, 399.0, 399.0, 399.0, 399.0, 399.0, 399.0, 399.0, 399.0, 399.0, 399.0, 399.0, 399.0, 399.0, 399.0, 399.0, 399.0, 399.0, 399.0, 399.0, 399.0, 399.0, 399.0, 399.0, 399.0, 399.0, 399.0, 399.0, 399.0, 399.0, 399.0, 399.0, 399.0, 399.0, 399.0, 399.0, 399.0, 399.0, 399.0, 399.0, 399.0, 399.0, 399.0, 399.0, 399.0, 399.0, 399.0, 399.0, 399.0, 399.0, 399.0, 399.0, 399.0, 399.0, 399.0, 399.0, 399.0, 399.0, 399.0, 399.0, 399.0, 399.0, 399.0, 399.0, 399.0, 399.0, 399.0, 399.0, 399.0, 399.0, 399.0, 399.0, 399.0, 399.0, 399.0, 399.0, 399.0, 399.0, 399.0, 399.0, 399.0, 399.0, 399.0, 399.0, 399.0, 399.0, 399.0, 399.0, 399.0, 399.0, 399.0, 399.0, 399.0, 399.0, 399.0, 399.0, 399.0, 399.0, 399.0, 399.0, 399.0, 399.0, 399.0, 399.0, 399.0, 399.0, 399.0, 399.0, 399.0, 399.0, 399.0, 399.0, 399.0, 399.0, 399.0, 399.0, 399.0, 399.0, 399.0, 399.0, 399.0, 399.0, 399.0, 399.0, 399.0, 399.0, 399.0, 399.0, 399.0, 399.0, 399.0, 399.0, 399.0, 399.0, 399.0, 399.0, 399.0, 399.0, 399.0, 399.0, 399.0, 399.0, 399.0, 399.0, 399.0, 399.0, 399.0, 399.0, 399.0, 399.0, 399.0, 399.0, 399.0, 399.0, 399.0, 399.0, 399.0, 399.0, 399.0, 399.0, 399.0, 399.0, 399.0, 399.0, 399.0, 399.0, 399.0, 399.0, 399.0, 399.0, 399.0, 399.0, 399.0, 399.0, 399.0, 399.0, 399.0, 399.0, 399.0, 399.0, 399.0, 399.0]	[0.003915227833203971, 0.008377134916372597, 0.022825084859505296, 0.04112771013751626, 0.06007955106906593, 0.07245219545438886, 0.09121186583070084, 0.10745693481294438, 0.12296813755529001, 0.1564716937718913, 0.16584163025254384, 0.17234539228957146, 0.19111666799290106, 0.2175990011310205, 0.22247938258806244, 0.2553296271362342, 0.2612875974155031, 0.2727778955013491, 0.2913409580360167, 0.3134132667328231, 0.3225879606907256, 0.34145651635481045, 0.358447739679832, 0.3725410444312729, 0.391130389587488, 0.4118175683543086, 0.4226292961393483, 0.4439049332286231, 0.4577005954924971, 0.4727236918406561, 0.49102290376322344, 0.5098552781273611, 0.5228116021608002, 0.5423955921432935, 0.5577378349844366, 0.5753304872778244, 0.5911587885348126, 0.6090245073428378, 0.6229826442431659, 0.6421208530664444, 0.6576999811222777, 0.6733204104239121, 0.6908311428269371, 0.7083012565271929, 0.7229714143904857, 0.7406777306459844, 0.7574532313738018, 0.7727401782176457, 0.7906922543770634, 0.8083821866312064, 0.8227871285635047, 0.8412843137630261, 0.8573297028779052, 0.8730607241741382, 0.8908049284364097, 0.9079456556355581, 0.9227632693946362, 0.9409505241201259, 0.957378889026586, 0.9728170464513823, 0.9906243973528035, 1.007832708535716, 1.022795388882514, 1.041167304792907, 1.0572471685591154, 1.0729385951999575, 1.0907019141013734, 1.1077832493465394, 1.1228240949567407, 1.1410349016659893, 1.1572891866671853, 1.1729318026336841, 1.190878076129593, 1.2077918167924508, 1.2226227425271645, 1.2410625837510452, 1.268146004586015, 1.273017170082312, 1.300939929089509, 1.3071050886064768, 1.3225937633542344, 1.3410595459281467, 1.3652255922206677, 1.3726267190650105, 1.3981202100403607, 1.4077041624695994, 1.4225412321975455, 1.4409807320917025, 1.4573295663576573, 1.4729605770553462, 1.4966709435684606, 1.5076533379615285, 1.5225354636786506, 1.5410739501821809, 1.5615249263355508, 1.5727001739433035, 1.590983001922723, 1.6075124014751054, 1.622484297840856, 1.6412129068630747, 1.662216160155367, 1.6726606134325266, 1.6938662772881798, 1.7077622914803214, 1.7226420278893784, 1.741009506455157, 1.7594401317182928, 1.7729299594648182, 1.792195826943498, 1.8077442349749617, 1.8225987126934342, 1.840661039459519, 1.8606672585010529, 1.8727388470433652, 1.893401108449325, 1.9073817732860334, 1.9259560997597873, 1.9406931588891894, 1.959535090602003, 1.972568214579951, 1.9923105831258, 2.008784004021436, 2.029483812104445, 2.04062663303921, 2.058771903743036, 2.072597944701556, 2.091681881574914, 2.1073654575739056, 2.1228589109377936, 2.1405867311987095, 2.157807671756018, 2.1726126561407, 2.191067516047042, 2.2074825689778663, 2.2229275530553423, 2.2408666585106403, 2.2577155458857305, 2.2727468342054635, 2.2909456941997632, 2.3073525551590137, 2.322866488539148, 2.3449589359224774, 2.357614886772353, 2.3725734711042605, 2.390952896384988, 2.4072744239820167, 2.4229627786553465, 2.4481057204538956, 2.46135456697084, 2.4725130892475136, 2.4909396184957586, 2.512038103712257, 2.522690770216286, 2.5453795266221277, 2.5576217817142606, 2.572727821941953, 2.591076527198311, 2.6096252537099645, 2.6229836682323366, 2.6423645649920218, 2.657668919826392, 2.6758937211125158, 2.691035260038916, 2.7086787710431963, 2.722906219714787, 2.7422461565001868, 2.757681924616918, 2.774149884178769, 2.790886814240366, 2.8084596692351624, 2.8229287818539888, 2.8414758017170243, 2.8575993560953066, 2.873304436041508, 2.891008704318665, 2.907483149203472, 2.9226608694298193, 2.9408744067768566, 2.957590174220968, 2.9727969077648595, 2.9905585200176574, 3.0076767192804255, 3.022733607562259, 3.0406976303784177, 3.0573959898320027, 3.0726470966474153, 3.09069167409325, 3.10972065635724, 3.1226035937434062, 3.1423486929852515, 3.157970487663988, 3.172590128146112, 3.1912139479536563, 3.210670279338956, 3.2228299317648634, 3.243643062422052, 3.2573045807657763, 3.272860156837851, 3.2912989740725607, 3.311869758181274, 3.3224889740813524, 3.34095407393761, 3.3579678252572194, 3.389625451702159, 3.4021527199656703, 3.4108263368252665, 3.4227289654081687, 3.4425262886215933, 3.457264371740166, 3.4727107211365364, 3.490570296009537, 3.507630468637217, 3.5226429835893214, 3.5409961261902936, 3.56723918474745, 3.5724591927719302, 3.5952001730911434, 3.612236452405341, 3.6224904418340884, 3.6410664749564603, 3.6573262212914415, 3.6729053493472748, 3.7005284178303555, 3.707788232830353, 3.7225461132475175, 3.7409555758349597, 3.765987925697118, 3.772498172998894, 3.7906618756824173, 3.807551723031793, 3.822511672740802, 3.8409880365943536, 3.863708536955528, 3.8725780791137367, 3.8945124892052263, 3.9076073945034295, 3.9225830454961397, 3.9410573613713495, 3.960615410003811, 3.9728740490972996, 3.99349876382621, 4.00779857521411, 4.022873212816194, 4.040653598378412, 4.06159609433962, 4.072745059267618, 4.090885551297106, 4.107503356121015, 4.123274313402362, 4.140809280448593, 4.161577013786882, 4.172606512147468, 4.194029263861012, 4.207276062399615, 4.226500287244562, 4.2412052610307, 4.262984364526346, 4.272794962162152, 4.296927557850722, 4.307312619173899, 4.326176396163646, 4.3405970394960605, 4.3603933386621065, 4.372321567207109, 4.393678441643715, 4.4076000558561645, 4.4233635037671775, 4.440561233612243, 4.459515122580342, 4.472810049133841, 4.494394251378253, 4.507274458126631, 4.523985446896404, 4.5405455664149486, 4.5580549334408715, 4.572940131183714, 4.593497261987068, 4.607584422803484, 4.622470985807013, 4.640958272328135, 4.657292770629283, 4.672545925539453, 4.691035260038916, 4.707244489109144, 4.722787094477098, 4.741830071376171, 4.764213675924111, 4.772537426324561, 4.790740382333752, 4.807587904389948, 4.822502798051573, 4.851080575434025, 4.857119441672694, 4.872379423177335, 4.891057173663285, 4.9170073683490045, 4.9224349068827, 4.952368118218146, 4.9592647547251545, 4.972808513091877, 4.991396492929198, 5.015279915358406, 5.022432893048972, 5.0566102408920415, 5.061314153135754, 5.072402019461151, 5.0909534766105935, 5.122875977598596, 5.127738609793596, 5.145605011319276, 5.157578637183178, 5.1723453922895715, 5.190907772106584, 5.207787038118113, 5.223408491467126, 5.240652642620262, 5.2576462552533485, 5.27247410902055, 5.291169950098265, 5.309110420930665, 5.323027939128224, 5.353058089094702, 5.35851566499332, 5.372625012416393, 5.390970304375514, 5.409218657645397, 5.4229047520202585, 5.441256187914405, 5.4572254597442225, 5.472503873286769, 5.491023927810602, 5.5086851880769245, 5.522845394152682, 5.541946739074774, 5.560039444477297, 5.57252233941108, 5.590612996777054, 5.613714766281191, 5.622323871240951, 5.647748754185159, 5.657633421127684, 5.672499845561106, 5.690668668248691, 5.709327304037288, 5.722580246569123, 5.746192650462035, 5.757956697780173, 5.77269136760151, 5.790620915708132, 5.809054271609057, 5.8223471501260065, 5.841846830851864, 5.857859451964032, 5.8745404034270905, 5.890627776505426, 5.9080596609273925, 5.922765317431185, 5.940881233487744, 5.957324275688734, 5.97290749970125, 5.991238797025289, 6.008954670629464, 6.022428114374634, 6.040974110190291, 6.057853376260027, 6.073048504476901, 6.090670170087833, 6.107703718706034, 6.123075998853892, 6.141386474773753, 6.1572881626780145, 6.172769328055438, 6.1909026521025226, 6.208721608330961, 6.222905366390478, 6.24195824196795, 6.267297791666351, 6.272421543719247, 6.294445383129641, 6.30860354116885, 6.322878776525613, 6.341694084228948, 6.365121144277509, 6.372441033832729, 6.405551032861695, 6.41129566996824, 6.422796208062209, 6.441269841277972, 6.465121861023363, 6.472527083940804, 6.497636575077195, 6.507464239373803, 6.523039954074193, 6.544383175147232, 6.565231463115197]
3	鸭子	True	inanimate	animate	right	1.274	[0.0, 0.0, 0.0, 0.0, 0.0, 0.0, 0.0, 0.0, 0.0, 0.0, 0.0, 0.0, 0.0, 0.0, 0.0, 0.0, 0.0, 0.0, 0.0, 0.0, 0.0, 0.0, 0.0, 0.0, 0.0, 0.0, 0.0, 0.0, 1.0, 3.0, 5.0, 8.0, 12.0, 14.0, 18.0, 24.0, 26.0, 34.0, 41.0, 50.0, 55.0, 56.0, 62.0, 67.0, 75.0, 80.0, 84.0, 84.0, 84.0, 84.0, 84.0, 84.0, 84.0, 84.0, 84.0, 95.0, 131.0, 131.0, 136.0, 145.0, 151.0, 173.0, 251.0, 251.0, 408.0, 408.0, 503.0, 595.0, 716.0, 751.0, 828.0, 853.0, 860.0, 868.0, 868.0, 868.0, 868.0]	[-490.0, -490.0, -490.0, -490.0, -490.0, -490.0, -490.0, -490.0, -490.0, -490.0, -490.0, -490.0, -490.0, -490.0, -490.0, -490.0, -490.0, -490.0, -490.0, -490.0, -490.0, -484.0, -478.0, -460.0, -452.0, -427.0, -412.0, -393.0, -375.0, -358.0, -343.0, -328.0, -303.0, -295.0, -268.0, -250.0, -240.0, -214.0, -199.0, -183.0, -163.0, -140.0, -128.0, -125.0, -124.0, -124.0, -162.0, -162.0, -162.0, -162.0, -162.0, -162.0, -162.0, -162.0, -163.0, -166.0, -142.0, -142.0, -136.0, -117.0, -107.0, -72.0, 19.0, 19.0, 135.0, 135.0, 204.0, 263.0, 342.0, 367.0, 422.0, 441.0, 448.0, 456.0, 456.0, 456.0, 456.0]	[0.00451262918068096, 0.009827869129367173, 0.018399086082354188, 0.03703519387636334, 0.05455070489551872, 0.07068859529681504, 0.08991486812010407, 0.10381156497169286, 0.1213881746516563, 0.13713762792758644, 0.15485896286554635, 0.16891437966842204, 0.1871340610086918, 0.2037016898393631, 0.21886405011173338, 0.23674547026166692, 0.2536366829299368, 0.26877924584550783, 0.2868323565926403, 0.3034877080935985, 0.3215070268488489, 0.33682093903189525, 0.3553198308800347, 0.3684997281525284, 0.3880605074809864, 0.40360379550838843, 0.41913991555338725, 0.43685101048322394, 0.45422179624438286, 0.46866974618751556, 0.4870935447397642, 0.503455008380115, 0.5191112777101807, 0.5367718553170562, 0.5537934572785161, 0.5685957110254094, 0.5870126829249784, 0.6034830318531021, 0.618826639954932, 0.6369343640399165, 0.6538682433892973, 0.6686291958321817, 0.6870434370357543, 0.703486479294952, 0.7189031327143312, 0.7552056208369322, 0.7603430261951871, 0.7682810701080598, 0.787058831192553, 0.8047842620871961, 0.8192202653735876, 0.8470064911525697, 0.8536665837164037, 0.8683097762404941, 0.8868946840520948, 0.9164432129473425, 0.9269136075745337, 0.9367556078359485, 0.9537512685055844, 0.9686289568780921, 0.9867841262603179, 1.0187516832374968, 1.0245215789182112, 1.0511049466440454, 1.0569646129733883, 1.0687737162807025, 1.0867694830521941, 1.1093411621404812, 1.1186278134118766, 1.1420282494509593, 1.154594088322483, 1.1684764492092654, 1.1870149357127957, 1.2066436403547414, 1.2187599434982985, 1.2400321672321297, 1.2536206403165124]
4	皇帝	True	inanimate	animate	right	0.989	[0.0, 0.0, 0.0, 0.0, 0.0, 0.0, 0.0, 0.0, 0.0, 0.0, -1.0, -1.0, 0.0, 0.0, 0.0, 1.0, 2.0, 4.0, 5.0, 8.0, 13.0, 17.0, 31.0, 44.0, 60.0, 77.0, 94.0, 112.0, 134.0, 155.0, 174.0, 214.0, 245.0, 262.0, 325.0, 375.0, 427.0, 480.0, 582.0, 606.0, 638.0, 650.0, 672.0, 691.0, 703.0, 711.0, 720.0, 721.0, 723.0, 725.0, 728.0, 734.0, 746.0, 750.0, 753.0, 755.0, 755.0, 755.0, 755.0, 755.0]	[-490.0, -490.0, -490.0, -490.0, -490.0, -490.0, -490.0, -490.0, -490.0, -490.0, -490.0, -489.0, -486.0, -485.0, -483.0, -481.0, -477.0, -473.0, -470.0, -461.0, -453.0, -447.0, -426.0, -410.0, -393.0, -373.0, -355.0, -332.0, -308.0, -284.0, -263.0, -218.0, -180.0, -160.0, -91.0, -39.0, 9.0, 54.0, 139.0, 155.0, 182.0, 191.0, 208.0, 224.0, 236.0, 247.0, 265.0, 270.0, 287.0, 304.0, 323.0, 345.0, 388.0, 397.0, 410.0, 416.0, 416.0, 416.0, 416.0, 416.0]	[0.010237468872219324, 0.021096300682984293, 0.03548554127337411, 0.05389978253515437, 0.07052543800091371, 0.085754016879946, 0.10387744224863127, 0.1204549697577022, 0.13572826329618692, 0.15357384347589687, 0.17023704561870545, 0.18547620583558455, 0.2036883778637275, 0.22027170803630725, 0.23538525763433427, 0.25372269889339805, 0.2703125143889338, 0.28570937050972134, 0.3036058093421161, 0.3203232834348455, 0.33552421431522816, 0.35355445579625666, 0.37034292716998607, 0.38553088740445673, 0.40374647272983566, 0.42044073616852984, 0.43550137913553044, 0.45343946060165763, 0.4702927853213623, 0.4854681162396446, 0.5035857389448211, 0.5204237036523409, 0.5353727306937799, 0.5535292653949, 0.5705392620293424, 0.5853794037248008, 0.6039762581931427, 0.6207913536345586, 0.6379607528215274, 0.653486632858403, 0.6704945815145038, 0.685579800454434, 0.7069960667868145, 0.7202077080728486, 0.7356294814962894, 0.7632167100091465, 0.770378562330734, 0.7852712693857029, 0.8038449132000096, 0.8200418542837724, 0.8356779849273153, 0.8607543667312711, 0.8703919085091911, 0.885276764864102, 0.903722750081215, 0.920242250955198, 0.935531587107107, 0.9582370688440278, 0.9704008172848262, 0.9853082016343251]
5	船长	True	inanimate	animate	right	1.196	[0.0, 0.0, 0.0, 0.0, 0.0, 0.0, 0.0, 0.0, 0.0, 0.0, 0.0, 0.0, 0.0, 0.0, 0.0, 0.0, 0.0, 0.0, 0.0, 1.0, 2.0, 3.0, 3.0, 5.0, 8.0, 11.0, 16.0, 21.0, 38.0, 46.0, 52.0, 79.0, 110.0, 159.0, 238.0, 269.0, 332.0, 397.0, 484.0, 509.0, 551.0, 592.0, 602.0, 627.0, 643.0, 660.0, 674.0, 676.0, 678.0, 679.0, 681.0, 681.0, 683.0, 686.0, 687.0, 690.0, 691.0, 691.0, 691.0, 691.0, 691.0, 691.0, 691.0, 691.0, 691.0, 691.0, 691.0, 691.0, 691.0, 691.0, 691.0, 691.0, 691.0]	[-490.0, -490.0, -490.0, -490.0, -490.0, -490.0, -490.0, -490.0, -490.0, -490.0, -490.0, -490.0, -490.0, -489.0, -488.0, -486.0, -484.0, -480.0, -479.0, -473.0, -469.0, -463.0, -458.0, -452.0, -443.0, -432.0, -415.0, -396.0, -351.0, -333.0, -319.0, -265.0, -214.0, -143.0, 10.0, 54.0, 134.0, 196.0, 269.0, 289.0, 318.0, 346.0, 353.0, 369.0, 379.0, 387.0, 395.0, 397.0, 398.0, 398.0, 399.0, 399.0, 399.0, 399.0, 400.0, 401.0, 401.0, 401.0, 401.0, 401.0, 401.0, 401.0, 401.0, 401.0, 401.0, 401.0, 401.0, 401.0, 401.0, 401.0, 401.0, 401.0, 401.0]	[0.014223216159734875, 0.018860909796785563, 0.030156306631397456, 0.040692237264011055, 0.0603161632316187, 0.0725386209669523, 0.09038761450210586, 0.1076027523376979, 0.12505204475019127, 0.14092403661925346, 0.15759167610667646, 0.17249871912645176, 0.19320671918103471, 0.2075072131701745, 0.223616772913374, 0.24061345757218078, 0.2651976369670592, 0.2721342094591819, 0.29101471178000793, 0.3064132745494135, 0.3223282744293101, 0.34081214759498835, 0.3572640644852072, 0.3724735287250951, 0.39032832492375746, 0.4071140656596981, 0.42528015770949423, 0.4415781333227642, 0.45841439138166606, 0.4721353016793728, 0.49156330240657553, 0.5073322116513737, 0.5261191887548193, 0.5409729838138446, 0.5607010163366795, 0.5720264505362138, 0.591017886181362, 0.6076537816552445, 0.6233960669487715, 0.6409815512597561, 0.6602706293924712, 0.6720944099943154, 0.6905816965154372, 0.707214861351531, 0.7229830879368819, 0.7467463610810228, 0.7570327771827579, 0.7722412173752673, 0.7906049413140863, 0.8186662815860473, 0.8259981178562157, 0.8546072978642769, 0.862977810902521, 0.8719702329835854, 0.8904930181452073, 0.9244894594303332, 0.9289776491350494, 0.9474731276859529, 0.9571195440366864, 0.9725740854628384, 0.993710458627902, 1.0069507719017565, 1.0223902946454473, 1.053417478746269, 1.0581920469994657, 1.0723331383778714, 1.0903152518440038, 1.1069275953341275, 1.1224838540656492, 1.1404983941465616, 1.1570923056569882, 1.1723328311927617, 1.1906166831613518]
6	扇子	False	animate	inanimate	right	1.53	[0.0, 0.0, 0.0, 0.0, 0.0, 0.0, 0.0, 0.0, 0.0, 0.0, 0.0, 0.0, 0.0, 0.0, 0.0, 0.0, 0.0, 0.0, -1.0, -1.0, -1.0, 1.0, 9.0, 16.0, 26.0, 45.0, 57.0, 78.0, 104.0, 137.0, 171.0, 225.0, 262.0, 304.0, 336.0, 372.0, 394.0, 439.0, 451.0, 473.0, 503.0, 550.0, 559.0, 580.0, 584.0, 584.0, 584.0, 584.0, 584.0, 574.0, 519.0, 408.0, 168.0, -65.0, -65.0, -151.0, -151.0, -151.0, -130.0, -21.0, 39.0, 285.0, 351.0, 412.0, 510.0, 618.0, 630.0, 645.0, 649.0, 649.0, 649.0, 649.0, 649.0, 649.0, 649.0, 649.0, 649.0, 649.0, 649.0, 649.0, 649.0, 649.0, 649.0, 669.0, 693.0, 743.0, 760.0, 789.0, 803.0, 808.0, 808.0]	[-490.0, -490.0, -490.0, -490.0, -490.0, -490.0, -490.0, -490.0, -490.0, -490.0, -490.0, -490.0, -490.0, -490.0, -490.0, -490.0, -490.0, -490.0, -490.0, -485.0, -477.0, -463.0, -443.0, -424.0, -398.0, -357.0, -338.0, -303.0, -267.0, -223.0, -176.0, -97.0, -33.0, 25.0, 69.0, 110.0, 134.0, 187.0, 201.0, 226.0, 255.0, 295.0, 301.0, 318.0, 323.0, 323.0, 323.0, 324.0, 324.0, 328.0, 345.0, 373.0, 421.0, 449.0, 449.0, 449.0, 449.0, 449.0, 452.0, 465.0, 467.0, 501.0, 512.0, 520.0, 535.0, 540.0, 540.0, 540.0, 540.0, 540.0, 540.0, 540.0, 540.0, 540.0, 540.0, 540.0, 540.0, 540.0, 540.0, 540.0, 540.0, 540.0, 540.0, 535.0, 530.0, 516.0, 511.0, 501.0, 497.0, 494.0, 494.0]	[0.007788403483573347, 0.0132087740348652, 0.01945824280846864, 0.046684682252816856, 0.054684848815668374, 0.0724536290508695, 0.08816792501602322, 0.10504821501672268, 0.11992419674061239, 0.13824286469025537, 0.15467361896298826, 0.1696605339529924, 0.18773139402037486, 0.20442736410768703, 0.21958596969489008, 0.24454561556922272, 0.2547436263412237, 0.2695267654489726, 0.2876757908379659, 0.30512781388824806, 0.3197754437569529, 0.337991711741779, 0.3546781245386228, 0.36960530624492094, 0.3880454887985252, 0.4043618964497, 0.4195604379638098, 0.4377726099919528, 0.4545098814414814, 0.4695360497571528, 0.48764821112854406, 0.505068831553217, 0.5197860933258198, 0.5379218067391776, 0.5544720275793225, 0.5694664518814534, 0.587745183845982, 0.6047957991249859, 0.6193700423464179, 0.6380023954552598, 0.6557899490580894, 0.6697545712231658, 0.6877363433595747, 0.7047767186304554, 0.7195919430232607, 0.7389595278073102, 0.7668310868320987, 0.774946624005679, 0.7876445588772185, 0.8046883474453352, 0.8198551450041123, 0.8399224627646618, 0.8624897045083344, 0.8695641756057739, 0.9041606805403717, 0.9097728803171776, 0.9193725340883248, 0.9380188818904571, 0.9603997557424009, 0.9696177990408614, 1.0015983266639523, 1.0078573527862318, 1.0194080668734387, 1.0380148200201802, 1.068018004647456, 1.0733404125785455, 1.0875722986529581, 1.1042843114119023, 1.120209892571438, 1.1381373927579261, 1.1547026322805323, 1.1698482671636157, 1.1879174205823801, 1.2042618175619282, 1.2201580440741964, 1.238342226773966, 1.2545200531603768, 1.2695465628057718, 1.2911867437069304, 1.3042516116984189, 1.3202690114849247, 1.3376415039529093, 1.3579143041861244, 1.3698322927812114, 1.388293979340233, 1.4050435387762263, 1.4198082458460703, 1.4377128767082468, 1.4570767067489214, 1.469428871117998, 1.4902065031346865]
7	金鱼	True	animate	inanimate	left	1.548	[0.0, 0.0, 0.0, 0.0, 0.0, 0.0, 0.0, 0.0, 0.0, 0.0, 0.0, 0.0, 0.0, 0.0, 0.0, 1.0, 1.0, 1.0, 1.0, 1.0, 1.0, 1.0, 5.0, 9.0, 11.0, 20.0, 25.0, 28.0, 42.0, 46.0, 59.0, 72.0, 95.0, 105.0, 149.0, 186.0, 235.0, 280.0, 336.0, 366.0, 469.0, 534.0, 604.0, 668.0, 750.0, 772.0, 817.0, 859.0, 875.0, 885.0, 887.0, 887.0, 887.0, 887.0, 887.0, 887.0, 887.0, 887.0, 888.0, 858.0, 763.0, 634.0, 481.0, 319.0, 139.0, -23.0, -188.0, -409.0, -449.0, -477.0, -527.0, -581.0, -592.0, -611.0, -614.0, -614.0, -614.0, -621.0, -624.0, -633.0, -635.0, -638.0, -642.0, -645.0, -646.0, -648.0, -654.0, -662.0, -672.0, -688.0, -706.0, -735.0, -740.0, -749.0]	[-490.0, -490.0, -490.0, -490.0, -490.0, -490.0, -490.0, -490.0, -490.0, -490.0, -490.0, -490.0, -490.0, -490.0, -490.0, -490.0, -487.0, -485.0, -480.0, -475.0, -465.0, -460.0, -439.0, -421.0, -413.0, -381.0, -344.0, -332.0, -287.0, -268.0, -237.0, -205.0, -130.0, -100.0, -20.0, 29.0, 86.0, 131.0, 174.0, 198.0, 262.0, 295.0, 324.0, 350.0, 385.0, 392.0, 407.0, 426.0, 431.0, 436.0, 437.0, 437.0, 437.0, 437.0, 437.0, 437.0, 437.0, 437.0, 438.0, 443.0, 454.0, 466.0, 477.0, 483.0, 501.0, 522.0, 540.0, 540.0, 540.0, 540.0, 540.0, 540.0, 540.0, 535.0, 533.0, 533.0, 533.0, 528.0, 525.0, 518.0, 515.0, 511.0, 507.0, 502.0, 501.0, 498.0, 492.0, 483.0, 472.0, 458.0, 445.0, 422.0, 414.0, 403.0]	[0.008189811313059181, 0.012204230588395149, 0.017552579811308533, 0.03923747537191957, 0.04975258465856314, 0.06465177703648806, 0.08295508503215387, 0.10331458394648507, 0.11472978873644024, 0.13295595539966598, 0.14980381878558546, 0.16461119253654033, 0.1828592045349069, 0.20417102292412892, 0.21456120430957526, 0.23309081612387672, 0.2496819969965145, 0.26505052245920524, 0.2829247746267356, 0.3038570305798203, 0.31467456102836877, 0.3374428480747156, 0.3499800149584189, 0.36510994855780154, 0.3834310058155097, 0.40711713768541813, 0.41485584306064993, 0.4404722139588557, 0.4494141187169589, 0.46510964137269184, 0.4833958826493472, 0.5063075295765884, 0.514446277404204, 0.5360147783649154, 0.5498858752544038, 0.565331200719811, 0.5833822634303942, 0.5996768258046359, 0.6144442635704763, 0.6359117298852652, 0.6493148590088822, 0.6680700920987874, 0.6833430443075486, 0.6998103212099522, 0.7144559030421078, 0.7345187833998352, 0.7499170048395172, 0.765386906277854, 0.7834475263371132, 0.8023703540093265, 0.8148795316228643, 0.8358711795299314, 0.8499962282949127, 0.8682476535905153, 0.8833919232129119, 0.9029977584723383, 0.9148744457634166, 0.9359702002839185, 0.949962129117921, 0.9680073892232031, 0.9833769386750646, 1.0019772064988501, 1.0148785758647136, 1.0351087095332332, 1.0499386112205684, 1.065880235109944, 1.0948211909271777, 1.1032893252559006, 1.114391186274588, 1.1329986220807768, 1.1627283988054842, 1.1706036374671385, 1.1948908570338972, 1.2028865862521343, 1.2144096523988992, 1.2330181121942587, 1.2650252637686208, 1.2725052386522293, 1.2909621465369128, 1.2996511234086938, 1.3146554463892244, 1.3328225624281913, 1.3638200505520217, 1.3687512906617485, 1.3890691469423473, 1.3995255469344556, 1.4148418484255672, 1.4337319080950692, 1.451562469592318, 1.4648434015107341, 1.4886899599223398, 1.4996016983641312, 1.5146654132986441, 1.532851985306479]
8	老鼠	True	animate	inanimate	left	1.062	[0.0, 0.0, 0.0, 0.0, 0.0, 0.0, 0.0, 0.0, 0.0, 0.0, 0.0, 0.0, 1.0, 1.0, 1.0, 2.0, 5.0, 6.0, 9.0, 16.0, 17.0, 17.0, 23.0, 28.0, 31.0, 34.0, 36.0, 40.0, 48.0, 54.0, 55.0, 59.0, 59.0, 59.0, 54.0, 42.0, 35.0, 16.0, 6.0, -16.0, -85.0, -142.0, -174.0, -261.0, -311.0, -359.0, -407.0, -452.0, -504.0, -603.0, -626.0, -668.0, -678.0, -683.0, -684.0, -688.0, -696.0, -710.0, -744.0, -752.0, -755.0, -755.0, -755.0, -755.0, -755.0]	[-490.0, -490.0, -490.0, -490.0, -490.0, -490.0, -490.0, -490.0, -490.0, -490.0, -490.0, -489.0, -486.0, -476.0, -476.0, -469.0, -458.0, -448.0, -430.0, -403.0, -391.0, -356.0, -325.0, -290.0, -279.0, -243.0, -231.0, -209.0, -175.0, -153.0, -142.0, -114.0, -95.0, -78.0, -62.0, -42.0, -34.0, -17.0, -8.0, 16.0, 85.0, 127.0, 145.0, 189.0, 218.0, 245.0, 272.0, 299.0, 336.0, 395.0, 406.0, 421.0, 424.0, 426.0, 426.0, 428.0, 431.0, 437.0, 450.0, 453.0, 453.0, 453.0, 453.0, 453.0, 453.0]	[0.009124040079768747, 0.013235397986136377, 0.01874178450088948, 0.0353387679788284, 0.051675314316526055, 0.06706978107104078, 0.0849556386237964, 0.10197212058119476, 0.11651496111880988, 0.13534835947211832, 0.1516306338016875, 0.16694693529279903, 0.19186323188478127, 0.2010942458291538, 0.21670818980783224, 0.23522892699111253, 0.25156717997742817, 0.26704083604272455, 0.2929394894163124, 0.3018575008609332, 0.3166501973173581, 0.33526957978028804, 0.3583761279587634, 0.3667172863497399, 0.3913574444013648, 0.4018687990028411, 0.4166731007862836, 0.4352010059519671, 0.4550164198153652, 0.4669255337212235, 0.4848970658495091, 0.5017131852218881, 0.5198171546217054, 0.535254288057331, 0.5552055524894968, 0.5670030504697934, 0.5864129605470225, 0.6018685259623453, 0.6170039208373055, 0.6349624823196791, 0.6521680628648028, 0.6671218685223721, 0.6849650593940169, 0.7017634294461459, 0.7166554538416676, 0.7348208631738089, 0.7531531844870187, 0.766750190872699, 0.7866724419873208, 0.8014518264099024, 0.8196356677799486, 0.8348434253130108, 0.8536290370393544, 0.8667464703321457, 0.8860027804621495, 0.9014423032058403, 0.9172299858182669, 0.9348687180900015, 0.9521964958985336, 0.9667372884578072, 0.9851935136830434, 1.0016048119287007, 1.017028292058967, 1.034831888275221, 1.0519094688352197]
9	海鸥	True	animate	inanimate	left	1.231	[0.0, 0.0, 0.0, 0.0, 0.0, 0.0, 1.0, 2.0, 2.0, 2.0, 2.0, 2.0, 2.0, 2.0, 2.0, 2.0, 2.0, 2.0, 2.0, 1.0, 1.0, 1.0, 1.0, 1.0, 1.0, 1.0, 3.0, 4.0, 4.0, 4.0, 3.0, -7.0, -21.0, -32.0, -85.0, -97.0, -97.0, -97.0, -97.0, -97.0, -97.0, -97.0, -97.0, -97.0, -99.0, -99.0, -100.0, -106.0, -113.0, -135.0, -167.0, -179.0, -233.0, -256.0, -291.0, -321.0, -376.0, -407.0, -492.0, -532.0, -548.0, -595.0, -624.0, -666.0, -717.0, -763.0, -790.0, -803.0, -805.0, -805.0, -805.0, -805.0, -805.0, -805.0, -805.0]	[-490.0, -490.0, -490.0, -490.0, -490.0, -490.0, -490.0, -490.0, -490.0, -490.0, -490.0, -490.0, -490.0, -490.0, -490.0, -489.0, -477.0, -477.0, -469.0, -459.0, -425.0, -416.0, -374.0, -374.0, -339.0, -323.0, -303.0, -286.0, -270.0, -257.0, -244.0, -232.0, -227.0, -226.0, -237.0, -245.0, -245.0, -245.0, -245.0, -245.0, -245.0, -245.0, -245.0, -245.0, -249.0, -249.0, -232.0, -217.0, -211.0, -184.0, -123.0, -90.0, 28.0, 65.0, 127.0, 182.0, 268.0, 307.0, 395.0, 425.0, 434.0, 462.0, 477.0, 495.0, 515.0, 527.0, 535.0, 537.0, 537.0, 537.0, 537.0, 537.0, 537.0, 537.0, 537.0]	[0.011137905763462186, 0.01730989193310961, 0.02190423628780991, 0.043974838277790695, 0.0543503423104994, 0.06955536920577288, 0.08806006371742114, 0.1110000413027592, 0.11939683702075854, 0.1553975865826942, 0.16464157117297873, 0.17139075172599405, 0.18765459407586604, 0.20435431884834543, 0.21935966581804678, 0.23777458973927423, 0.2591830054298043, 0.26918748032767326, 0.2880969959660433, 0.3043669823091477, 0.31967611581785604, 0.3475019362522289, 0.354599617945496, 0.3698872474487871, 0.39100723661249503, 0.40469162428053096, 0.41987309919204563, 0.4378835432580672, 0.45609776326455176, 0.46993779885815457, 0.496016334858723, 0.5045728744589724, 0.5197086107218638, 0.5378409107797779, 0.5543211583280936, 0.5696371184894815, 0.5883442235644907, 0.6045200019725598, 0.6193621917045675, 0.6453861143672839, 0.654630440287292, 0.67011228838237, 0.6882425404619426, 0.7047954919398762, 0.7201367107918486, 0.7375491391867399, 0.7549400636344217, 0.7697276400285773, 0.7875957482028753, 0.8099380514468066, 0.819509374559857, 0.8379857384134084, 0.8548786577885039, 0.8697689754772, 0.8880835474701598, 0.9114471194916405, 0.9197135259164497, 0.9377413780312054, 0.9549302332452498, 0.9697099589975551, 0.9882661948213354, 1.004786719684489, 1.0200238319230266, 1.0392920887097716, 1.054205617052503, 1.0699287876486778, 1.0883420049212873, 1.1044447380118072, 1.1194057116517797, 1.144286509603262, 1.154901288158726, 1.1697264112299308, 1.1882652390631847, 1.2048031719750725, 1.2194333937950432]
10	太阳	False	animate	inanimate	right	1.635	[0.0, 0.0, 0.0, 0.0, 0.0, 0.0, 0.0, 0.0, 0.0, 0.0, 0.0, 0.0, 0.0, 1.0, 2.0, 3.0, 3.0, 4.0, 4.0, 4.0, 4.0, 4.0, 4.0, 4.0, 4.0, 4.0, 4.0, 4.0, 4.0, 4.0, 4.0, 6.0, 7.0, 8.0, 11.0, 16.0, 19.0, 26.0, 33.0, 44.0, 50.0, 56.0, 63.0, 70.0, 78.0, 86.0, 94.0, 105.0, 114.0, 124.0, 133.0, 141.0, 156.0, 172.0, 189.0, 208.0, 226.0, 245.0, 266.0, 287.0, 308.0, 346.0, 357.0, 393.0, 415.0, 442.0, 462.0, 482.0, 507.0, 518.0, 538.0, 560.0, 577.0, 597.0, 614.0, 618.0, 628.0, 628.0, 630.0, 630.0, 630.0, 630.0, 630.0, 630.0, 630.0, 630.0, 630.0, 630.0, 630.0, 630.0, 630.0, 644.0, 741.0, 767.0, 791.0, 827.0, 848.0, 856.0, 856.0]	[-490.0, -490.0, -490.0, -490.0, -490.0, -490.0, -490.0, -490.0, -490.0, -490.0, -490.0, -490.0, -490.0, -490.0, -490.0, -488.0, -486.0, -483.0, -482.0, -479.0, -473.0, -468.0, -462.0, -461.0, -460.0, -458.0, -455.0, -455.0, -449.0, -445.0, -443.0, -437.0, -434.0, -429.0, -422.0, -404.0, -399.0, -381.0, -369.0, -349.0, -322.0, -288.0, -265.0, -244.0, -227.0, -210.0, -190.0, -171.0, -154.0, -141.0, -127.0, -117.0, -102.0, -90.0, -78.0, -65.0, -52.0, -41.0, -30.0, -18.0, -7.0, 20.0, 27.0, 54.0, 74.0, 97.0, 121.0, 143.0, 181.0, 200.0, 239.0, 276.0, 307.0, 341.0, 368.0, 374.0, 387.0, 388.0, 390.0, 390.0, 390.0, 390.0, 390.0, 390.0, 390.0, 390.0, 390.0, 390.0, 390.0, 390.0, 390.0, 395.0, 409.0, 412.0, 416.0, 418.0, 418.0, 418.0, 418.0]	[0.00724363571498543, 0.012038683926220983, 0.02254150522639975, 0.030834194330964237, 0.04792747623287141, 0.06308608182007447, 0.0812590005225502, 0.09956333244917914, 0.11234523524763063, 0.1310079670511186, 0.1609828210202977, 0.16867715306580067, 0.18060162698384374, 0.19756622629938647, 0.21266475721495226, 0.23359086917480454, 0.2571739184204489, 0.2623772011138499, 0.2809365089633502, 0.2973979832022451, 0.31255761277861893, 0.3309735606308095, 0.34730498696444556, 0.36255268048262224, 0.38719215587479994, 0.3976250038831495, 0.4126221588230692, 0.4329444524482824, 0.4541525056120008, 0.4624172053299844, 0.48460317798890173, 0.4975758860236965, 0.5124382143840194, 0.5309456395916641, 0.5510819065966643, 0.5625445567420684, 0.584012023115065, 0.59756499750074, 0.612681960396003, 0.6309767350321636, 0.6499941119691357, 0.662715598824434, 0.6826620845822617, 0.6976397836115211, 0.7156911876518279, 0.7309071372146718, 0.7485970694688149, 0.7627419155905955, 0.7813397940481082, 0.7974640311440453, 0.81286156992428, 0.8307153421337716, 0.847423258877825, 0.8627446803729981, 0.880537012591958, 0.8972684813779779, 0.9158854745328426, 0.9306355043081567, 0.9487159217242151, 0.9623992853448726, 0.9826120110228658, 0.997317667468451, 1.0155076528317295, 1.0305430371663533, 1.0491508143022656, 1.062401367467828, 1.082367650582455, 1.098388122394681, 1.112793747044634, 1.1305369272595271, 1.1487255473039113, 1.162489806942176, 1.1850109687075019, 1.1978474847855978, 1.212548021285329, 1.2309131105430424, 1.2496669782558456, 1.2626499262987636, 1.2835094782640226, 1.2978731189505197, 1.3156613551545888, 1.3309582006768323, 1.3483419570839033, 1.3627298324136063, 1.3820090118679218, 1.3991801177035086, 1.4152490588603541, 1.4310019254335202, 1.4476586422533728, 1.4627257705433294, 1.4814222942804918, 1.5132625339902006, 1.5181944568175822, 1.5310200502281077, 1.547439199173823, 1.5628882792661898, 1.5837020925828256, 1.5971762190456502, 1.6126604564487934]
11	苍蝇	True	inanimate	animate	right	1.065	[0.0, 0.0, 0.0, 0.0, 0.0, 0.0, 0.0, 0.0, -1.0, -3.0, -4.0, -7.0, -18.0, -38.0, -53.0, -65.0, -71.0, -71.0, -71.0, -71.0, -72.0, -78.0, -92.0, -100.0, -108.0, -137.0, -161.0, -171.0, -176.0, -201.0, -230.0, -247.0, -299.0, -332.0, -366.0, -446.0, -551.0, -654.0, -742.0, -810.0, -839.0, -839.0, -839.0, -839.0, -839.0, -839.0, -839.0, -839.0, -839.0, -839.0, -839.0, -814.0, -695.0, -392.0, -279.0, 223.0, 352.0, 581.0, 754.0, 854.0, 888.0, 890.0, 890.0, 890.0]	[-490.0, -490.0, -490.0, -490.0, -490.0, -490.0, -490.0, -490.0, -491.0, -492.0, -493.0, -493.0, -497.0, -505.0, -514.0, -523.0, -534.0, -534.0, -534.0, -534.0, -534.0, -536.0, -537.0, -537.0, -537.0, -526.0, -511.0, -500.0, -486.0, -448.0, -407.0, -380.0, -306.0, -260.0, -201.0, -64.0, 118.0, 274.0, 360.0, 410.0, 429.0, 430.0, 430.0, 430.0, 430.0, 430.0, 430.0, 430.0, 430.0, 430.0, 431.0, 433.0, 435.0, 440.0, 440.0, 447.0, 447.0, 447.0, 447.0, 447.0, 442.0, 440.0, 440.0, 440.0]	[0.011503473564516753, 0.0254121171310544, 0.030274066608399153, 0.06225903157610446, 0.06809890060685575, 0.08023773168679327, 0.0989683888037689, 0.1252831273013726, 0.1474800226278603, 0.15397320326883346, 0.16604103712597862, 0.18031081114895642, 0.19893872691318393, 0.21530189720215276, 0.23074483330128714, 0.2523686302592978, 0.26555091683985665, 0.2804146105190739, 0.2987906224443577, 0.31530671002110466, 0.3305219768662937, 0.35021007346222177, 0.3656267269398086, 0.38043512467993423, 0.3985821020323783, 0.4181039693648927, 0.43039435241371393, 0.44882941496325657, 0.46584350761258975, 0.48459976469166577, 0.4985579015337862, 0.5181473528500646, 0.5306316131027415, 0.5489690543618053, 0.5652270940481685, 0.5837068712571636, 0.59837429842446, 0.6174821286113001, 0.6301845007692464, 0.6497944321017712, 0.6654053041129373, 0.6839830439421348, 0.6992000174359418, 0.7177429412840866, 0.7303050255286507, 0.7488226907444187, 0.7666184362606145, 0.7809568182565272, 0.7998083072598092, 0.8157632431248203, 0.8303432890097611, 0.8488032688619569, 0.8650671112118289, 0.8805202873190865, 0.9092984272283502, 0.9174661883735098, 0.930587034963537, 0.9494047320331447, 0.9658327556098811, 0.9819351473706774, 1.0128916755202226, 1.0187298378441483, 1.0306106210919097, 1.0489163183956407]
12	大门	False	animate	inanimate	right	1.134	[0.0, 0.0, 0.0, 0.0, 0.0, 0.0, 0.0, 0.0, 0.0, 0.0, 0.0, -2.0, -6.0, -9.0, -10.0, -12.0, -19.0, -19.0, -25.0, -35.0, -48.0, -59.0, -81.0, -139.0, -192.0, -237.0, -300.0, -321.0, -355.0, -392.0, -398.0, -410.0, -421.0, -426.0, -442.0, -449.0, -466.0, -505.0, -515.0, -526.0, -550.0, -572.0, -597.0, -628.0, -645.0, -661.0, -678.0, -680.0, -683.0, -685.0, -687.0, -689.0, -689.0, -678.0, -656.0, -498.0, -322.0, -217.0, 120.0, 349.0, 549.0, 750.0, 784.0, 805.0, 807.0, 807.0, 807.0, 807.0]	[-490.0, -490.0, -490.0, -490.0, -490.0, -490.0, -490.0, -490.0, -490.0, -490.0, -490.0, -488.0, -484.0, -476.0, -473.0, -465.0, -450.0, -450.0, -441.0, -415.0, -391.0, -365.0, -319.0, -227.0, -139.0, -61.0, 48.0, 85.0, 144.0, 210.0, 225.0, 253.0, 279.0, 289.0, 319.0, 330.0, 350.0, 389.0, 398.0, 407.0, 426.0, 438.0, 451.0, 464.0, 469.0, 474.0, 479.0, 479.0, 480.0, 480.0, 480.0, 479.0, 478.0, 463.0, 453.0, 424.0, 418.0, 418.0, 449.0, 486.0, 510.0, 540.0, 540.0, 540.0, 540.0, 540.0, 540.0, 540.0]	[0.004602399771101773, 0.01001833297777921, 0.01520932768471539, 0.03072462638374418, 0.04775783367222175, 0.06234129285439849, 0.08118151786038652, 0.09803996258415282, 0.11330165079561993, 0.13516915956279263, 0.14777698245598003, 0.1629878120147623, 0.18387432931922376, 0.19757134630344808, 0.21277432516217232, 0.23102472646860406, 0.24752681935206056, 0.263019590114709, 0.2821694043232128, 0.2976478390628472, 0.3129678951809183, 0.33093567268224433, 0.3484682503622025, 0.3630008509499021, 0.3814574174466543, 0.39766220917226747, 0.41307544929441065, 0.430949701461941, 0.44892020960105583, 0.46299201040528715, 0.4814158089575358, 0.4975424353615381, 0.5124177344259806, 0.5370326338452287, 0.5479815775179304, 0.5631159484619275, 0.5938434420386329, 0.6009779877495021, 0.6124867178732529, 0.6310610443470068, 0.647311233333312, 0.6629497533431277, 0.6813742345548235, 0.697483453026507, 0.7128635838162154, 0.7308532065944746, 0.7483840776258148, 0.7630293181282468, 0.7814449246507138, 0.7974841697723605, 0.8132005137740634, 0.8309211659943685, 0.8501771347946487, 0.8628846269566566, 0.8806110818986781, 0.9035425261827186, 0.9123881749692373, 0.9322739034541883, 0.9486695004161447, 0.9628993384540081, 0.9843606607755646, 0.9977317046141252, 1.0125332757015713, 1.0367832899210043, 1.047212724632118, 1.0628901565796696, 1.081977506808471, 1.0983666183892637]
13	乌鸦	True	animate	inanimate	left	1.048	[0.0, 0.0, 0.0, 0.0, 0.0, 0.0, 0.0, 0.0, 0.0, 0.0, 0.0, 0.0, 0.0, 0.0, 2.0, 2.0, 2.0, 2.0, 3.0, 6.0, 6.0, 6.0, 6.0, 6.0, 6.0, 2.0, -1.0, -7.0, -23.0, -53.0, -80.0, -107.0, -117.0, -124.0, -172.0, -192.0, -238.0, -287.0, -366.0, -390.0, -457.0, -477.0, -506.0, -526.0, -563.0, -563.0, -580.0, -585.0, -594.0, -603.0, -612.0, -629.0, -660.0, -660.0, -678.0, -694.0, -723.0, -729.0, -741.0, -754.0, -759.0, -760.0, -760.0, -760.0]	[-490.0, -490.0, -490.0, -490.0, -490.0, -490.0, -490.0, -490.0, -490.0, -490.0, -490.0, -490.0, -490.0, -490.0, -490.0, -490.0, -490.0, -490.0, -490.0, -493.0, -493.0, -493.0, -493.0, -493.0, -493.0, -495.0, -497.0, -499.0, -500.0, -493.0, -480.0, -459.0, -441.0, -426.0, -333.0, -298.0, -216.0, -143.0, -33.0, 2.0, 97.0, 123.0, 164.0, 190.0, 231.0, 231.0, 244.0, 248.0, 253.0, 258.0, 265.0, 280.0, 304.0, 304.0, 316.0, 336.0, 386.0, 399.0, 429.0, 461.0, 480.0, 482.0, 482.0, 482.0]	[0.013229936768766493, 0.018374168779700994, 0.027726355998311192, 0.0432880760054104, 0.0609803976258263, 0.07493751047877595, 0.0950205295230262, 0.10983199928887188, 0.1276437874766998, 0.14310174225829542, 0.16053703997749835, 0.1748860033112578, 0.1937514870078303, 0.21002488664817065, 0.22571699594845995, 0.24332705629058182, 0.2602465996169485, 0.27521747193532065, 0.2934675319120288, 0.31006178475217894, 0.32544328091898933, 0.3433595170499757, 0.36014935380080715, 0.374845452955924, 0.3935126220458187, 0.4100147149292752, 0.4254450217122212, 0.4434100685175508, 0.46022584656020626, 0.47490248968824744, 0.49347647483227775, 0.5099345357739367, 0.5252484478987753, 0.5529742577346042, 0.5599238008144312, 0.5748926251544617, 0.5933706957148388, 0.6186341281281784, 0.6251040981151164, 0.6511324581224471, 0.6599217869807035, 0.67482302733697, 0.6932911992189474, 0.7267575500882231, 0.7320144220720977, 0.7499098369153216, 0.7600006690481678, 0.775053461373318, 0.7931130574434064, 0.8098414542037062, 0.8253335423069075, 0.8540710635716096, 0.8601140258251689, 0.8748773675761186, 0.8932605474838056, 0.9231586015084758, 0.9284932974842377, 0.9455015874118544, 0.9599980066413991, 0.9749623936950229, 0.9928083152044564, 1.01151678559836, 1.0251567999948747, 1.0443786354735494]
14	螃蟹	True	inanimate	animate	right	1.13	[0.0, 0.0, 0.0, 0.0, 0.0, 0.0, 0.0, 0.0, 0.0, 0.0, 0.0, 0.0, 0.0, -2.0, -4.0, -8.0, -10.0, -16.0, -21.0, -30.0, -38.0, -38.0, -47.0, -48.0, -49.0, -51.0, -55.0, -59.0, -64.0, -67.0, -71.0, -81.0, -101.0, -133.0, -201.0, -270.0, -341.0, -407.0, -492.0, -516.0, -584.0, -597.0, -612.0, -622.0, -626.0, -632.0, -635.0, -638.0, -642.0, -644.0, -651.0, -652.0, -655.0, -655.0, -645.0, -587.0, -457.0, -260.0, -28.0, 203.0, 431.0, 621.0, 772.0, 881.0, 957.0, 959.0, 959.0, 959.0]	[-490.0, -490.0, -490.0, -490.0, -490.0, -490.0, -490.0, -490.0, -490.0, -490.0, -490.0, -490.0, -490.0, -489.0, -489.0, -489.0, -489.0, -489.0, -489.0, -493.0, -497.0, -498.0, -504.0, -505.0, -505.0, -506.0, -507.0, -505.0, -502.0, -499.0, -494.0, -483.0, -470.0, -443.0, -396.0, -324.0, -246.0, -170.0, -60.0, -27.0, 97.0, 123.0, 158.0, 180.0, 200.0, 216.0, 229.0, 240.0, 245.0, 249.0, 261.0, 264.0, 271.0, 275.0, 284.0, 311.0, 355.0, 409.0, 479.0, 540.0, 540.0, 540.0, 540.0, 540.0, 536.0, 533.0, 533.0, 533.0]	[0.010980892460793257, 0.017556334438268095, 0.022360939998179674, 0.038625123677775264, 0.05502242728834972, 0.07017113419715315, 0.08906494849361479, 0.10521342023275793, 0.12013411661610007, 0.1383684752508998, 0.1554515172028914, 0.17019472032552585, 0.19083684304496273, 0.20817690883995965, 0.22077483305474743, 0.2384104933589697, 0.255328671366442, 0.2703988716821186, 0.29086315986933187, 0.31284876994322985, 0.3201178008457646, 0.35430129268206656, 0.3598366925143637, 0.3699893060256727, 0.38861449115211144, 0.41784933482995257, 0.42310620681382716, 0.4403148593264632, 0.4551949370652437, 0.470069894741755, 0.4886657252209261, 0.5051343675004318, 0.5205288342549466, 0.5389557048329152, 0.5554332217434421, 0.5701037208782509, 0.5885821327683516, 0.6069581446936354, 0.6204752791090868, 0.6499183360137977, 0.6553977571893483, 0.6732989746960811, 0.6885637348750606, 0.7061782325617969, 0.7204968172009103, 0.7383734587347135, 0.7551964047597721, 0.7709509780397639, 0.7885156410629861, 0.8086740947328508, 0.8204927553306334, 0.8382649489212781, 0.8548858257126994, 0.8704127297969535, 0.8882938086171634, 0.9051365519990213, 0.9203542082104832, 0.9382335803820752, 0.9548599185654894, 0.9703233346226625, 0.9885553039493971, 1.0050761701422743, 1.0204528876347467, 1.0384783503832296, 1.0552361018490046, 1.0702004888444208, 1.0884686394711025, 1.1055175481014885]
15	衬衫	False	animate	inanimate	right	1.203	[0.0, 0.0, 0.0, 0.0, 0.0, 0.0, 0.0, 0.0, 0.0, 0.0, 0.0, 0.0, 0.0, 0.0, 0.0, 0.0, 0.0, 0.0, 0.0, 4.0, 17.0, 23.0, 51.0, 63.0, 75.0, 83.0, 83.0, 83.0, 107.0, 107.0, 144.0, 265.0, 399.0, 570.0, 735.0, 905.0, 959.0, 959.0, 959.0, 959.0, 959.0, 959.0, 959.0, 959.0, 956.0, 956.0, 954.0, 942.0, 908.0, 830.0, 658.0, 588.0, 379.0, 257.0, 202.0, 200.0, 211.0, 285.0, 444.0, 615.0, 750.0, 848.0, 880.0, 882.0, 882.0, 881.0, 880.0, 880.0, 880.0, 880.0, 880.0, 880.0, 880.0]	[-490.0, -490.0, -490.0, -490.0, -490.0, -490.0, -490.0, -490.0, -490.0, -490.0, -485.0, -479.0, -471.0, -458.0, -454.0, -447.0, -439.0, -417.0, -408.0, -370.0, -334.0, -309.0, -196.0, -91.0, 41.0, 182.0, 385.0, 442.0, 540.0, 540.0, 540.0, 540.0, 540.0, 540.0, 540.0, 540.0, 540.0, 540.0, 540.0, 540.0, 540.0, 540.0, 540.0, 538.0, 535.0, 534.0, 531.0, 520.0, 501.0, 481.0, 475.0, 475.0, 502.0, 525.0, 532.0, 532.0, 536.0, 540.0, 540.0, 540.0, 540.0, 540.0, 540.0, 540.0, 540.0, 540.0, 540.0, 540.0, 540.0, 540.0, 540.0, 540.0, 540.0]	[0.01095324452035129, 0.015291588963009417, 0.020098242501262575, 0.0388906808802858, 0.055995226779486984, 0.07062374195083976, 0.08899497520178556, 0.10560424672439694, 0.12039660179289058, 0.13856576581019908, 0.156317820714321, 0.17062616540351883, 0.1925472635193728, 0.2055950648500584, 0.2208236437290907, 0.2388071225141175, 0.2568223453126848, 0.27069753815885633, 0.28858988103456795, 0.30413999571464956, 0.32042636605910957, 0.3387917966465466, 0.3557683426188305, 0.3704794603982009, 0.38869129109662026, 0.41500500560505316, 0.4205625921022147, 0.44872360170120373, 0.4544590227887966, 0.47039040661184117, 0.488800210529007, 0.5052179940976202, 0.5207172501832247, 0.5384768143994734, 0.5556718136067502, 0.570369619410485, 0.5890668258653022, 0.6128007443621755, 0.6204602604266256, 0.6386461497750133, 0.6557544503593817, 0.6704051521955989, 0.6889852813328616, 0.7055215075379238, 0.720629254472442, 0.7421707900939509, 0.7556148792500608, 0.7707717781304382, 0.7890371981193312, 0.8088215506868437, 0.820620413927827, 0.8418793257442303, 0.8554882787866518, 0.8733266909839585, 0.8889078670181334, 0.9069937457097694, 0.9207764373277314, 0.939584577048663, 0.955499576870352, 0.9712620008504018, 0.988873767782934, 1.0053533327300102, 1.020485655637458, 1.038561635708902, 1.0553088057786226, 1.0705561579670757, 1.088653642043937, 1.1065842141979374, 1.1204464364564046, 1.140158426365815, 1.155855655670166, 1.172626719053369, 1.1885976975318044]
16	黑板	False	inanimate	animate	left	1.281	[0.0, 0.0, 0.0, 0.0, 0.0, 0.0, 0.0, 0.0, 0.0, 0.0, 2.0, 8.0, 8.0, 15.0, 21.0, 21.0, 22.0, 1.0, -8.0, -30.0, -30.0, -30.0, -30.0, -30.0, -30.0, -30.0, -30.0, -30.0, -30.0, -30.0, -30.0, -32.0, -43.0, -60.0, -70.0, -66.0, -42.0, 0.0, 25.0, 88.0, 244.0, 391.0, 468.0, 697.0, 813.0, 910.0, 959.0, 959.0, 959.0, 959.0, 959.0, 959.0, 952.0, 940.0, 935.0, 905.0, 798.0, 736.0, 496.0, 398.0, 212.0, 36.0, -218.0, -300.0, -505.0, -597.0, -623.0, -647.0, -647.0, -647.0, -647.0, -648.0, -659.0, -673.0, -683.0, -683.0, -683.0, -683.0]	[-490.0, -490.0, -490.0, -490.0, -490.0, -490.0, -490.0, -490.0, -490.0, -490.0, -490.0, -487.0, -487.0, -485.0, -485.0, -485.0, -488.0, -514.0, -531.0, -539.0, -539.0, -539.0, -539.0, -539.0, -539.0, -539.0, -539.0, -539.0, -539.0, -539.0, -539.0, -522.0, -376.0, -332.0, -246.0, -187.0, -111.0, 31.0, 83.0, 200.0, 392.0, 540.0, 540.0, 540.0, 540.0, 540.0, 540.0, 540.0, 540.0, 540.0, 540.0, 539.0, 524.0, 506.0, 496.0, 462.0, 414.0, 400.0, 359.0, 348.0, 348.0, 348.0, 377.0, 388.0, 420.0, 431.0, 435.0, 440.0, 440.0, 440.0, 440.0, 440.0, 441.0, 441.0, 441.0, 441.0, 441.0, 441.0]	[0.008901081280782819, 0.013900588091928512, 0.018230399175081402, 0.034554998797830194, 0.0662590466090478, 0.07113533210940659, 0.09488187992246822, 0.10012578126043081, 0.11592165584443137, 0.13456800364656374, 0.15378369513200596, 0.16624064871575683, 0.19256801658775657, 0.20099416695302352, 0.2160991831915453, 0.2346079737180844, 0.2521197301102802, 0.2663898454629816, 0.29454539372818545, 0.30149425414856523, 0.3160906840348616, 0.3346452131518163, 0.35108381806639954, 0.3660133891389705, 0.38411565183196217, 0.4008993445895612, 0.41903574066236615, 0.4346083833370358, 0.45397562673315406, 0.4662632791441865, 0.48797479865606874, 0.501515485055279, 0.5213954108767211, 0.5342288549873047, 0.5513893795432523, 0.5664592384709977, 0.5847560611437075, 0.6014554445864633, 0.6164505515480414, 0.634627566265408, 0.6533251139917411, 0.6658469209214672, 0.684475178073626, 0.7021108383778483, 0.7164894976885989, 0.734319717856124, 0.7512614478473552, 0.7664364374359138, 0.7849472759407945, 0.8133492667693645, 0.821291406697128, 0.8346085198572837, 0.8515031458809972, 0.8659213998471387, 0.8844810489681549, 0.914661385526415, 0.9197035589604639, 0.9358772893319838, 0.9510256549110636, 0.9662740311468951, 0.9845640271087177, 1.0070094129187055, 1.0160359683213755, 1.040179145289585, 1.0510055504273623, 1.0660078253713436, 1.0842360400711186, 1.1133630224503577, 1.1180082254577428, 1.1472427278058603, 1.1523838878492825, 1.165874398255255, 1.1844835407100618, 1.206605001410935, 1.2330211158841848, 1.2468198501737788, 1.2520480501116253, 1.2658908164012246]
17	足球	False	animate	inanimate	right	1.101	[0.0, 0.0, 0.0, 0.0, 0.0, 0.0, 0.0, 0.0, 0.0, 0.0, 0.0, 0.0, 0.0, -1.0, -2.0, -3.0, -7.0, -10.0, -15.0, -20.0, -23.0, -30.0, -38.0, -49.0, -62.0, -76.0, -89.0, -100.0, -134.0, -161.0, -176.0, -245.0, -304.0, -359.0, -394.0, -425.0, -434.0, -461.0, -471.0, -494.0, -521.0, -532.0, -536.0, -536.0, -536.0, -536.0, -536.0, -536.0, -532.0, -437.0, -383.0, -245.0, -10.0, 261.0, 521.0, 667.0, 724.0, 762.0, 811.0, 825.0, 827.0, 827.0, 827.0, 827.0, 827.0, 827.0, 827.0]	[-490.0, -490.0, -490.0, -490.0, -490.0, -490.0, -490.0, -490.0, -490.0, -490.0, -490.0, -490.0, -490.0, -490.0, -489.0, -488.0, -483.0, -476.0, -465.0, -448.0, -424.0, -382.0, -317.0, -236.0, -146.0, -51.0, 36.0, 117.0, 211.0, 252.0, 268.0, 309.0, 330.0, 350.0, 365.0, 381.0, 388.0, 406.0, 412.0, 420.0, 422.0, 422.0, 422.0, 422.0, 422.0, 422.0, 422.0, 422.0, 422.0, 422.0, 422.0, 422.0, 445.0, 480.0, 518.0, 537.0, 537.0, 537.0, 537.0, 532.0, 530.0, 530.0, 530.0, 530.0, 530.0, 530.0, 530.0]	[0.016598144022282213, 0.02458943595411256, 0.02930597757222131, 0.04910842073149979, 0.059484948753379285, 0.0741213146247901, 0.09288303297944367, 0.11264178552664816, 0.12458161945687607, 0.15337785001611337, 0.15898254048079252, 0.17451115121366456, 0.19291242177132517, 0.20973536785459146, 0.22465401620138437, 0.24434381944593042, 0.2595805902965367, 0.27551948348991573, 0.29273598664440215, 0.31007571110967547, 0.3247574742999859, 0.34316864353604615, 0.3594772004871629, 0.3747112406999804, 0.3924523729365319, 0.4091623377171345, 0.4243680472718552, 0.44251365930540487, 0.4594458320061676, 0.47424569638678804, 0.49240700976224616, 0.510689496411942, 0.5245653719757684, 0.5455805718665943, 0.5598267939058132, 0.5744430210907012, 0.5924166012555361, 0.6098232269869186, 0.6247599659836851, 0.6426004262175411, 0.6594711589277722, 0.6744338392163627, 0.6927880058647133, 0.7098713890882209, 0.7245698775514029, 0.7423792764311656, 0.7591872038319707, 0.7742335108341649, 0.7923576188622974, 0.8094290554290637, 0.8246159916743636, 0.846672257699538, 0.8699061231454834, 0.8914480001549236, 0.9066386910271831, 0.9162663340684958, 0.9241542020463385, 0.9427828005282208, 0.9590599548537284, 0.974555114924442, 0.9923822631244548, 1.0096294863033108, 1.0242887214408256, 1.042809458624106, 1.0657958575175144, 1.0743325998191722, 1.094115245679859]
18	海豚	True	animate	inanimate	left	0.985	[0.0, 0.0, 0.0, 0.0, 0.0, 0.0, 0.0, 0.0, 0.0, 0.0, 0.0, 0.0, 0.0, 0.0, 0.0, 0.0, 1.0, 1.0, 1.0, -9.0, -11.0, -11.0, -11.0, -11.0, -11.0, -11.0, -11.0, -11.0, -11.0, -11.0, -11.0, -15.0, -15.0, -15.0, -24.0, -30.0, -43.0, -71.0, -130.0, -130.0, -190.0, -281.0, -328.0, -414.0, -513.0, -538.0, -589.0, -595.0, -607.0, -619.0, -632.0, -647.0, -664.0, -677.0, -679.0, -682.0, -684.0, -684.0, -684.0, -684.0]	[-490.0, -490.0, -490.0, -490.0, -490.0, -490.0, -490.0, -490.0, -490.0, -490.0, -490.0, -490.0, -490.0, -490.0, -490.0, -490.0, -491.0, -495.0, -499.0, -512.0, -516.0, -519.0, -519.0, -519.0, -519.0, -519.0, -519.0, -519.0, -519.0, -519.0, -519.0, -514.0, -491.0, -487.0, -455.0, -441.0, -407.0, -357.0, -260.0, -260.0, -158.0, -46.0, 9.0, 103.0, 204.0, 224.0, 259.0, 265.0, 279.0, 290.0, 303.0, 318.0, 332.0, 349.0, 356.0, 376.0, 386.0, 388.0, 389.0, 389.0]	[0.003206688503269106, 0.008064883353654295, 0.021307585877366364, 0.03924361936515197, 0.05687927966937423, 0.07137194427195936, 0.08933016442460939, 0.10861446388298646, 0.12084545491961762, 0.13921395753277466, 0.15646220470080152, 0.1712549011572264, 0.1892366732354276, 0.2122203414910473, 0.22072875313460827, 0.24447257030988112, 0.2562444682698697, 0.27143038052599877, 0.28994702169438824, 0.3061292854254134, 0.32254604500485584, 0.339193545805756, 0.35753815510543063, 0.37129763601114973, 0.3892053388990462, 0.412463097658474, 0.4207264320575632, 0.43923249194631353, 0.45622678723884746, 0.47147857677191496, 0.48927432228811085, 0.5075025369878858, 0.5208561727777123, 0.5455144214793108, 0.5562473013415001, 0.5715110375313088, 0.5899160627741367, 0.6062280330806971, 0.6228929418721236, 0.6447413360583596, 0.6564197087427601, 0.6713649810990319, 0.6891037239693105, 0.7060888033010997, 0.7208507797331549, 0.7457650282885879, 0.756098207028117, 0.7714465938042849, 0.7899468510295264, 0.8060079414863139, 0.8224175330833532, 0.8393196684191935, 0.8564170463359915, 0.8712790333665907, 0.8905100848642178, 0.9066373939276673, 0.9210532585857436, 0.9450500035891309, 0.9558122380985878, 0.9713050088612363]
19	厨师	True	animate	inanimate	left	1.607	[0.0, 0.0, 0.0, 0.0, 0.0, 0.0, 0.0, 0.0, 0.0, 2.0, 6.0, 6.0, 6.0, 6.0, 6.0, 6.0, 6.0, 10.0, 18.0, 38.0, 47.0, 56.0, 121.0, 247.0, 292.0, 452.0, 495.0, 596.0, 682.0, 763.0, 837.0, 883.0, 911.0, 927.0, 929.0, 929.0, 929.0, 929.0, 929.0, 929.0, 929.0, 929.0, 929.0, 929.0, 929.0, 929.0, 929.0, 929.0, 926.0, 474.0, 347.0, 220.0, 4.0, -155.0, -240.0, -271.0, -287.0, -303.0, -323.0, -360.0, -373.0, -416.0, -447.0, -485.0, -510.0, -535.0, -557.0, -586.0, -698.0, -800.0, -845.0, -956.0, -960.0, -960.0, -960.0, -960.0, -960.0, -960.0, -960.0, -960.0, -960.0, -960.0, -960.0, -960.0, -960.0, -960.0, -960.0, -960.0, -941.0, -923.0, -908.0, -903.0, -902.0, -902.0, -902.0, -902.0, -902.0]	[-490.0, -490.0, -490.0, -490.0, -490.0, -490.0, -490.0, -490.0, -490.0, -490.0, -488.0, -487.0, -487.0, -487.0, -487.0, -487.0, -487.0, -482.0, -477.0, -456.0, -446.0, -434.0, -362.0, -246.0, -206.0, -46.0, 14.0, 132.0, 227.0, 302.0, 353.0, 385.0, 404.0, 411.0, 412.0, 412.0, 412.0, 412.0, 412.0, 412.0, 412.0, 412.0, 412.0, 412.0, 412.0, 412.0, 412.0, 412.0, 413.0, 413.0, 413.0, 413.0, 415.0, 437.0, 455.0, 469.0, 480.0, 495.0, 508.0, 524.0, 528.0, 536.0, 536.0, 536.0, 536.0, 530.0, 520.0, 507.0, 457.0, 415.0, 396.0, 349.0, 345.0, 343.0, 343.0, 343.0, 343.0, 343.0, 343.0, 343.0, 343.0, 343.0, 343.0, 343.0, 343.0, 343.0, 343.0, 343.0, 353.0, 362.0, 371.0, 373.0, 374.0, 374.0, 374.0, 374.0, 374.0]	[0.012076913320925087, 0.024799424165394157, 0.03650134883355349, 0.057104900944978, 0.07158459484344348, 0.08656400052132085, 0.10455294064013287, 0.12161823321366683, 0.13668194820638746, 0.15502382681006566, 0.18817649252014235, 0.1922414290602319, 0.2157783983857371, 0.2247865217505023, 0.23656285705510527, 0.25617961498210207, 0.2838590035098605, 0.29191105271456763, 0.3157480538357049, 0.324118566873949, 0.33659941382938996, 0.35549288685433567, 0.383906141621992, 0.3909840260166675, 0.4128081855014898, 0.42132478911662474, 0.4365110427024774, 0.45540622231783345, 0.4709751103655435, 0.4866149956942536, 0.5047063357778825, 0.5212340286234394, 0.5362001223256811, 0.5547966354642995, 0.5870683202520013, 0.5920644137077034, 0.6112606492242776, 0.6214637800003402, 0.6360387058812194, 0.6547847229521722, 0.6851302647264674, 0.6906137819169089, 0.7087249192991294, 0.7214249021490104, 0.7361831238958985, 0.7548892049817368, 0.7733788808691315, 0.7867256900644861, 0.8206402113428339, 0.8279037809697911, 0.836249376705382, 0.8547393938642927, 0.8722364729037508, 0.8866438042023219, 0.9053457893314771, 0.9212406505248509, 0.9389060068060644, 0.9546189373941161, 0.9711196649586782, 0.9866984516265802, 1.004378826590255, 1.021120535384398, 1.0363224902539514, 1.0543609236483462, 1.0730243381112814, 1.0861653233878314, 1.105801537341904, 1.1217295078677125, 1.1367464601644315, 1.1543616404524073, 1.1719119675108232, 1.1863056454458274, 1.2083595221629366, 1.2210164970019832, 1.2366150810266845, 1.2543954665889032, 1.27153721783543, 1.2863203568849713, 1.3047731688129716, 1.3210656830924563, 1.3365857605240308, 1.354581868625246, 1.3714488466503099, 1.386276017758064, 1.4046148243360221, 1.4287248919717968, 1.436297026812099, 1.4544071402051486, 1.4714161127922125, 1.4864255557768047, 1.5046735677751713, 1.528865555417724, 1.5363417755579576, 1.5614587760646828, 1.5714096616138704, 1.5862545819836669, 1.6048173031886108]
20	黑狗	True	inanimate	animate	right	1.237	[0.0, 0.0, 0.0, 0.0, 0.0, 0.0, 0.0, 0.0, 1.0, 1.0, 1.0, 1.0, 1.0, 1.0, 1.0, 1.0, 1.0, 1.0, 1.0, 2.0, 4.0, 7.0, 10.0, 14.0, 14.0, 14.0, 17.0, 28.0, 70.0, 127.0, 150.0, 186.0, 216.0, 228.0, 228.0, 228.0, 227.0, 215.0, 190.0, 144.0, 40.0, -80.0, -125.0, -226.0, -323.0, -420.0, -509.0, -547.0, -558.0, -558.0, -558.0, -558.0, -568.0, -608.0, -608.0, -650.0, -650.0, -651.0, -650.0, -579.0, -530.0, -300.0, -187.0, -69.0, 319.0, 706.0, 706.0, 838.0, 853.0, 862.0, 862.0, 863.0, 863.0, 863.0]	[-490.0, -490.0, -490.0, -490.0, -490.0, -490.0, -490.0, -490.0, -489.0, -489.0, -489.0, -489.0, -489.0, -489.0, -489.0, -489.0, -489.0, -489.0, -489.0, -487.0, -478.0, -463.0, -443.0, -417.0, -382.0, -333.0, -274.0, -209.0, -91.0, 32.0, 75.0, 161.0, 238.0, 304.0, 392.0, 438.0, 463.0, 509.0, 540.0, 540.0, 540.0, 540.0, 540.0, 540.0, 540.0, 532.0, 509.0, 495.0, 489.0, 487.0, 487.0, 487.0, 482.0, 469.0, 469.0, 457.0, 457.0, 456.0, 454.0, 452.0, 452.0, 452.0, 452.0, 452.0, 452.0, 441.0, 441.0, 423.0, 420.0, 420.0, 420.0, 419.0, 419.0, 419.0]	[0.007910259417258203, 0.01758739579236135, 0.022222017461899668, 0.05603379744570702, 0.06107460556086153, 0.07167641347041354, 0.09037873987108469, 0.11168373160762712, 0.12191416905261576, 0.14574843953596428, 0.15699673246126622, 0.17204338073497638, 0.19021322741173208, 0.20677744294516742, 0.22217156836995855, 0.24199483293341473, 0.2570356785436161, 0.2720608228701167, 0.29021360288606957, 0.30707511957734823, 0.32214668521191925, 0.34196960838744417, 0.35704356333008036, 0.374614370346535, 0.3902778076590039, 0.40655666863312945, 0.4217685221810825, 0.4435373857268132, 0.45725829602451995, 0.47193289117421955, 0.4899078366579488, 0.50859548576409, 0.5216023270622827, 0.5444740380626172, 0.5577897859038785, 0.5720141626079567, 0.5898904628120363, 0.6073916378081776, 0.6220280036795884, 0.6403845595777966, 0.6566453299601562, 0.6719056527945213, 0.6935704097268172, 0.7069554482004605, 0.7219184698769823, 0.7402798044495285, 0.756485961494036, 0.7720947855268605, 0.8032267589005642, 0.8116873839171603, 0.8220263652619906, 0.8413768833852373, 0.8693003250518814, 0.8768427638569847, 0.9048556348425336, 0.9110501490067691, 0.9219943140633404, 0.9407584218424745, 0.9640144738950767, 0.9775722269550897, 1.0036586135975085, 1.009573234594427, 1.0216513084014878, 1.040139960241504, 1.0709589311736636, 1.07604206452379, 1.1030254747602157, 1.108067648136057, 1.1216649958514608, 1.1402239623712376, 1.1571400923421606, 1.1743996035074815, 1.1939170335535891, 1.206892130896449]
21	护士	True	animate	inanimate	left	1.285	[0.0, 0.0, 0.0, 0.0, 0.0, 0.0, 0.0, 0.0, 0.0, 0.0, -1.0, -1.0, -2.0, -2.0, -2.0, -2.0, -5.0, -6.0, -11.0, -12.0, -12.0, -12.0, -11.0, -8.0, -5.0, -1.0, 13.0, 23.0, 95.0, 141.0, 233.0, 391.0, 482.0, 557.0, 654.0, 682.0, 729.0, 750.0, 752.0, 752.0, 752.0, 752.0, 752.0, 752.0, 752.0, 751.0, 710.0, 404.0, 404.0, 256.0, 186.0, 40.0, -81.0, -257.0, -306.0, -389.0, -408.0, -423.0, -439.0, -463.0, -468.0, -485.0, -492.0, -501.0, -527.0, -592.0, -617.0, -683.0, -731.0, -779.0, -810.0, -835.0, -847.0, -849.0, -849.0, -849.0, -849.0]	[-490.0, -490.0, -490.0, -490.0, -490.0, -490.0, -490.0, -490.0, -490.0, -490.0, -489.0, -487.0, -486.0, -479.0, -464.0, -456.0, -426.0, -418.0, -402.0, -389.0, -382.0, -375.0, -366.0, -355.0, -336.0, -315.0, -280.0, -265.0, -193.0, -161.0, -102.0, 15.0, 94.0, 158.0, 217.0, 226.0, 243.0, 251.0, 251.0, 251.0, 251.0, 251.0, 251.0, 251.0, 251.0, 251.0, 255.0, 309.0, 309.0, 350.0, 367.0, 409.0, 444.0, 496.0, 507.0, 522.0, 525.0, 529.0, 535.0, 540.0, 540.0, 540.0, 540.0, 540.0, 540.0, 527.0, 519.0, 498.0, 486.0, 476.0, 471.0, 468.0, 468.0, 468.0, 468.0, 468.0, 468.0]	[0.006746996019501239, 0.015306266315747052, 0.020031341235153377, 0.04425677948165685, 0.05495620868168771, 0.07014587556477636, 0.08845123153878376, 0.10501271637622267, 0.12027133256196976, 0.15437051508342847, 0.1629403667175211, 0.170011424459517, 0.18833726039156318, 0.21200052293715999, 0.2198231962393038, 0.23835246678208932, 0.2548549009952694, 0.27061732491711155, 0.28895852086134255, 0.3051482939044945, 0.3215544722042978, 0.33850473549682647, 0.3548573244479485, 0.3702975299092941, 0.388098054099828, 0.4111076636472717, 0.41981916851364076, 0.4444910705788061, 0.45485257991822436, 0.47049075859831646, 0.48887496249517426, 0.5050364048802294, 0.5233864755136892, 0.5431653666892089, 0.5554994404083118, 0.5703252461389638, 0.5880878823809326, 0.611714280967135, 0.6198356208042242, 0.639473200077191, 0.6548577682115138, 0.6699583471054211, 0.6881520871538669, 0.705222841061186, 0.7201343214255758, 0.7407071535708383, 0.7673714172560722, 0.7827225347282365, 0.7972466019564308, 0.8049699473194778, 0.8198111130623147, 0.8384137701941654, 0.8623244992922992, 0.870037263375707, 0.8898827145458199, 0.9050007014302537, 0.92036786157405, 0.9384414523374289, 0.961439456557855, 0.9700393454986624, 1.0034050030517392, 1.0095872292295098, 1.0199176772730425, 1.0384950757725164, 1.0595392889808863, 1.0701530435471795, 1.087972341105342, 1.1047570578521118, 1.1204802284482867, 1.138162651390303, 1.1551129147410393, 1.1705145495361648, 1.1916410240228288, 1.2050724838045426, 1.2206970091210678, 1.2381541522336192, 1.2585122857708484]
22	螳螂	True	inanimate	animate	right	0.865	[0.0, 0.0, 0.0, 0.0, 0.0, 0.0, 0.0, 0.0, 0.0, 0.0, 0.0, 0.0, 0.0, 0.0, 0.0, 0.0, 0.0, 0.0, 1.0, 5.0, 7.0, 10.0, 10.0, 10.0, 12.0, 23.0, 42.0, 53.0, 86.0, 160.0, 214.0, 340.0, 340.0, 411.0, 488.0, 605.0, 641.0, 747.0, 800.0, 823.0, 858.0, 886.0, 890.0, 892.0, 893.0, 893.0, 893.0, 893.0, 893.0, 893.0, 893.0, 893.0]	[-490.0, -490.0, -490.0, -490.0, -490.0, -490.0, -490.0, -490.0, -490.0, -490.0, -490.0, -490.0, -490.0, -490.0, -490.0, -490.0, -488.0, -485.0, -480.0, -465.0, -452.0, -438.0, -422.0, -401.0, -378.0, -331.0, -288.0, -262.0, -213.0, -121.0, -62.0, 44.0, 44.0, 97.0, 150.0, 220.0, 244.0, 303.0, 324.0, 335.0, 348.0, 359.0, 360.0, 361.0, 361.0, 361.0, 361.0, 361.0, 361.0, 361.0, 361.0, 361.0]	[0.007260361162479967, 0.01157174026593566, 0.015305925044231117, 0.03182440192904323, 0.04848282539751381, 0.06311987387016416, 0.08353364479262382, 0.09799115202622488, 0.11294222704600543, 0.13174046808853745, 0.149138901848346, 0.16526177356718108, 0.18121227208757773, 0.1982878046692349, 0.21340783959021792, 0.23159509431570768, 0.247823437966872, 0.26328002742957324, 0.28176526591414586, 0.3005870589404367, 0.3132829457754269, 0.3327730691526085, 0.3478518027695827, 0.3633182908524759, 0.3816837214399129, 0.40138001000741497, 0.412920142756775, 0.43144190398743376, 0.44843995390692726, 0.46571414242498577, 0.4943697437411174, 0.5018630306003615, 0.5132905233767815, 0.5315911006764509, 0.5553652965463698, 0.5630364179378375, 0.5858791155624203, 0.5991678980644792, 0.6128365844488144, 0.6313723402563483, 0.6477358518750407, 0.6632846012362279, 0.6856849311152473, 0.6981036554207094, 0.7127912212745287, 0.731528022326529, 0.7515547213843092, 0.7632064701174386, 0.7858354931813665, 0.7981371402274817, 0.8131844711606391, 0.8316724403994158]
23	奶牛	True	animate	inanimate	left	1.476	[0.0, 0.0, 0.0, 0.0, 0.0, 0.0, 0.0, 0.0, 0.0, 0.0, 1.0, 3.0, 5.0, 5.0, 8.0, 8.0, 10.0, 11.0, 13.0, 15.0, 17.0, 17.0, 22.0, 26.0, 31.0, 37.0, 42.0, 48.0, 55.0, 61.0, 68.0, 72.0, 80.0, 89.0, 104.0, 127.0, 170.0, 315.0, 353.0, 399.0, 488.0, 612.0, 654.0, 778.0, 809.0, 809.0, 838.0, 847.0, 855.0, 858.0, 862.0, 864.0, 866.0, 869.0, 870.0, 873.0, 873.0, 873.0, 862.0, 811.0, 708.0, 575.0, 413.0, 249.0, -5.0, -230.0, -230.0, -447.0, -472.0, -488.0, -519.0, -534.0, -542.0, -586.0, -596.0, -605.0, -621.0, -630.0, -642.0, -651.0, -652.0, -653.0, -659.0, -684.0, -695.0, -710.0, -714.0, -714.0]	[-490.0, -490.0, -490.0, -490.0, -490.0, -490.0, -490.0, -490.0, -490.0, -490.0, -490.0, -485.0, -481.0, -477.0, -474.0, -471.0, -468.0, -464.0, -460.0, -451.0, -446.0, -441.0, -424.0, -408.0, -393.0, -368.0, -340.0, -302.0, -265.0, -219.0, -172.0, -132.0, -91.0, -71.0, -54.0, -37.0, -19.0, 26.0, 38.0, 52.0, 88.0, 155.0, 177.0, 264.0, 297.0, 297.0, 335.0, 353.0, 371.0, 384.0, 396.0, 404.0, 409.0, 416.0, 420.0, 427.0, 429.0, 429.0, 433.0, 434.0, 434.0, 434.0, 434.0, 434.0, 434.0, 438.0, 438.0, 444.0, 444.0, 444.0, 444.0, 444.0, 444.0, 441.0, 439.0, 436.0, 432.0, 431.0, 429.0, 427.0, 427.0, 427.0, 426.0, 419.0, 416.0, 412.0, 411.0, 411.0]	[0.008816840301733464, 0.01979513867991045, 0.025504959747195244, 0.05603516276460141, 0.06094694690546021, 0.07545770215801895, 0.09421737253433093, 0.11450041283387691, 0.12570808711461723, 0.14433736825594679, 0.1611726022674702, 0.17561236023902893, 0.19401738548185676, 0.21299243706744164, 0.22587673983071, 0.2460635241586715, 0.26086065790150315, 0.2758605435374193, 0.29356071579968557, 0.31061474443413317, 0.32600511523196474, 0.34430500987218693, 0.36065759882330894, 0.37884553615003824, 0.39412702166009694, 0.41081923712044954, 0.4260256293346174, 0.4437824629130773, 0.4604531743680127, 0.4754721747012809, 0.49373315734555945, 0.5123880384489894, 0.5259935781359673, 0.5447658778866753, 0.5605016777990386, 0.5767416268354282, 0.5949329775176011, 0.6161553666461259, 0.6254734205431305, 0.6441392243141308, 0.6602760907262564, 0.675835762755014, 0.6949138970230706, 0.715757064986974, 0.7256045266403817, 0.7437013279995881, 0.7603877407964319, 0.775594815670047, 0.7936632864293642, 0.8107377950218506, 0.825334224908147, 0.8440232393331826, 0.8615964356577024, 0.8759092176915146, 0.893835011171177, 0.9108692424488254, 0.9257960827671923, 0.9460637630545534, 0.9603543584235013, 0.9758471291861497, 0.9936111307470128, 1.0108231966150925, 1.026038804790005, 1.0454616855131462, 1.0709889684803784, 1.076167675142642, 1.105812118621543, 1.1135071333264932, 1.1258463270496577, 1.1449029572540894, 1.1688682996900752, 1.175558429560624, 1.2088141778949648, 1.2155145477736369, 1.2253766867215745, 1.244003578554839, 1.2609804658568464, 1.2768896630150266, 1.3006017362349667, 1.3106847177259624, 1.3253989075310528, 1.3440251166466624, 1.3665961130755022, 1.3757359911105596, 1.3966378683689982, 1.410672122554388, 1.42560749623226, 1.4440650867763907]
24	蜻蜓	True	inanimate	animate	right	1.077	[0.0, 0.0, 0.0, 0.0, 0.0, 0.0, 0.0, 0.0, 0.0, 0.0, 0.0, 0.0, 0.0, 0.0, 0.0, 0.0, 0.0, 0.0, 0.0, 0.0, 0.0, 0.0, 0.0, 0.0, 0.0, 0.0, 0.0, 0.0, 0.0, 0.0, 0.0, -12.0, -26.0, -28.0, -38.0, -61.0, -96.0, -168.0, -239.0, -300.0, -320.0, -334.0, -366.0, -391.0, -409.0, -412.0, -417.0, -408.0, -408.0, -340.0, -220.0, -58.0, 115.0, 288.0, 472.0, 626.0, 763.0, 777.0, 788.0, 788.0, 788.0, 788.0, 788.0, 788.0, 788.0]	[-490.0, -490.0, -490.0, -490.0, -490.0, -490.0, -490.0, -490.0, -490.0, -490.0, -490.0, -490.0, -490.0, -490.0, -490.0, -490.0, -492.0, -495.0, -500.0, -506.0, -511.0, -511.0, -511.0, -511.0, -511.0, -511.0, -511.0, -511.0, -511.0, -511.0, -503.0, -475.0, -434.0, -424.0, -394.0, -352.0, -291.0, -143.0, 28.0, 212.0, 270.0, 329.0, 434.0, 518.0, 540.0, 540.0, 540.0, 540.0, 540.0, 529.0, 504.0, 483.0, 483.0, 483.0, 493.0, 514.0, 533.0, 536.0, 536.0, 536.0, 536.0, 536.0, 536.0, 536.0, 536.0]	[0.00890934158815071, 0.016335044463630766, 0.021753708366304636, 0.03403146204072982, 0.05044924566755071, 0.06571127515053377, 0.08370977261802182, 0.10067300661467016, 0.11539402307244018, 0.13367036572890356, 0.1519135990529321, 0.16521774156717584, 0.1847887608455494, 0.2014512803289108, 0.21942793246125802, 0.23434999416349456, 0.25000797014217824, 0.26535430894000456, 0.2839252221165225, 0.30132706923177466, 0.315923840389587, 0.3336349353194237, 0.35063537460519, 0.3656734895776026, 0.3841863761190325, 0.40032904519466683, 0.4156320346519351, 0.43471324088750407, 0.45053164346609265, 0.4654748678440228, 0.4840280316420831, 0.5013749240897596, 0.5157201327383518, 0.533661286230199, 0.5505385042633861, 0.5656503472127952, 0.5866307311225682, 0.6098782498738728, 0.6320840198313817, 0.6416611456079409, 0.6502808318473399, 0.665489272098057, 0.6837280680774711, 0.7069557895301841, 0.7154403078602627, 0.7452004632796161, 0.7600153463426977, 0.7652360370266251, 0.7838455208111554, 0.800145203131251, 0.815607936528977, 0.8334681940614246, 0.8505792253417894, 0.8658791428315453, 0.8835308458073996, 0.9033834649599157, 0.9156642906600609, 0.9356797257205471, 0.9506253394065425, 0.9684238156769425, 0.9840606289799325, 1.0015245986869559, 1.0157667247694917, 1.0350332749076188, 1.0506373202078976]
25	蝙蝠	True	animate	inanimate	left	0.864	[0.0, 0.0, 0.0, 0.0, 0.0, 0.0, 0.0, 0.0, 0.0, 0.0, 0.0, 0.0, 0.0, 0.0, -2.0, -2.0, -2.0, -4.0, -6.0, -14.0, -25.0, -33.0, -77.0, -91.0, -118.0, -143.0, -187.0, -196.0, -209.0, -238.0, -267.0, -314.0, -341.0, -348.0, -372.0, -385.0, -399.0, -420.0, -447.0, -475.0, -501.0, -528.0, -554.0, -582.0, -622.0, -635.0, -671.0, -695.0, -716.0, -725.0, -726.0, -726.0]	[-490.0, -491.0, -491.0, -491.0, -492.0, -492.0, -492.0, -492.0, -492.0, -492.0, -492.0, -492.0, -492.0, -489.0, -483.0, -481.0, -478.0, -475.0, -467.0, -446.0, -421.0, -403.0, -298.0, -264.0, -205.0, -136.0, 3.0, 41.0, 74.0, 134.0, 194.0, 277.0, 324.0, 337.0, 373.0, 389.0, 400.0, 409.0, 415.0, 417.0, 417.0, 417.0, 417.0, 417.0, 417.0, 417.0, 417.0, 417.0, 417.0, 417.0, 417.0, 417.0]	[0.013369815016631037, 0.02160823211306706, 0.02649066160665825, 0.04302006115904078, 0.05912518361583352, 0.07430768245831132, 0.09306223288876936, 0.10906939266715199, 0.12456796609330922, 0.15106975520029664, 0.15948600688716397, 0.1740950660314411, 0.1928636110969819, 0.22784855321515352, 0.23358056094730273, 0.25116706924745813, 0.25951710232766345, 0.2741108015179634, 0.2928107386105694, 0.3096043299883604, 0.32470866362564266, 0.3500666453037411, 0.3596038350951858, 0.3740995716652833, 0.39278244209708646, 0.42527496942784637, 0.4299089084379375, 0.44305228302255273, 0.4595379919046536, 0.4741337391315028, 0.4927613135660067, 0.5117916611488909, 0.5246541185770184, 0.5422662268974818, 0.5591000955901109, 0.5777085553854704, 0.592802990344353, 0.6107881757779978, 0.6246507393661886, 0.6440879561123438, 0.6594121082453057, 0.6743802499258891, 0.6923418833757751, 0.7127536062616855, 0.7243862402974628, 0.74480854452122, 0.7590254119131714, 0.7780055835028179, 0.7924764027702622, 0.8102588363690302, 0.8243944664136507, 0.8436473632464185]
26	司机	True	inanimate	animate	right	1.392	[0.0, -1.0, -1.0, -1.0, -1.0, -1.0, -1.0, -1.0, -1.0, -1.0, -1.0, -2.0, -2.0, -4.0, -9.0, -13.0, -19.0, -26.0, -26.0, -28.0, -28.0, -28.0, -28.0, -30.0, -31.0, -32.0, -32.0, -33.0, -34.0, -39.0, -41.0, -41.0, -46.0, -58.0, -87.0, -96.0, -100.0, -124.0, -134.0, -152.0, -180.0, -208.0, -241.0, -288.0, -304.0, -330.0, -361.0, -406.0, -422.0, -458.0, -472.0, -484.0, -507.0, -552.0, -576.0, -587.0, -589.0, -594.0, -600.0, -605.0, -606.0, -608.0, -608.0, -608.0, -608.0, -602.0, -564.0, -462.0, -129.0, -27.0, 179.0, 382.0, 471.0, 713.0, 838.0, 927.0, 959.0, 959.0, 959.0, 959.0, 959.0, 959.0, 959.0, 959.0]	[-490.0, -490.0, -490.0, -490.0, -490.0, -490.0, -490.0, -490.0, -490.0, -490.0, -490.0, -490.0, -490.0, -491.0, -493.0, -494.0, -498.0, -506.0, -506.0, -509.0, -509.0, -509.0, -512.0, -518.0, -521.0, -528.0, -528.0, -530.0, -530.0, -530.0, -530.0, -527.0, -517.0, -500.0, -477.0, -470.0, -467.0, -449.0, -441.0, -428.0, -406.0, -384.0, -357.0, -321.0, -307.0, -284.0, -248.0, -183.0, -161.0, -90.0, -58.0, -34.0, 4.0, 67.0, 106.0, 135.0, 142.0, 158.0, 170.0, 179.0, 181.0, 185.0, 186.0, 188.0, 189.0, 196.0, 206.0, 231.0, 286.0, 309.0, 345.0, 390.0, 412.0, 469.0, 496.0, 507.0, 514.0, 515.0, 515.0, 515.0, 515.0, 515.0, 515.0, 515.0]	[0.0045808275463059545, 0.010656557802576572, 0.02394295099657029, 0.04217730963137001, 0.059012543701101094, 0.0737229788210243, 0.09197406278690323, 0.10895026742946357, 0.12351119867525995, 0.14233435702044517, 0.15980515343835577, 0.1740206554532051, 0.1927011365769431, 0.21128433773992583, 0.22406555782072246, 0.24457183002959937, 0.25879552407423034, 0.2737950683804229, 0.3095599567168392, 0.31872680003289133, 0.32384031207766384, 0.34242556121898815, 0.35914030467392877, 0.3737101105507463, 0.3919786025653593, 0.4090712018078193, 0.4243765806313604, 0.44197913160314783, 0.4651208370923996, 0.47352377680363134, 0.49371158512076363, 0.5089370919740759, 0.5240472282748669, 0.5421307176584378, 0.5650365619221702, 0.5739631067262962, 0.6066901299636811, 0.6111482823034748, 0.6238288091844879, 0.6423782183555886, 0.6619014510069974, 0.6740085381316021, 0.7017845239024609, 0.7077394222142175, 0.7239964379114099, 0.7423625511582941, 0.7639781560865231, 0.7737314097466879, 0.794811462983489, 0.8089511890430003, 0.8241094533004798, 0.8420799614395946, 0.8603723467094824, 0.8741393369855359, 0.8987088390858844, 0.9089321085484698, 0.9243238446651958, 0.9421127635287121, 0.958614515082445, 0.9740298031829298, 0.991990412643645, 1.0086945747607388, 1.0237381510669366, 1.0419851390761323, 1.0601396257989109, 1.073948941368144, 1.0925710545270704, 1.1099425229476765, 1.1256827602046542, 1.1426429221755825, 1.1619210776407272, 1.1736373383319005, 1.1922164434799924, 1.209782471822109, 1.2240443952032365, 1.242693132313434, 1.262188034306746, 1.2740616495721042, 1.2938460021396168, 1.308667711855378, 1.3240628613275476, 1.3566205833340064, 1.365888802567497, 1.373590302595403]
27	蚯蚓	True	inanimate	animate	right	1.343	[0.0, 0.0, 0.0, 0.0, -1.0, -1.0, -1.0, -1.0, -1.0, -1.0, -1.0, -1.0, -1.0, -1.0, -1.0, -1.0, -1.0, -1.0, -1.0, -1.0, -1.0, -1.0, -1.0, -1.0, -1.0, -5.0, -13.0, -17.0, -23.0, -28.0, -34.0, -43.0, -50.0, -50.0, -55.0, -60.0, -64.0, -68.0, -73.0, -80.0, -92.0, -111.0, -164.0, -236.0, -369.0, -455.0, -511.0, -577.0, -591.0, -633.0, -655.0, -666.0, -685.0, -708.0, -726.0, -749.0, -753.0, -755.0, -758.0, -758.0, -758.0, -751.0, -717.0, -613.0, -341.0, -112.0, 102.0, 411.0, 411.0, 473.0, 602.0, 653.0, 662.0, 667.0, 667.0, 667.0, 667.0, 667.0, 667.0, 667.0]	[-490.0, -490.0, -490.0, -490.0, -491.0, -491.0, -491.0, -491.0, -491.0, -491.0, -491.0, -491.0, -491.0, -491.0, -491.0, -491.0, -491.0, -491.0, -491.0, -491.0, -491.0, -491.0, -491.0, -491.0, -491.0, -489.0, -470.0, -462.0, -446.0, -434.0, -421.0, -399.0, -378.0, -378.0, -360.0, -345.0, -331.0, -320.0, -306.0, -285.0, -263.0, -241.0, -186.0, -112.0, 0.0, 74.0, 120.0, 150.0, 159.0, 188.0, 200.0, 207.0, 221.0, 238.0, 249.0, 268.0, 273.0, 275.0, 279.0, 279.0, 280.0, 285.0, 297.0, 318.0, 360.0, 397.0, 429.0, 509.0, 509.0, 526.0, 540.0, 540.0, 539.0, 537.0, 537.0, 537.0, 537.0, 537.0, 537.0, 537.0]	[0.010268530284520239, 0.01766624383162707, 0.026307434076443315, 0.06140740541741252, 0.06987485708668828, 0.07613285921979696, 0.09479081234894693, 0.12013104470679536, 0.12639143614796922, 0.1534188783261925, 0.16164978611050174, 0.17655000247759745, 0.19505708635551855, 0.21753899479517713, 0.22633958765072748, 0.2565994547912851, 0.26173993217526004, 0.2764455886790529, 0.29368393716868013, 0.31661947740940377, 0.32630651246290654, 0.35586869466351345, 0.36136484117014334, 0.3765357347438112, 0.3948871706961654, 0.417795404267963, 0.4264570745290257, 0.44508840364869684, 0.4613129926729016, 0.47914014087291434, 0.4947796848719008, 0.519676866766531, 0.5262987300520763, 0.5456683628144674, 0.5619363011792302, 0.576178768533282, 0.5947879109880887, 0.6117135983076878, 0.6266964173410088, 0.6444641735870391, 0.6612106609973125, 0.6760562640847638, 0.6944356893072836, 0.712825013208203, 0.7265810808748938, 0.7483997790259309, 0.7616772975306958, 0.7763696420006454, 0.7950661657960154, 0.8141808226937428, 0.8261448912089691, 0.844841756275855, 0.8617145370226353, 0.8768468599300832, 0.8952477891580202, 0.9143368460354395, 0.9261490213684738, 0.9447803504881449, 0.9625184106989764, 0.9766093262005597, 0.994446714350488, 1.0115693509578705, 1.026546367269475, 1.0475069538806565, 1.0616558959591202, 1.079190180345904, 1.1061944118118845, 1.1163716012961231, 1.1260603429982439, 1.1448002160759643, 1.1693717661546543, 1.1793318677227944, 1.1943450653343461, 1.2113345820107497, 1.226696963480208, 1.244679418276064, 1.2721550308633596, 1.2775105481268838, 1.2950885231257416, 1.312525186163839]
28	兔子	True	inanimate	animate	right	2.36	[0.0, -1.0, -1.0, -1.0, -1.0, -1.0, -1.0, -1.0, -1.0, -1.0, -1.0, -1.0, -1.0, -1.0, -1.0, -2.0, -2.0, -2.0, -2.0, -2.0, -2.0, -2.0, -2.0, -2.0, -2.0, -3.0, -3.0, -5.0, -6.0, -9.0, -10.0, -14.0, -16.0, -18.0, -23.0, -23.0, -24.0, -26.0, -26.0, -26.0, -27.0, -27.0, -27.0, -27.0, -27.0, -27.0, -27.0, -27.0, -28.0, -28.0, -28.0, -28.0, -28.0, -28.0, -28.0, -26.0, -21.0, -20.0, -16.0, -15.0, -15.0, -15.0, -15.0, -15.0, -15.0, -2.0, 1.0, 10.0, 16.0, 18.0, 18.0, 18.0, 17.0, 11.0, -5.0, -14.0, -31.0, -35.0, -45.0, -59.0, -74.0, -78.0, -93.0, -98.0, -113.0, -132.0, -169.0, -227.0, -283.0, -303.0, -313.0, -338.0, -352.0, -362.0, -372.0, -381.0, -390.0, -402.0, -431.0, -447.0, -497.0, -526.0, -550.0, -564.0, -574.0, -578.0, -581.0, -586.0, -588.0, -592.0, -595.0, -596.0, -602.0, -607.0, -609.0, -617.0, -622.0, -625.0, -627.0, -628.0, -629.0, -629.0, -629.0, -629.0, -610.0, -520.0, -448.0, -147.0, 85.0, 317.0, 535.0, 721.0, 862.0, 959.0, 959.0, 959.0, 959.0, 959.0, 959.0, 959.0, 959.0, 959.0, 959.0]	[-490.0, -490.0, -490.0, -490.0, -490.0, -490.0, -490.0, -490.0, -490.0, -490.0, -490.0, -490.0, -490.0, -490.0, -490.0, -490.0, -490.0, -488.0, -486.0, -486.0, -485.0, -485.0, -484.0, -482.0, -481.0, -478.0, -476.0, -473.0, -466.0, -458.0, -455.0, -444.0, -435.0, -427.0, -413.0, -411.0, -406.0, -398.0, -397.0, -395.0, -391.0, -389.0, -389.0, -386.0, -385.0, -384.0, -382.0, -382.0, -380.0, -377.0, -374.0, -373.0, -371.0, -370.0, -369.0, -368.0, -367.0, -367.0, -369.0, -371.0, -371.0, -371.0, -371.0, -371.0, -371.0, -372.0, -373.0, -373.0, -373.0, -369.0, -366.0, -365.0, -360.0, -351.0, -332.0, -322.0, -303.0, -298.0, -287.0, -269.0, -249.0, -243.0, -223.0, -215.0, -184.0, -143.0, -91.0, -25.0, 40.0, 59.0, 67.0, 91.0, 104.0, 117.0, 128.0, 139.0, 149.0, 160.0, 181.0, 192.0, 227.0, 243.0, 257.0, 263.0, 268.0, 269.0, 272.0, 275.0, 277.0, 279.0, 282.0, 283.0, 287.0, 289.0, 290.0, 294.0, 297.0, 299.0, 300.0, 301.0, 301.0, 301.0, 301.0, 301.0, 310.0, 337.0, 347.0, 427.0, 499.0, 540.0, 540.0, 540.0, 540.0, 540.0, 540.0, 540.0, 540.0, 540.0, 540.0, 540.0, 540.0, 540.0, 540.0]	[0.014900762471370399, 0.036233743536286056, 0.04177255666581914, 0.05538765370147303, 0.07233143172925338, 0.08777197846211493, 0.10592134518083185, 0.12258864333853126, 0.13758443295955658, 0.16176515660481527, 0.17212734860368073, 0.18751396471634507, 0.20604528323747218, 0.2225569334696047, 0.23751278716372326, 0.2559618443483487, 0.2727018464356661, 0.28799015865661204, 0.30554560566088185, 0.32805482076946646, 0.3371366721112281, 0.35721354716224596, 0.3733319815946743, 0.3876195049379021, 0.4106560798245482, 0.4226498443749733, 0.4377664659405127, 0.45579602470388636, 0.47291251725982875, 0.48774173634592444, 0.5068628785666078, 0.5226666037924588, 0.5373063829611056, 0.5635921081993729, 0.5721971171442419, 0.5876786238513887, 0.60662397951819, 0.6223041421035305, 0.6373275797814131, 0.6558814262971282, 0.6722312845522538, 0.6877329299459234, 0.7061184992198832, 0.7225332108209841, 0.7376559763797559, 0.7557831564336084, 0.7725572918425314, 0.7875875561730936, 0.8062199092819355, 0.8224673676304519, 0.8376191465649754, 0.8557749986066483, 0.8728921738220379, 0.8877070568851195, 0.9055963277351111, 0.9225366924074478, 0.9374096021056175, 0.9615667737671174, 0.9722600589739159, 0.9877453203662299, 1.0056110392324626, 1.0226466358290054, 1.037395300285425, 1.0619753836654127, 1.0722638477454893, 1.0878723304485902, 1.105602881347295, 1.122542904689908, 1.1373966997489333, 1.161915343196597, 1.1722591032157652, 1.187827308604028, 1.205645582114812, 1.2288767169229686, 1.2374056085245684, 1.2620116332545877, 1.2722024760441855, 1.287837241368834, 1.305654490890447, 1.328478415205609, 1.337081034842413, 1.3617747821845114, 1.3721748621901497, 1.387733168900013, 1.4061900767846964, 1.4224255884764716, 1.4375428927014582, 1.4557827127282508, 1.4720550883794203, 1.4876250004163012, 1.5066304306965321, 1.5225297292345203, 1.5373476842651144, 1.5557359842350706, 1.572776700835675, 1.5878264211351052, 1.6054119054460898, 1.6279682245803997, 1.6371302892221138, 1.6571074950043112, 1.6727504523005337, 1.6877499966067262, 1.7085563006112352, 1.7227185547235422, 1.7373016725759953, 1.7571703344001435, 1.7732713608420454, 1.787672548147384, 1.8126496020122431, 1.8225953675573692, 1.8370911041856743, 1.8620452887262218, 1.8720197262591682, 1.8877568915486336, 1.9065926792100072, 1.9225073377601802, 1.9373498688219115, 1.9559532086132094, 1.9720371683943085, 1.987852498947177, 2.0061988148954697, 2.0222967693116516, 2.0371894763666205, 2.061620397202205, 2.0719508452457376, 2.0875248532975093, 2.1066937821451575, 2.122471224691253, 2.1372888384503312, 2.1559754635673016, 2.1727714443113655, 2.187838572601322, 2.2062241418170743, 2.2224924215115607, 2.2373588458867744, 2.2556314338580705, 2.272731542470865, 2.287865230697207, 2.306205743981991, 2.3223927863291465, 2.3373974506394006, 2.355717142636422, 2.3721444835537113]
29	钥匙	False	animate	inanimate	right	1.282	[0.0, 0.0, 0.0, 0.0, 0.0, 0.0, 0.0, 0.0, 0.0, 0.0, 0.0, 0.0, 1.0, 5.0, 14.0, 26.0, 43.0, 60.0, 80.0, 90.0, 90.0, 90.0, 90.0, 93.0, 112.0, 128.0, 145.0, 149.0, 150.0, 151.0, 151.0, 149.0, 144.0, 143.0, 135.0, 130.0, 125.0, 103.0, 100.0, 100.0, 88.0, 80.0, 73.0, 47.0, 27.0, 9.0, -20.0, -60.0, -131.0, -200.0, -278.0, -303.0, -389.0, -455.0, -482.0, -545.0, -559.0, -560.0, -560.0, -560.0, -540.0, -341.0, -254.0, -163.0, 34.0, 420.0, 501.0, 690.0, 736.0, 771.0, 808.0, 809.0, 809.0, 809.0, 809.0]	[-490.0, -490.0, -490.0, -490.0, -490.0, -490.0, -490.0, -490.0, -490.0, -490.0, -490.0, -490.0, -490.0, -491.0, -499.0, -506.0, -512.0, -517.0, -521.0, -524.0, -524.0, -524.0, -524.0, -524.0, -524.0, -523.0, -521.0, -517.0, -513.0, -512.0, -505.0, -499.0, -486.0, -479.0, -459.0, -448.0, -440.0, -390.0, -381.0, -381.0, -353.0, -329.0, -317.0, -272.0, -233.0, -199.0, -151.0, -101.0, -20.0, 61.0, 135.0, 158.0, 222.0, 270.0, 289.0, 330.0, 337.0, 337.0, 337.0, 337.0, 337.0, 322.0, 322.0, 322.0, 341.0, 426.0, 450.0, 504.0, 520.0, 529.0, 537.0, 537.0, 537.0, 537.0, 537.0]	[0.00902430253336206, 0.014269569190219045, 0.018224255181849003, 0.034192844352219254, 0.05181860597804189, 0.0663013719022274, 0.08386671758489683, 0.10066781827481464, 0.11610665841726586, 0.1342215504264459, 0.15059154742630199, 0.16627205139957368, 0.1844521380844526, 0.2011672228691168, 0.21550662885420024, 0.2340365819982253, 0.25096363469492644, 0.26552490721223876, 0.28384869516594335, 0.30091432912740856, 0.3159486894146539, 0.3341140987467952, 0.35129885794594884, 0.3660051971091889, 0.3845375396194868, 0.4008368806098588, 0.4156780463526957, 0.4382265147869475, 0.45046501519391313, 0.4662318764603697, 0.484460091101937, 0.5014762317296118, 0.5154828379163519, 0.5365833711111918, 0.5509203877882101, 0.5664674305007793, 0.5844597839168273, 0.64794126607012, 0.6519188213860616, 0.6707791850785725, 0.6844417274114676, 0.6995443543419242, 0.717886574275326, 0.7341620219522156, 0.7493796781636775, 0.7676812794525176, 0.7838874364970252, 0.8002983934129588, 0.8177381284767762, 0.834416349302046, 0.8488328965613618, 0.867362508433871, 0.8843284730683081, 0.899135846819263, 0.9178764025564305, 0.93394739163341, 0.9495425623608753, 0.9673123665852472, 0.9837332221795805, 1.0020945567521267, 1.0184212044114247, 1.0368992749718018, 1.049008410074748, 1.0683814561343752, 1.0844701945898123, 1.1001984851900488, 1.1178754467982799, 1.1364979012869298, 1.1489705562125891, 1.1675708240363747, 1.1844896847032942, 1.2013122894568369, 1.2171750653069466, 1.2342758565791883, 1.2495433473959565]
30	电脑	False	animate	inanimate	right	1.077	[0.0, 0.0, 0.0, 0.0, 0.0, 0.0, 0.0, 0.0, 0.0, 0.0, 0.0, 0.0, 0.0, 3.0, 9.0, 15.0, 24.0, 32.0, 43.0, 54.0, 69.0, 72.0, 76.0, 76.0, 76.0, 76.0, 76.0, 76.0, 76.0, 76.0, 76.0, 76.0, 76.0, 76.0, 75.0, 75.0, 75.0, 75.0, 74.0, 67.0, 59.0, 45.0, 40.0, 39.0, 50.0, 65.0, 125.0, 205.0, 205.0, 298.0, 365.0, 433.0, 514.0, 538.0, 580.0, 635.0, 655.0, 663.0, 672.0, 672.0, 672.0, 673.0, 673.0, 673.0, 673.0, 673.0]	[-490.0, -490.0, -490.0, -490.0, -490.0, -490.0, -490.0, -490.0, -490.0, -490.0, -490.0, -490.0, -490.0, -494.0, -501.0, -512.0, -525.0, -539.0, -539.0, -539.0, -539.0, -539.0, -539.0, -539.0, -539.0, -539.0, -539.0, -539.0, -539.0, -539.0, -539.0, -539.0, -539.0, -539.0, -530.0, -528.0, -528.0, -495.0, -454.0, -392.0, -327.0, -223.0, -189.0, -112.0, -51.0, -12.0, 94.0, 206.0, 206.0, 301.0, 355.0, 403.0, 455.0, 471.0, 493.0, 521.0, 530.0, 535.0, 539.0, 539.0, 539.0, 539.0, 539.0, 539.0, 539.0, 539.0]	[0.009504967951215804, 0.016275652509648353, 0.020705474191345274, 0.03627606888767332, 0.052748124464415014, 0.06688682659296319, 0.08529594779247418, 0.10290020547108725, 0.11723995278589427, 0.1402942769927904, 0.15222284686751664, 0.16693055134965107, 0.1861882267985493, 0.2018789707799442, 0.21734853088855743, 0.23517909238580614, 0.25244952621869743, 0.2670101161347702, 0.28545302932616323, 0.30238144734175876, 0.31746837293030694, 0.33512929192511365, 0.35783648025244474, 0.36673981440253556, 0.3852527008857578, 0.40287777985213324, 0.4172253778669983, 0.43527985393302515, 0.4522966772201471, 0.46722215227782726, 0.48541520960861817, 0.5072233264800161, 0.5170998013927601, 0.535543397301808, 0.5522113780607469, 0.5667746986146085, 0.5852609611465596, 0.6029621574562043, 0.6172182781156152, 0.6357765619759448, 0.6596183417714201, 0.6669887486496009, 0.6856446537422016, 0.7023337972350419, 0.7175698854262009, 0.7350891511305235, 0.7588162429747172, 0.766753262898419, 0.7867171567049809, 0.80294003902236, 0.817213567730505, 0.8402515079360455, 0.8520118005690165, 0.8669185023172759, 0.8910490499110892, 0.9023512734565884, 0.9175900923437439, 0.9349462008103728, 0.9521644106716849, 0.967468424118124, 0.9853484790073708, 1.0016795639530756, 1.0173795238952152, 1.036408506159205, 1.0523887006565928, 1.0668957012239844]
31	工人	True	inanimate	animate	right	1.472	[0.0, 0.0, 0.0, 0.0, 0.0, 0.0, 0.0, 0.0, 0.0, 0.0, 0.0, 5.0, 5.0, 23.0, 29.0, 38.0, 41.0, 41.0, 43.0, 43.0, 43.0, 43.0, 43.0, 45.0, 45.0, 47.0, 54.0, 60.0, 66.0, 79.0, 82.0, 85.0, 89.0, 90.0, 104.0, 125.0, 154.0, 221.0, 249.0, 307.0, 372.0, 482.0, 515.0, 631.0, 631.0, 667.0, 704.0, 719.0, 720.0, 722.0, 722.0, 722.0, 722.0, 722.0, 722.0, 722.0, 722.0, 722.0, 722.0, 722.0, 722.0, 722.0, 704.0, 654.0, 565.0, 446.0, 325.0, 174.0, 174.0, 153.0, 150.0, 166.0, 187.0, 313.0, 363.0, 469.0, 666.0, 666.0, 739.0, 779.0, 803.0, 803.0, 803.0, 803.0, 803.0, 803.0, 803.0, 803.0]	[-490.0, -490.0, -490.0, -490.0, -490.0, -490.0, -490.0, -491.0, -491.0, -492.0, -492.0, -490.0, -490.0, -483.0, -481.0, -477.0, -473.0, -473.0, -473.0, -473.0, -473.0, -473.0, -473.0, -473.0, -473.0, -470.0, -460.0, -444.0, -420.0, -381.0, -370.0, -351.0, -328.0, -317.0, -268.0, -217.0, -160.0, -52.0, -17.0, 48.0, 108.0, 193.0, 219.0, 305.0, 305.0, 331.0, 357.0, 373.0, 374.0, 377.0, 377.0, 377.0, 377.0, 377.0, 377.0, 377.0, 378.0, 380.0, 383.0, 383.0, 383.0, 384.0, 384.0, 384.0, 384.0, 384.0, 375.0, 347.0, 347.0, 342.0, 341.0, 340.0, 342.0, 360.0, 368.0, 382.0, 436.0, 436.0, 456.0, 465.0, 474.0, 474.0, 474.0, 474.0, 474.0, 474.0, 474.0, 474.0]	[0.001750561292283237, 0.009500530664809048, 0.018163566244766116, 0.0368628206779249, 0.053356380201876163, 0.06796202604891732, 0.09218780568335205, 0.10299680277239531, 0.1184704588376917, 0.1363392497296445, 0.16087120515294373, 0.16777057229774073, 0.19205028255237266, 0.20285245298873633, 0.21849575167289004, 0.23691135825356469, 0.253121952584479, 0.27096138877095655, 0.2877208468853496, 0.3036215107422322, 0.318332287191879, 0.336560501891654, 0.35322472802363336, 0.3686362614389509, 0.3864105030079372, 0.4044765844591893, 0.41853131854441017, 0.4368271172279492, 0.4534019140410237, 0.4737088476540521, 0.491892006364651, 0.5035352217382751, 0.5183337208000012, 0.536733967368491, 0.5531449242844246, 0.5678959781071171, 0.5920944510144182, 0.6041872021742165, 0.6184337655431591, 0.6379887422081083, 0.6549041895195842, 0.6682779640541412, 0.686340632091742, 0.7022802079445682, 0.7184058103593998, 0.7361585479229689, 0.7598149838158861, 0.7680738809285685, 0.7865157701889984, 0.803568433446344, 0.8182730659027584, 0.8364480325835757, 0.8597484580241144, 0.8677762725274079, 0.8861010845284909, 0.9039883073419333, 0.9183379533351399, 0.9382537191268057, 0.9551596091478132, 0.9679015759611502, 0.9861721159541048, 1.0040159894851968, 1.0184294647770002, 1.0379148094216362, 1.0551876326208003, 1.0684320417931303, 1.0863107313052751, 1.1028872348251753, 1.118416869547218, 1.1368020974914543, 1.1532690330641344, 1.1687505397712812, 1.193355199182406, 1.2030732955317944, 1.2184517196728848, 1.2362884252215736, 1.2525041395565495, 1.2681825955514796, 1.286351076909341, 1.319342292030342, 1.325157585029956, 1.3466492860461585, 1.353163970692549, 1.3683184802648611, 1.3869457134278491, 1.4172147965873592, 1.421676020952873, 1.446580370888114]
32	钢笔	False	animate	inanimate	right	1.095	[0.0, 0.0, 0.0, 0.0, 0.0, 0.0, 0.0, 0.0, 3.0, 5.0, 15.0, 21.0, 26.0, 31.0, 34.0, 36.0, 40.0, 44.0, 44.0, 54.0, 54.0, 62.0, 82.0, 102.0, 139.0, 184.0, 239.0, 299.0, 362.0, 424.0, 491.0, 570.0, 611.0, 627.0, 646.0, 644.0, 631.0, 602.0, 594.0, 578.0, 539.0, 512.0, 354.0, 195.0, 100.0, -104.0, -363.0, -496.0, -602.0, -702.0, -714.0, -718.0, -696.0, -658.0, -529.0, -276.0, -164.0, 76.0, 428.0, 620.0, 768.0, 887.0, 896.0, 899.0, 899.0, 899.0]	[-490.0, -490.0, -490.0, -490.0, -490.0, -490.0, -490.0, -490.0, -489.0, -487.0, -482.0, -477.0, -473.0, -468.0, -464.0, -459.0, -451.0, -443.0, -443.0, -416.0, -416.0, -396.0, -349.0, -300.0, -236.0, -164.0, -75.0, 7.0, 104.0, 208.0, 324.0, 528.0, 540.0, 540.0, 540.0, 540.0, 540.0, 540.0, 540.0, 540.0, 519.0, 506.0, 448.0, 404.0, 377.0, 330.0, 281.0, 273.0, 273.0, 273.0, 273.0, 273.0, 272.0, 272.0, 290.0, 322.0, 343.0, 382.0, 472.0, 526.0, 540.0, 540.0, 540.0, 540.0, 540.0, 540.0]	[0.003733706893399358, 0.008086728630587459, 0.023123136954382062, 0.04132336232578382, 0.05766844196477905, 0.07239833305357024, 0.09630599012598395, 0.10744061914738268, 0.12306548579363152, 0.14190400415100157, 0.15776575601194054, 0.17251646844670177, 0.191308906825725, 0.20806222094688565, 0.22307610127609223, 0.24138930789195, 0.25765485689044, 0.2738132272497751, 0.2908832985558547, 0.30740109272301197, 0.3228945461451076, 0.34112549148267135, 0.3579091842402704, 0.3723946808022447, 0.3906836527748965, 0.408024059899617, 0.4228997002937831, 0.4406708698370494, 0.45764673314988613, 0.47282069869106635, 0.4912021719501354, 0.5071908998070285, 0.5229092917288654, 0.5420065406360663, 0.5583188522723503, 0.5725336716859601, 0.5976400907966308, 0.607370475132484, 0.6229765685275197, 0.6418430761550553, 0.6581321771373041, 0.6724927457980812, 0.6911629869136959, 0.7072623067069799, 0.7228660106775351, 0.7418403796618804, 0.7577075928566046, 0.7725948385777883, 0.7909589038463309, 0.807309786148835, 0.8228496608207934, 0.8414840619661845, 0.857548565720208, 0.8724600460845977, 0.8978600117843598, 0.9072272176272236, 0.9228343349532224, 0.9418636585469358, 0.9577684184187092, 0.9726126561290585, 0.9910412333556451, 1.0075450329459272, 1.0231207476463169, 1.0414779862039723, 1.0576988206012174, 1.0724317837157287]
33	松鼠	True	inanimate	animate	right	0.885	[0.0, 0.0, 0.0, 0.0, -1.0, -1.0, -2.0, -2.0, -2.0, -3.0, -3.0, 0.0, 11.0, 26.0, 56.0, 56.0, 62.0, 62.0, 62.0, 62.0, 62.0, 62.0, 63.0, 66.0, 68.0, 64.0, 63.0, 62.0, 61.0, 54.0, 50.0, 44.0, 28.0, 19.0, 14.0, 14.0, 28.0, 57.0, 164.0, 207.0, 379.0, 504.0, 630.0, 733.0, 809.0, 855.0, 888.0, 906.0, 916.0, 918.0, 920.0, 920.0, 920.0]	[-490.0, -490.0, -490.0, -490.0, -491.0, -491.0, -491.0, -491.0, -491.0, -491.0, -493.0, -494.0, -496.0, -497.0, -510.0, -510.0, -538.0, -539.0, -539.0, -539.0, -539.0, -539.0, -539.0, -539.0, -539.0, -539.0, -539.0, -539.0, -527.0, -505.0, -480.0, -433.0, -379.0, -326.0, -238.0, -146.0, -51.0, 44.0, 201.0, 246.0, 378.0, 446.0, 498.0, 540.0, 540.0, 540.0, 540.0, 540.0, 538.0, 536.0, 535.0, 535.0, 535.0]	[0.006858612003270537, 0.013008411508053541, 0.020033389213494956, 0.039439544605556875, 0.05501423531677574, 0.0702329155174084, 0.08870859671151266, 0.10615447582677007, 0.12335357099073008, 0.1488863152335398, 0.15465552831301466, 0.16996705112978816, 0.18867961753858253, 0.21988292958121747, 0.22823057329514995, 0.2482832137029618, 0.25514298619236797, 0.27039853035239503, 0.289384504663758, 0.31277538335416466, 0.3201386222499423, 0.3389778232667595, 0.3567128115100786, 0.37050915643339977, 0.38879778707632795, 0.4083445717697032, 0.4202635842957534, 0.44439720397349447, 0.4552778810611926, 0.4701333827688359, 0.488787239883095, 0.509443698625546, 0.5202683971147053, 0.5382825958658941, 0.5551069072680548, 0.5703904407564551, 0.588622068753466, 0.6076602670364082, 0.6204783511348069, 0.6412914817919955, 0.6552257253206335, 0.6701641710242257, 0.6886562362196855, 0.70843273808714, 0.7203944172943011, 0.7384591333684511, 0.755271156784147, 0.7731095689814538, 0.7887648143223487, 0.8052327738841996, 0.8203203821321949, 0.8391445645247586, 0.8552899642381817]
