trialIndex	stimulus	left_option	right_option	response	response_time	xTrajectory	yTrajectory	tTrajectory
0	inanimate/n14.jpg	animate	inanimate	right	2.267	[0.0, 0.0, 0.0, 0.0, 0.0, 0.0, 0.0, 0.0, 0.0, 0.0, 0.0, 0.0, 0.0, 0.0, 0.0, 0.0, 0.0, 0.0, 0.0, 0.0, 0.0, 0.0, 0.0, 0.0, 0.0, 0.0, 0.0, 0.0, 0.0, 0.0, 0.0, 0.0, 0.0, 0.0, 0.0, 0.0, 0.0, 0.0, 0.0, 0.0, 0.0, 0.0, 0.0, 0.0, 0.0, 0.0, 0.0, 0.0, 0.0, 1.0, 1.0, 1.0, -1.0, -2.0, -2.0, -2.0, 0.0, 6.0, 12.0, 17.0, 17.0, 17.0, 12.0, -6.0, -15.0, -22.0, -26.0, -28.0, -31.0, -33.0, -40.0, -42.0, -42.0, -43.0, -43.0, -43.0, -43.0, -43.0, -43.0, -26.0, 0.0, 45.0, 77.0, 125.0, 208.0, 317.0, 429.0, 534.0, 635.0, 717.0, 761.0, 790.0, 810.0, 819.0, 821.0, 821.0, 821.0, 821.0, 821.0, 821.0, 821.0, 821.0, 821.0, 821.0, 821.0, 821.0, 821.0, 821.0, 821.0, 821.0, 821.0, 821.0, 821.0, 821.0, 821.0, 821.0, 821.0, 821.0, 821.0, 821.0, 821.0, 821.0, 821.0, 821.0, 821.0, 821.0, 821.0, 821.0, 821.0, 821.0, 821.0, 821.0, 821.0, 821.0, 821.0, 821.0]	[-490.0, -490.0, -490.0, -490.0, -490.0, -490.0, -490.0, -490.0, -490.0, -490.0, -490.0, -490.0, -490.0, -490.0, -490.0, -490.0, -490.0, -490.0, -490.0, -490.0, -490.0, -490.0, -490.0, -490.0, -490.0, -490.0, -490.0, -490.0, -490.0, -490.0, -490.0, -490.0, -490.0, -490.0, -490.0, -490.0, -490.0, -490.0, -490.0, -490.0, -490.0, -490.0, -490.0, -490.0, -490.0, -490.0, -490.0, -490.0, -490.0, -485.0, -478.0, -474.0, -468.0, -462.0, -453.0, -448.0, -427.0, -401.0, -370.0, -335.0, -275.0, -199.0, -131.0, -59.0, 11.0, 63.0, 88.0, 102.0, 117.0, 134.0, 156.0, 163.0, 166.0, 168.0, 169.0, 170.0, 170.0, 170.0, 172.0, 176.0, 180.0, 187.0, 192.0, 203.0, 227.0, 259.0, 300.0, 345.0, 385.0, 413.0, 424.0, 433.0, 438.0, 442.0, 442.0, 442.0, 442.0, 442.0, 442.0, 442.0, 442.0, 442.0, 442.0, 442.0, 442.0, 442.0, 442.0, 442.0, 442.0, 442.0, 442.0, 442.0, 442.0, 442.0, 442.0, 442.0, 442.0, 442.0, 442.0, 442.0, 442.0, 442.0, 442.0, 442.0, 442.0, 442.0, 442.0, 442.0, 442.0, 442.0, 442.0, 442.0, 442.0, 442.0, 442.0, 442.0]	[0.012696833902737126, 0.021532236685743555, 0.02782300251419656, 0.039376780710881576, 0.0566465200681705, 0.07297486322931945, 0.09082077257335186, 0.10662243902334012, 0.12539028859464452, 0.13956721033900976, 0.15667686457163654, 0.17342299921438098, 0.19207377161365002, 0.20670227680238895, 0.2234347581397742, 0.23962417879374698, 0.2566894597548526, 0.2734195517550688, 0.2926645847619511, 0.3063025418086909, 0.32339649472851306, 0.34006617081467994, 0.35915282534551807, 0.3729276568919886, 0.39004994044080377, 0.4060355853289366, 0.4233838312793523, 0.4393967828073073, 0.45673888476449065, 0.47278870025184005, 0.489958087739069, 0.5065967025293503, 0.5234114451159257, 0.5421031774312723, 0.5566224560898263, 0.5748960555938538, 0.5900768374558538, 0.6075527419161517, 0.6234472509240732, 0.6399049592728261, 0.6566555312601849, 0.6729958210780751, 0.6897330810606945, 0.7092600550677162, 0.7231881451152731, 0.7422819676285144, 0.756317918858258, 0.773460682365112, 0.7898787960875779, 0.8080172277695965, 0.8231532950012479, 0.8423703387088608, 0.8562543968146201, 0.8758540747221559, 0.889808788720984, 0.9089797524793539, 0.9233525993186049, 0.9413012498698663, 0.9564591624366585, 0.9741187040053774, 0.9898346958798356, 1.0071228672168218, 1.0229897282843012, 1.0402751689543948, 1.0565086215501651, 1.0733250708144624, 1.089872891025152, 1.1065855750639457, 1.1231729899300262, 1.1399853431794327, 1.1565376007347368, 1.1734400658751838, 1.189876611577347, 1.2067299247719347, 1.2232596543617547, 1.2400525516131893, 1.2565433692652732, 1.2734192104253452, 1.2898509774531703, 1.3067305732984096, 1.3229585645894986, 1.340017701528268, 1.3565337778127287, 1.3734550162625965, 1.3897253328177612, 1.4066807045601308, 1.422863298561424, 1.4400606753479224, 1.4562193760357331, 1.4733843262074515, 1.4895474642398767, 1.5067059290595353, 1.5229127577040344, 1.540054155891994, 1.5562562058621552, 1.5734232040122151, 1.5895877073926385, 1.606789180164924, 1.6229065795778297, 1.6400967883819249, 1.6562821130210068, 1.6735344444168732, 1.6895716305880342, 1.7067707140522543, 1.7229550147021655, 1.7399561250640545, 1.756492681306554, 1.7733831997902598, 1.789679798996076, 1.8067457626166288, 1.8252876497863326, 1.8400902347930241, 1.8577105230651796, 1.8735251601610798, 1.8902719774923753, 1.9067225178296212, 1.923396972590126, 1.9398263502807822, 1.9563284319010563, 1.9730349719466176, 1.9924848047085106, 2.0064705800032243, 2.024700488895178, 2.039794572192477, 2.057992395799374, 2.073148943018168, 2.0906446447770577, 2.1065883057308383, 2.1240642101911362, 2.1398211620398797, 2.156975872203475, 2.1729799491004087, 2.189977646106854, 2.2065473116526846, 2.223405062191887, 2.239796210604254]
1	inanimate/n63.jpg	inanimate	animate	left	2.701	[0.0, 0.0, 0.0, 0.0, 0.0, 0.0, 0.0, 0.0, 0.0, 0.0, 0.0, 0.0, 0.0, 0.0, 0.0, 0.0, 0.0, 0.0, 0.0, 0.0, 0.0, 0.0, 0.0, 0.0, 0.0, 0.0, 0.0, 0.0, 0.0, 0.0, 0.0, 0.0, 0.0, 0.0, 0.0, 0.0, 0.0, 0.0, 0.0, 0.0, 0.0, 0.0, -1.0, -4.0, -6.0, -9.0, -10.0, -13.0, -14.0, -15.0, -15.0, -16.0, -16.0, -16.0, -17.0, -19.0, -19.0, -22.0, -23.0, -25.0, -28.0, -29.0, -33.0, -34.0, -37.0, -37.0, -37.0, -38.0, -38.0, -40.0, -41.0, -43.0, -43.0, -43.0, -43.0, -43.0, -43.0, -43.0, -43.0, -43.0, -43.0, -43.0, -43.0, -43.0, -43.0, -43.0, -43.0, -43.0, -43.0, -44.0, -45.0, -47.0, -49.0, -50.0, -51.0, -52.0, -53.0, -54.0, -55.0, -57.0, -59.0, -62.0, -64.0, -66.0, -69.0, -73.0, -76.0, -78.0, -78.0, -78.0, -78.0, -78.0, -52.0, 48.0, 177.0, 321.0, 471.0, 598.0, 702.0, 779.0, 830.0, 853.0, 861.0, 862.0, 862.0, 862.0, 862.0, 861.0, 861.0, 861.0, 861.0, 861.0, 852.0, 789.0, 657.0, 354.0, 128.0, -116.0, -356.0, -569.0, -728.0, -836.0, -891.0, -916.0, -926.0, -928.0, -928.0, -929.0, -929.0, -929.0, -929.0, -929.0, -929.0, -929.0, -929.0, -929.0, -923.0, -909.0, -894.0, -883.0, -878.0, -876.0]	[-490.0, -490.0, -490.0, -490.0, -490.0, -490.0, -490.0, -490.0, -490.0, -490.0, -490.0, -490.0, -490.0, -490.0, -490.0, -490.0, -490.0, -490.0, -490.0, -490.0, -490.0, -490.0, -490.0, -490.0, -490.0, -490.0, -490.0, -490.0, -490.0, -490.0, -490.0, -487.0, -481.0, -480.0, -477.0, -474.0, -471.0, -468.0, -457.0, -432.0, -411.0, -392.0, -376.0, -363.0, -347.0, -332.0, -317.0, -301.0, -281.0, -277.0, -266.0, -260.0, -249.0, -242.0, -236.0, -230.0, -224.0, -214.0, -203.0, -186.0, -171.0, -157.0, -139.0, -130.0, -125.0, -125.0, -121.0, -120.0, -118.0, -112.0, -110.0, -108.0, -108.0, -108.0, -108.0, -108.0, -108.0, -108.0, -108.0, -108.0, -108.0, -108.0, -108.0, -108.0, -108.0, -108.0, -108.0, -108.0, -108.0, -101.0, -90.0, -77.0, -69.0, -62.0, -55.0, -47.0, -41.0, -34.0, -31.0, -27.0, -22.0, -17.0, -15.0, -13.0, -11.0, -10.0, -7.0, -7.0, -7.0, -7.0, -7.0, -4.0, 15.0, 61.0, 116.0, 193.0, 269.0, 331.0, 388.0, 433.0, 465.0, 481.0, 491.0, 500.0, 505.0, 509.0, 511.0, 512.0, 512.0, 512.0, 512.0, 512.0, 513.0, 498.0, 458.0, 394.0, 369.0, 356.0, 351.0, 351.0, 351.0, 351.0, 351.0, 353.0, 357.0, 359.0, 360.0, 360.0, 360.0, 360.0, 360.0, 360.0, 360.0, 360.0, 360.0, 364.0, 376.0, 389.0, 401.0, 410.0, 414.0, 414.0]	[0.005782657623058185, 0.010671569121768698, 0.027071250864537433, 0.043238826212473214, 0.06047613895498216, 0.07655189576325938, 0.0938404084299691, 0.11046912457095459, 0.12726099783321843, 0.1434681678074412, 0.1604955607908778, 0.17697784511256032, 0.19389123292057775, 0.21055237567634322, 0.227622435282683, 0.24340737643069588, 0.26041019344120286, 0.2771846587420441, 0.2959712816227693, 0.31006901411456056, 0.3271680870093405, 0.34372034459374845, 0.3603633966995403, 0.37946916586952284, 0.3936863648996223, 0.41296894452534616, 0.4271103676292114, 0.4461427502101287, 0.46044323447858915, 0.4775730273395311, 0.4941065115854144, 0.5108434302674141, 0.5271676774136722, 0.5436683937150519, 0.5604872322874144, 0.5768838420335669, 0.5936193953675684, 0.6101023623486981, 0.6268433770164847, 0.64626726845745, 0.6602482651069295, 0.6794485834834632, 0.6936285772244446, 0.710530701035168, 0.7268238868855406, 0.744705294870073, 0.7602980655792635, 0.7792300962901209, 0.7937012469919864, 0.8111621327989269, 0.826924204651732, 0.8442331973055843, 0.8602925701125059, 0.8774940428847913, 0.8936527436017059, 0.910833395057125, 0.9269463571545202, 0.9440662513661664, 0.9603177946119104, 0.9770902119053062, 0.9936516854504589, 1.0117501811764669, 1.0269135550479405, 1.0437535562668927, 1.0602860165236052, 1.0772154469741508, 1.0937537098652683, 1.1104298712743912, 1.1266851692053024, 1.1438351006945595, 1.1601252145774197, 1.1771488529047929, 1.1935840332880616, 1.2105247277067974, 1.226962638727855, 1.2438647625385784, 1.260161020414671, 1.2771836347237695, 1.2935604471713305, 1.310482709610369, 1.3269407592888456, 1.3438244511198718, 1.3603360900597181, 1.3771119206794538, 1.3936157089774497, 1.4105345580901485, 1.4267359254008625, 1.4438844915712252, 1.460026125627337, 1.477287673013052, 1.4934221390576568, 1.510535547946347, 1.5266700140200555, 1.543844521511346, 1.5600206301605795, 1.5771920656552538, 1.5934651128773112, 1.6105396098282654, 1.629612269694917, 1.6437656394555233, 1.6603953795856796, 1.677088948985329, 1.696234654111322, 1.7105098797183018, 1.7296364702051505, 1.7437659466522746, 1.7626385854382534, 1.7771377254684921, 1.7961011588049587, 1.8104565976536833, 1.8294855669082608, 1.843736899230862, 1.8626760979241226, 1.8770806887187064, 1.8948037182271946, 1.9105606700468343, 1.9273392313625664, 1.9438727156084497, 1.9600727175711654, 1.9769529960758518, 1.9933243471896276, 2.0101469404180534, 2.029648997122422, 2.04373956163181, 2.0629374907002784, 2.076780930161476, 2.094315202528378, 2.110092634364264, 2.1271418726537377, 2.143451442505466, 2.1605085314658936, 2.176790453348076, 2.1938178463315126, 2.210277602658607, 2.2271650491456967, 2.2433804111205973, 2.260380156134488, 2.2769546003546566, 2.29376763626351, 2.310443797672633, 2.3270185831934214, 2.343382083636243, 2.360454191250028, 2.3768784489657264, 2.3938109514128882, 2.410191177157685, 2.427142452914268, 2.4433980921749026, 2.460524130379781, 2.476733007002622, 2.4937948746373877, 2.510042321868241, 2.527233896020334, 2.5433274021197576, 2.5605240962468088, 2.5767022529034875, 2.593776408524718, 2.6099910878110677, 2.6271632059651893, 2.6433546746266074, 2.660512456786819, 2.6766841281205416]
2	inanimate/n20.jpg	inanimate	animate	left	1.426	[0.0, 0.0, 0.0, 0.0, 0.0, 0.0, 0.0, 0.0, 0.0, 0.0, 0.0, 0.0, 0.0, 0.0, 0.0, 0.0, 0.0, 0.0, 0.0, 0.0, 0.0, 0.0, 0.0, 0.0, 0.0, 0.0, 0.0, 0.0, 0.0, -7.0, -16.0, -23.0, -28.0, -29.0, -30.0, -30.0, -30.0, -30.0, -30.0, -30.0, -31.0, -31.0, -31.0, -31.0, -31.0, -31.0, -31.0, -32.0, -32.0, -32.0, -41.0, -65.0, -90.0, -106.0, -116.0, -121.0, -124.0, -125.0, -125.0, -113.0, -109.0, -84.0, -62.0, -46.0, -36.0, -33.0, -33.0, -37.0, -52.0, -81.0, -143.0, -302.0, -451.0, -580.0, -678.0, -732.0, -771.0, -794.0, -805.0, -807.0, -807.0, -807.0, -807.0, -807.0, -807.0, -807.0]	[-490.0, -490.0, -490.0, -490.0, -490.0, -490.0, -490.0, -490.0, -490.0, -490.0, -490.0, -490.0, -490.0, -490.0, -490.0, -490.0, -490.0, -490.0, -490.0, -490.0, -490.0, -490.0, -490.0, -490.0, -490.0, -490.0, -490.0, -490.0, -490.0, -490.0, -490.0, -490.0, -490.0, -490.0, -490.0, -490.0, -490.0, -490.0, -490.0, -490.0, -490.0, -490.0, -490.0, -490.0, -490.0, -490.0, -490.0, -489.0, -474.0, -456.0, -417.0, -340.0, -284.0, -248.0, -220.0, -196.0, -169.0, -136.0, -104.0, -62.0, -51.0, -21.0, 0.0, 17.0, 31.0, 42.0, 49.0, 61.0, 76.0, 97.0, 134.0, 215.0, 294.0, 345.0, 376.0, 392.0, 400.0, 407.0, 411.0, 412.0, 412.0, 412.0, 412.0, 412.0, 412.0, 412.0]	[0.0019354942487552762, 0.008031700272113085, 0.01866080757463351, 0.035452680866001174, 0.05198650644160807, 0.06880124902818352, 0.08557639698847197, 0.10174090033979155, 0.1188894665101543, 0.13514954308629967, 0.15217045074678026, 0.16836703941226006, 0.18546542964759283, 0.20178285014117137, 0.21897408293443732, 0.23503516241908073, 0.2521117073483765, 0.26887490865192376, 0.2876523155719042, 0.30213575426023453, 0.31900374477845617, 0.3354232238198165, 0.35173279367154464, 0.3685717709013261, 0.3880912355671171, 0.4020002109464258, 0.4211203161103185, 0.4351176967320498, 0.45218673232011497, 0.46850620085024275, 0.48677706968737766, 0.5018025450699497, 0.5192535321984906, 0.535047689336352, 0.5522863674268592, 0.5685256226861384, 0.5854789464210626, 0.6019564520684071, 0.6189418611174915, 0.6353565615136176, 0.6522829199384432, 0.668786025576992, 0.6855488855508156, 0.7017140715615824, 0.7189049630251247, 0.7353319514077157, 0.7521743419347331, 0.7684054052224383, 0.7854788781551179, 0.8017147200880572, 0.8189226782124024, 0.8350069683219772, 0.8520742972614244, 0.8683306191815063, 0.8854720173694659, 0.9016460780403577, 0.9188130761904176, 0.9351072860590648, 0.9522401509457268, 0.9683575503586326, 0.9854965592094231, 1.001693147845799, 1.018889159313403, 1.0351359239139128, 1.0521537595777772, 1.0683588815445546, 1.0855234903865494, 1.1017040363803972, 1.118875130516244, 1.1350355378817767, 1.1521752294211183, 1.1685274658666458, 1.185411840386223, 1.2018125461181626, 1.218967938941205, 1.2382286732899956, 1.2520574354275595, 1.2684745251317509, 1.2855241047800519, 1.3045455647225026, 1.3187791477248538, 1.3380241807317361, 1.352130446524825, 1.3697988627536688, 1.3855588865990285, 1.4044427893823013]
3	inanimate/n33.jpg	animate	inanimate	right	1.523	[0.0, 0.0, 0.0, 0.0, 0.0, 0.0, 0.0, 0.0, 0.0, 0.0, 0.0, 0.0, 0.0, 0.0, 0.0, 0.0, 0.0, 0.0, 0.0, 0.0, 0.0, 0.0, 0.0, -2.0, -6.0, -7.0, -7.0, -7.0, -8.0, -13.0, -14.0, -14.0, -15.0, -16.0, -16.0, -16.0, -16.0, -16.0, -16.0, -16.0, -16.0, -20.0, -27.0, -34.0, -35.0, -36.0, -37.0, -49.0, -64.0, -80.0, -89.0, -95.0, -100.0, -108.0, -125.0, -164.0, -208.0, -241.0, -287.0, -334.0, -393.0, -469.0, -536.0, -602.0, -655.0, -697.0, -728.0, -750.0, -764.0, -774.0, -782.0, -783.0, -784.0, -784.0, -784.0, -784.0, -784.0, -707.0, -524.0, -258.0, 11.0, 281.0, 606.0, 754.0, 852.0, 884.0, 886.0, 886.0, 887.0, 887.0, 887.0]	[-490.0, -490.0, -490.0, -490.0, -490.0, -490.0, -490.0, -490.0, -490.0, -490.0, -490.0, -490.0, -490.0, -490.0, -490.0, -490.0, -490.0, -490.0, -490.0, -490.0, -490.0, -490.0, -490.0, -490.0, -490.0, -490.0, -490.0, -490.0, -490.0, -488.0, -486.0, -485.0, -483.0, -482.0, -480.0, -477.0, -476.0, -474.0, -472.0, -471.0, -465.0, -451.0, -428.0, -407.0, -400.0, -397.0, -393.0, -365.0, -331.0, -293.0, -273.0, -258.0, -249.0, -233.0, -205.0, -152.0, -89.0, -43.0, 21.0, 72.0, 137.0, 205.0, 263.0, 311.0, 341.0, 365.0, 387.0, 409.0, 428.0, 441.0, 453.0, 454.0, 455.0, 455.0, 455.0, 455.0, 455.0, 455.0, 455.0, 435.0, 430.0, 431.0, 477.0, 496.0, 523.0, 530.0, 531.0, 531.0, 532.0, 532.0, 532.0]	[0.005810885835671797, 0.012177427561255172, 0.025971373746870086, 0.04323053179541603, 0.06002240505767986, 0.07657261463464238, 0.0930405629624147, 0.11012905454845168, 0.1265915415424388, 0.14685203999397345, 0.15992474972154014, 0.17685008415719494, 0.19309992075432092, 0.20953680778620765, 0.22683521910221316, 0.24328166345367208, 0.2598301663529128, 0.2791229859867599, 0.2933084410324227, 0.31001532240770757, 0.3264692760712933, 0.3433618425624445, 0.3600045533676166, 0.376203190011438, 0.39330806556972675, 0.4095667767978739, 0.4266928150318563, 0.44287984634866007, 0.45999086590018123, 0.476224659854779, 0.4932827728043776, 0.5095537720189895, 0.5266323649557307, 0.5428774228785187, 0.5599502131517511, 0.5762205297069158, 0.5933656825800426, 0.6096073271764908, 0.6266760214348324, 0.6428944554063492, 0.6600153736071661, 0.6763945753627922, 0.6933731577591971, 0.7095909090421628, 0.7266773526498582, 0.7430241277616005, 0.7600283101201057, 0.7764071705460083, 0.7933632249769289, 0.8098195679776836, 0.8266991638229229, 0.843014536309056, 0.859963081398746, 0.8762221339857206, 0.8932894629251678, 0.9095881101093255, 0.9266308631049469, 0.9430680914665572, 0.9599896712461486, 0.976429288944928, 0.9933798820129596, 1.0095699853554834, 1.0266096663253848, 1.042785775003722, 1.059915567864664, 1.076439494790975, 1.093352541240165, 1.109799668280175, 1.1267253440455534, 1.1430598311999347, 1.1598721844493411, 1.1764380953100044, 1.1934098510537297, 1.209454887866741, 1.226539283466991, 1.2430150824657176, 1.259962603537133, 1.276282754697604, 1.293293763708789, 1.3094702137168497, 1.3265819159569219, 1.342967603035504, 1.3598970334860496, 1.3763745391333941, 1.3933647268277127, 1.4096777100057807, 1.426609871123219, 1.4427866624610033, 1.4600505991547834, 1.4761229426367208, 1.4932848207827192]
4	animate/a49.jpg	inanimate	animate	right	1.06	[0.0, 0.0, 0.0, 0.0, 0.0, 0.0, 0.0, 0.0, 0.0, 0.0, 0.0, 0.0, 0.0, 0.0, 0.0, 0.0, 0.0, -4.0, -13.0, -21.0, -31.0, -44.0, -63.0, -68.0, -70.0, -70.0, -70.0, -70.0, -70.0, -70.0, -70.0, -70.0, -70.0, -70.0, -71.0, -71.0, -64.0, -54.0, -43.0, -34.0, -28.0, -20.0, -14.0, -7.0, 3.0, 8.0, 11.0, 15.0, 39.0, 92.0, 164.0, 251.0, 373.0, 493.0, 614.0, 727.0, 816.0, 871.0, 907.0, 908.0, 908.0, 908.0, 908.0, 908.0]	[-490.0, -490.0, -490.0, -490.0, -490.0, -490.0, -490.0, -490.0, -490.0, -490.0, -490.0, -490.0, -490.0, -490.0, -490.0, -490.0, -490.0, -490.0, -490.0, -487.0, -484.0, -480.0, -476.0, -475.0, -475.0, -475.0, -475.0, -475.0, -475.0, -475.0, -475.0, -475.0, -475.0, -475.0, -473.0, -465.0, -451.0, -434.0, -416.0, -404.0, -396.0, -383.0, -367.0, -344.0, -305.0, -257.0, -174.0, -136.0, -87.0, -11.0, 87.0, 187.0, 270.0, 335.0, 388.0, 444.0, 495.0, 534.0, 540.0, 540.0, 540.0, 540.0, 540.0, 540.0]	[0.015947449748637155, 0.023393968847813085, 0.03244099803850986, 0.04715312979533337, 0.06627221097005531, 0.0806030738458503, 0.09703723021084443, 0.11380589284817688, 0.13303044586791657, 0.14738895671325736, 0.16393541160505265, 0.18048015984822996, 0.19756387275992893, 0.21408745835651644, 0.23019973779446445, 0.24735342396888882, 0.2635623005917296, 0.28063509086496197, 0.2968931194336619, 0.3140232536534313, 0.33025192757486366, 0.34738649911014363, 0.36358240511617623, 0.3805971687834244, 0.39692653593374416, 0.4141522433492355, 0.4302402881439775, 0.4472922571003437, 0.46371685614576563, 0.48061317729298025, 0.4968647205387242, 0.5139617454551626, 0.5301812034158502, 0.5472079137398396, 0.5637806512531824, 0.5807786896184552, 0.5971046434424352, 0.6139917485998012, 0.6302572865097318, 0.6472826315148268, 0.6637355611892417, 0.6807291622099001, 0.6968663589505013, 0.7140162904397584, 0.7305016467580572, 0.7473788532661274, 0.7637560070143081, 0.7807345894107129, 0.7970277752901893, 0.8141903360956348, 0.8302008983155247, 0.8472532086016145, 0.8636573276889976, 0.8806659473630134, 0.8970622157794423, 0.9141295447188895, 0.9303629973146599, 0.9473473823745735, 0.963730338786263, 0.9807389584602788, 0.9969679737405386, 1.0139769347733818, 1.0303656938485801, 1.0472814709646627]
5	inanimate/n74.jpg	inanimate	animate	left	1.335	[0.0, 0.0, 0.0, 0.0, 0.0, 0.0, 0.0, 0.0, 0.0, 0.0, 0.0, 0.0, 0.0, 0.0, 0.0, 0.0, 0.0, 0.0, 0.0, 4.0, 17.0, 34.0, 42.0, 47.0, 48.0, 48.0, 48.0, 50.0, 58.0, 76.0, 104.0, 125.0, 151.0, 180.0, 222.0, 279.0, 324.0, 363.0, 394.0, 415.0, 422.0, 423.0, 423.0, 403.0, 335.0, 284.0, 262.0, 254.0, 247.0, 230.0, 202.0, 140.0, 34.0, -107.0, -259.0, -400.0, -530.0, -668.0, -728.0, -761.0, -781.0, -789.0, -792.0, -793.0, -793.0, -793.0, -793.0, -793.0, -793.0, -793.0, -793.0, -793.0, -793.0, -793.0, -791.0, -787.0, -784.0, -783.0, -783.0, -783.0]	[-490.0, -490.0, -490.0, -490.0, -490.0, -490.0, -490.0, -490.0, -490.0, -490.0, -490.0, -490.0, -490.0, -490.0, -490.0, -490.0, -490.0, -490.0, -490.0, -490.0, -485.0, -481.0, -480.0, -480.0, -480.0, -480.0, -480.0, -480.0, -478.0, -471.0, -459.0, -451.0, -440.0, -425.0, -390.0, -330.0, -248.0, -174.0, -116.0, -81.0, -57.0, -29.0, 6.0, 50.0, 111.0, 141.0, 157.0, 167.0, 180.0, 198.0, 211.0, 227.0, 247.0, 266.0, 276.0, 279.0, 279.0, 279.0, 287.0, 295.0, 303.0, 308.0, 311.0, 316.0, 317.0, 317.0, 317.0, 317.0, 317.0, 317.0, 317.0, 317.0, 326.0, 342.0, 362.0, 379.0, 387.0, 390.0, 390.0, 390.0]	[0.00037754836375825107, 0.006461466429755092, 0.01535148246330209, 0.03246455002226867, 0.04940524444100447, 0.06595955000375398, 0.08268110870267265, 0.09892036396195181, 0.11599486088380218, 0.13214502827031538, 0.14926594647113234, 0.16615748897311278, 0.1825783333624713, 0.19888960986281745, 0.2161067839479074, 0.23283039065427147, 0.2492826376692392, 0.2683218469028361, 0.2827953869709745, 0.2992943965655286, 0.31593574202270247, 0.3350401458737906, 0.349429718015017, 0.36604478082153946, 0.382570755755296, 0.3994769755518064, 0.4160579050949309, 0.4324906961119268, 0.4491695881879423, 0.46815759749733843, 0.48274514274089597, 0.49901136331027374, 0.5160684522707015, 0.5323394515144173, 0.5492562526196707, 0.5657310276001226, 0.5828017698950134, 0.5990857397555374, 0.616126786073437, 0.632216537516797, 0.6494596529228147, 0.6657569347880781, 0.6827976397471502, 0.6991297375643626, 0.7161253865924664, 0.7322619006736204, 0.7494643974350765, 0.7657026287051849, 0.7828010189405177, 0.7989460663229693, 0.8161134058318567, 0.832304874464171, 0.8493363634624984, 0.8657049839093816, 0.8827484195353463, 0.8989733388298191, 0.9161570623109583, 0.9323597949405666, 0.9494141532341018, 0.9658336322754622, 0.9828217719914392, 0.9991801524593029, 1.016145764180692, 1.0324430460459553, 1.0493881778093055, 1.065793662215583, 1.0827381112903822, 1.0991691956587601, 1.1161901033192407, 1.1322614227829035, 1.1493536690541077, 1.1657922627346125, 1.182846279698424, 1.1990828042908106, 1.2161218026012648, 1.2324921297258697, 1.2494686641148292, 1.2657376153219957, 1.282782074966235, 1.2991230474435724]
6	inanimate/n39.jpg	inanimate	animate	left	1.027	[0.0, 0.0, 0.0, 0.0, 0.0, 0.0, 0.0, 0.0, 0.0, 0.0, -4.0, -9.0, -10.0, -13.0, -15.0, -17.0, -21.0, -25.0, -29.0, -32.0, -34.0, -34.0, -35.0, -38.0, -40.0, -44.0, -44.0, -44.0, -44.0, -44.0, -41.0, -22.0, -2.0, 15.0, 24.0, 36.0, 38.0, 25.0, -11.0, -63.0, -118.0, -174.0, -239.0, -306.0, -364.0, -427.0, -483.0, -545.0, -591.0, -622.0, -648.0, -685.0, -707.0, -726.0, -737.0, -743.0, -745.0, -747.0, -751.0, -751.0, -751.0, -751.0]	[-490.0, -490.0, -490.0, -490.0, -490.0, -490.0, -490.0, -490.0, -490.0, -490.0, -490.0, -491.0, -491.0, -493.0, -494.0, -497.0, -498.0, -500.0, -501.0, -502.0, -503.0, -503.0, -503.0, -503.0, -503.0, -503.0, -503.0, -503.0, -503.0, -496.0, -475.0, -438.0, -380.0, -289.0, -211.0, -133.0, -99.0, -62.0, -18.0, 31.0, 69.0, 101.0, 135.0, 161.0, 179.0, 200.0, 221.0, 251.0, 270.0, 284.0, 299.0, 326.0, 343.0, 360.0, 373.0, 381.0, 386.0, 391.0, 398.0, 399.0, 399.0, 399.0]	[0.009223873756127432, 0.018396854808088392, 0.023505243356339633, 0.033483428764157, 0.04983259324217215, 0.0670398686779663, 0.08362011556164362, 0.1002372263756115, 0.11696424637921154, 0.1337731863022782, 0.15057700622128323, 0.1667299042455852, 0.18319614592473954, 0.20022388023789972, 0.2169256416382268, 0.23350179247790948, 0.2499175168632064, 0.26705242972821, 0.2835923993261531, 0.30022282211575657, 0.31672934105154127, 0.3337321580911521, 0.3505622606317047, 0.3667359799728729, 0.3831844723317772, 0.40044021705398336, 0.4169535626715515, 0.43354302551597357, 0.4525474187976215, 0.46711653206148185, 0.4835168964636978, 0.5001128446310759, 0.5164889744191896, 0.5337481324677356, 0.5504857338091824, 0.56673761838465, 0.5831919133779593, 0.6003019089403097, 0.6165281935536768, 0.6336532077693846, 0.650498670322122, 0.666813360148808, 0.6832417138793971, 0.7003919866983779, 0.7164151782344561, 0.7335610137379263, 0.7502422951511107, 0.7669259659014642, 0.7860201297444291, 0.8003786405897699, 0.8169506954727694, 0.8334951023571193, 0.8505733539641369, 0.8670259423088282, 0.8835054959636182, 0.900065262831049, 0.9164844005426858, 0.9336715373501647, 0.9502674855175428, 0.9669002976443153, 0.986110173369525, 1.0003563856880646]
7	inanimate/n10.jpg	animate	inanimate	right	1.099	[0.0, 0.0, 0.0, 0.0, 0.0, 0.0, 0.0, 0.0, 0.0, 0.0, 0.0, 0.0, 0.0, 0.0, 0.0, 0.0, 0.0, 0.0, 0.0, 0.0, 0.0, 0.0, 0.0, 0.0, 0.0, 0.0, 0.0, 0.0, 0.0, -1.0, -5.0, -10.0, -11.0, -11.0, -11.0, -11.0, -11.0, -5.0, -3.0, -9.0, -28.0, -52.0, -93.0, -152.0, -239.0, -410.0, -521.0, -621.0, -671.0, -689.0, -684.0, -645.0, -548.0, -353.0, -282.0, -141.0, 102.0, 204.0, 473.0, 594.0, 684.0, 722.0, 734.0, 734.0, 734.0, 734.0]	[-490.0, -490.0, -490.0, -490.0, -490.0, -490.0, -490.0, -490.0, -490.0, -490.0, -490.0, -490.0, -490.0, -490.0, -490.0, -490.0, -490.0, -490.0, -490.0, -490.0, -490.0, -490.0, -490.0, -490.0, -490.0, -490.0, -490.0, -490.0, -488.0, -483.0, -473.0, -465.0, -460.0, -456.0, -448.0, -441.0, -428.0, -407.0, -380.0, -350.0, -305.0, -251.0, -188.0, -128.0, -65.0, 14.0, 63.0, 109.0, 147.0, 190.0, 244.0, 296.0, 357.0, 415.0, 424.0, 424.0, 424.0, 426.0, 418.0, 402.0, 398.0, 398.0, 398.0, 398.0, 398.0, 398.0]	[0.016049166937591508, 0.02211055700900033, 0.030711805418832228, 0.047365780192194507, 0.06398289100616239, 0.08106796923675574, 0.09753352825646289, 0.11439196142600849, 0.1305380328267347, 0.1474145566462539, 0.16387601965107024, 0.18093140193377621, 0.19747888084384613, 0.21431512740673497, 0.2307008144853171, 0.2477456154592801, 0.2641452972020488, 0.28102694102562964, 0.2972068043600302, 0.3144079358316958, 0.3308502841682639, 0.34771042404463515, 0.3641261484299321, 0.3810289549001027, 0.3974747165921144, 0.41432154446374625, 0.4305846930365078, 0.44768786191707477, 0.46391005054465495, 0.48086473962757736, 0.4972145867650397, 0.5143436969665345, 0.5305501842813101, 0.5476523291727062, 0.56383936048951, 0.5810916918853763, 0.5972910111886449, 0.6144300200685393, 0.6305190888233483, 0.64770554297138, 0.6638901849801186, 0.6810571831301786, 0.697191990504507, 0.7144262312503997, 0.7307863183959853, 0.7475754609913565, 0.7638700121897273, 0.7811506742145866, 0.797460926725762, 0.8143186772649642, 0.8333510598458815, 0.8476136561366729, 0.86643748433562, 0.8808956643915735, 0.8982695103040896, 0.9144295763398986, 0.93059271434322, 0.9473740062967408, 0.9641341356036719, 0.9807983503851574, 0.9974970397597644, 1.0142919850186445, 1.0307841679896228, 1.04740025481442, 1.0641341014706995, 1.0807877349143382]
8	inanimate/n8.jpg	animate	inanimate	right	1.109	[0.0, 0.0, 0.0, 0.0, 0.0, 0.0, 0.0, 0.0, 0.0, 0.0, 0.0, 0.0, 0.0, 0.0, 0.0, 0.0, 0.0, 0.0, 0.0, 0.0, 0.0, 0.0, 0.0, 0.0, 0.0, 0.0, 0.0, 0.0, 0.0, 0.0, 0.0, 0.0, 0.0, 0.0, 0.0, 0.0, 1.0, -5.0, -6.0, 1.0, 16.0, 36.0, 46.0, 58.0, 79.0, 97.0, 125.0, 177.0, 263.0, 366.0, 463.0, 542.0, 651.0, 731.0, 798.0, 854.0, 882.0, 891.0, 893.0, 893.0, 893.0, 896.0, 903.0, 906.0, 906.0, 906.0, 906.0]	[-490.0, -490.0, -490.0, -490.0, -490.0, -490.0, -490.0, -490.0, -490.0, -490.0, -490.0, -490.0, -490.0, -490.0, -490.0, -490.0, -490.0, -490.0, -490.0, -490.0, -490.0, -490.0, -490.0, -490.0, -490.0, -490.0, -490.0, -490.0, -490.0, -490.0, -490.0, -490.0, -490.0, -490.0, -490.0, -490.0, -482.0, -463.0, -436.0, -395.0, -341.0, -260.0, -200.0, -137.0, -66.0, -8.0, 51.0, 110.0, 169.0, 218.0, 257.0, 297.0, 356.0, 408.0, 446.0, 480.0, 497.0, 502.0, 503.0, 503.0, 503.0, 505.0, 511.0, 514.0, 514.0, 514.0, 514.0]	[0.004407085973070934, 0.009989244630560279, 0.02215093676932156, 0.039049988583428785, 0.05540324904723093, 0.07260574580868706, 0.08928463788470253, 0.10584065012517385, 0.12226012916653417, 0.13923427421832457, 0.15598723554285243, 0.1726545222918503, 0.18925627312273718, 0.2070345985412132, 0.22216418047901243, 0.2392806613643188, 0.256168449181132, 0.27263503219000995, 0.2890411992557347, 0.305458971648477, 0.3225324445811566, 0.33882153444574215, 0.35593323668581434, 0.3722100385639351, 0.38928590083378367, 0.4055749906983692, 0.4226839622715488, 0.43905053471098654, 0.45606495704851113, 0.4723752095596865, 0.4892643627244979, 0.5054889406601433, 0.5224719603720587, 0.5390662018908188, 0.556142405490391, 0.5724294473766349, 0.5894076884142123, 0.6057193062733859, 0.6227210992947221, 0.639061730413232, 0.6560812727548182, 0.6724529651983175, 0.6894393982365727, 0.7057885627145879, 0.7226763505314011, 0.7390538456384093, 0.7559655267687049, 0.7720877048268449, 0.7892529963282868, 0.8057390353060327, 0.8226483270991594, 0.8390790701378137, 0.8559958712721709, 0.8721405772957951, 0.8892570581811015, 0.9058164837479126, 0.9227001755789388, 0.9390619693731423, 0.9560931170126423, 0.9724166814994533, 0.9894167678721715, 1.0055983378842939, 1.022680344118271, 1.039039407245582, 1.0560220856277738, 1.0724460020137485, 1.0893921577662695]
9	animate/a28.jpg	animate	inanimate	left	1.312	[0.0, 0.0, 0.0, 0.0, 0.0, 0.0, 0.0, 0.0, 0.0, 0.0, 0.0, 0.0, 0.0, 0.0, 0.0, 0.0, 0.0, 0.0, 0.0, 0.0, 0.0, 0.0, 0.0, 0.0, 0.0, 0.0, -2.0, -13.0, -25.0, -35.0, -36.0, -14.0, 26.0, 82.0, 147.0, 210.0, 278.0, 354.0, 434.0, 495.0, 526.0, 542.0, 551.0, 555.0, 556.0, 556.0, 556.0, 556.0, 556.0, 556.0, 556.0, 560.0, 570.0, 586.0, 599.0, 611.0, 625.0, 635.0, 648.0, 654.0, 657.0, 657.0, 651.0, 598.0, 486.0, 329.0, 128.0, -99.0, -403.0, -549.0, -627.0, -671.0, -692.0, -701.0, -701.0, -701.0, -701.0, -701.0, -701.0]	[-490.0, -490.0, -490.0, -490.0, -490.0, -490.0, -490.0, -490.0, -490.0, -490.0, -490.0, -490.0, -490.0, -490.0, -490.0, -490.0, -490.0, -490.0, -490.0, -490.0, -490.0, -490.0, -490.0, -490.0, -490.0, -490.0, -485.0, -444.0, -381.0, -310.0, -258.0, -177.0, -93.0, 1.0, 116.0, 221.0, 296.0, 352.0, 397.0, 430.0, 455.0, 471.0, 484.0, 492.0, 499.0, 504.0, 508.0, 510.0, 510.0, 510.0, 511.0, 511.0, 510.0, 504.0, 498.0, 494.0, 490.0, 486.0, 482.0, 480.0, 477.0, 477.0, 470.0, 461.0, 457.0, 457.0, 479.0, 513.0, 534.0, 534.0, 528.0, 520.0, 517.0, 516.0, 516.0, 516.0, 516.0, 516.0, 516.0]	[0.0027676639147102833, 0.009704914293251932, 0.02061766924452968, 0.03694430575706065, 0.054205853113671765, 0.070255668630125, 0.08751312000094913, 0.10436063053202815, 0.1207347123126965, 0.13699444755911827, 0.15418943500844762, 0.1703512076928746, 0.18751820587203838, 0.20368305055308156, 0.22064695562585257, 0.2370203547179699, 0.2541108943114523, 0.27045118412934244, 0.2874884757620748, 0.30389566681697033, 0.32076058533857577, 0.3371711897489149, 0.3541593294357881, 0.3703654754208401, 0.38753213224117644, 0.4038560380868148, 0.4208670470979996, 0.43716467029298656, 0.45417772728251293, 0.4704948064754717, 0.4874556395225227, 0.5037928573437966, 0.520850287633948, 0.5371489348472096, 0.5542244557582308, 0.5702875832503196, 0.5874381974281278, 0.6038993191032205, 0.6208594694908243, 0.637136271368945, 0.6541134884464554, 0.6705370634736028, 0.6874661525944248, 0.7038306770264171, 0.7208253020653501, 0.7371857305115554, 0.7542213154956698, 0.7705131360562518, 0.7875323370390106, 0.8035705472284462, 0.820613982854411, 0.8373846934991889, 0.8536754900123924, 0.870788557571359, 0.8870127942063846, 0.9041821816936135, 0.9205415861506481, 0.9375123178760987, 0.9540116688294802, 0.970917547296267, 0.9871813785284758, 1.0041773688863032, 1.0205118560406845, 1.0375600703409873, 1.05388534150552, 1.0708461745816749, 1.087171104416484, 1.1041913294175174, 1.1202739128493704, 1.1373538711341098, 1.1538730193860829, 1.170894268376287, 1.1871598062862176, 1.2040906020556577, 1.220265686744824, 1.2372923970688134, 1.253872643923387, 1.2708771676116157, 1.2869863750238437]
10	inanimate/n69.jpg	inanimate	animate	left	1.326	[0.0, 0.0, 0.0, 0.0, 0.0, 0.0, 0.0, 0.0, 0.0, 0.0, 0.0, 0.0, 0.0, 0.0, 0.0, 0.0, 0.0, 0.0, 0.0, 0.0, -4.0, -12.0, -19.0, -27.0, -32.0, -36.0, -38.0, -43.0, -47.0, -47.0, -44.0, -36.0, -32.0, -20.0, -8.0, 11.0, 34.0, 59.0, 74.0, 90.0, 106.0, 121.0, 129.0, 129.0, 126.0, 114.0, 106.0, 97.0, 91.0, 83.0, 82.0, 81.0, 81.0, 81.0, 86.0, 114.0, 145.0, 182.0, 210.0, 227.0, 232.0, 232.0, 210.0, 140.0, 6.0, -172.0, -346.0, -494.0, -679.0, -760.0, -807.0, -824.0, -827.0, -827.0, -827.0, -827.0, -827.0, -827.0, -827.0, -827.0]	[-490.0, -490.0, -490.0, -490.0, -490.0, -490.0, -490.0, -490.0, -490.0, -490.0, -490.0, -490.0, -490.0, -490.0, -490.0, -490.0, -490.0, -490.0, -490.0, -490.0, -491.0, -489.0, -487.0, -486.0, -486.0, -486.0, -484.0, -477.0, -461.0, -442.0, -403.0, -362.0, -350.0, -322.0, -308.0, -290.0, -266.0, -237.0, -211.0, -185.0, -156.0, -125.0, -99.0, -59.0, -46.0, -11.0, 8.0, 24.0, 41.0, 58.0, 68.0, 76.0, 86.0, 95.0, 110.0, 142.0, 164.0, 184.0, 210.0, 232.0, 245.0, 256.0, 276.0, 318.0, 373.0, 422.0, 455.0, 474.0, 495.0, 504.0, 511.0, 515.0, 516.0, 516.0, 516.0, 516.0, 516.0, 516.0, 516.0, 516.0]	[0.0012023111048620194, 0.006060843967134133, 0.017290355870500207, 0.034469983336748555, 0.05331565684173256, 0.06773082894505933, 0.0857750527211465, 0.10107632511062548, 0.11870207471656613, 0.1344931598578114, 0.15100377480848692, 0.16778848008834757, 0.18661913491087034, 0.20107014698442072, 0.21747733803931624, 0.23413950481335633, 0.2538951718597673, 0.2673187718319241, 0.2852677637420129, 0.30067484933533706, 0.31772477028425783, 0.33405413743457757, 0.3523198862967547, 0.3673713029711507, 0.3868385437235702, 0.40087381229386665, 0.4184790819126647, 0.4342083857918624, 0.45228332953411154, 0.4673292849038262, 0.48534927403670736, 0.5008935754594859, 0.5193200921057723, 0.5339619092992507, 0.5524327992170583, 0.5673872773477342, 0.5849072137498297, 0.6008771573542617, 0.6181073020852637, 0.6342202641826589, 0.6511111239960883, 0.6675459630205296, 0.6843921082327142, 0.700702702102717, 0.7177546710590832, 0.7343076112738345, 0.7510435059375595, 0.7676135128131136, 0.7844064100936521, 0.8008566091011744, 0.8177894528780598, 0.8342355558997951, 0.8510206025093794, 0.8674462255439721, 0.8843899919884279, 0.9007104844786227, 0.9177730347728357, 0.9342962790105958, 0.951112728274893, 0.9676277805410791, 0.984439792460762, 1.0007145463314373, 1.017789384612115, 1.0341825810319278, 1.0511403421114665, 1.0675041838840116, 1.0843967503751628, 1.1006517069472466, 1.1177828651561867, 1.1339664831466507, 1.1510966173373163, 1.1673655685735866, 1.1845107214467134, 1.200672835460864, 1.2178186709643342, 1.2340214036230464, 1.251165191148175, 1.2673273051623255, 1.2844919139752164, 1.3006823586474638]
11	animate/a73.jpg	inanimate	animate	right	1.11	[0.0, 0.0, 0.0, 0.0, 0.0, 0.0, 0.0, 0.0, 0.0, 0.0, 0.0, 0.0, 0.0, 0.0, 0.0, 0.0, 0.0, 0.0, 0.0, -2.0, -11.0, -21.0, -31.0, -38.0, -39.0, -39.0, -40.0, -22.0, 14.0, 65.0, 137.0, 228.0, 367.0, 408.0, 497.0, 552.0, 592.0, 616.0, 629.0, 638.0, 645.0, 647.0, 648.0, 648.0, 649.0, 660.0, 706.0, 743.0, 759.0, 760.0, 760.0, 760.0, 760.0, 760.0, 760.0, 760.0, 760.0, 760.0, 760.0, 760.0, 760.0, 760.0, 760.0, 760.0, 760.0, 760.0, 760.0]	[-490.0, -490.0, -490.0, -490.0, -490.0, -490.0, -490.0, -490.0, -490.0, -490.0, -490.0, -490.0, -490.0, -490.0, -490.0, -490.0, -490.0, -490.0, -490.0, -487.0, -482.0, -477.0, -474.0, -473.0, -473.0, -473.0, -470.0, -445.0, -395.0, -322.0, -233.0, -140.0, -13.0, 34.0, 164.0, 238.0, 295.0, 331.0, 359.0, 381.0, 400.0, 410.0, 417.0, 422.0, 431.0, 448.0, 477.0, 493.0, 499.0, 501.0, 501.0, 501.0, 501.0, 501.0, 501.0, 501.0, 501.0, 501.0, 501.0, 501.0, 501.0, 501.0, 501.0, 501.0, 501.0, 501.0, 501.0]	[0.004442584584467113, 0.01311346489819698, 0.021741337259300053, 0.04133964984794147, 0.055464347620727494, 0.07451550354016945, 0.08874908654252067, 0.10618539637653157, 0.12224818250979297, 0.14097575479536317, 0.15539672956219874, 0.1734348093450535, 0.1887384710717015, 0.20792547750170343, 0.22208123657037504, 0.24005821777973324, 0.25548339399392717, 0.27292550649144687, 0.2887944155372679, 0.30563783008255996, 0.32210953306639567, 0.3385542707692366, 0.35526797879720107, 0.3716799485264346, 0.38848991243867204, 0.4078547533135861, 0.421668155468069, 0.43976221384946257, 0.4552331287122797, 0.4735534908249974, 0.4884475530125201, 0.5067160325415898, 0.5220039929263294, 0.539848878281191, 0.5549887001980096, 0.5732141717453487, 0.5883328310155775, 0.6059104526939336, 0.6217909670667723, 0.6388425946934149, 0.6550214340095408, 0.6720635043166112, 0.6885768499341793, 0.7053424405748956, 0.7219837860320695, 0.7388521178800147, 0.7552913942490704, 0.7721470967517234, 0.788574426464038, 0.8054229610133916, 0.8219475705991499, 0.8388070277869701, 0.8552548374864273, 0.8721709559322335, 0.8886392455897294, 0.9055830120050814, 0.9219379791466054, 0.9388540975924116, 0.9553582272201311, 0.972120063204784, 0.9883954997640103, 1.005425282084616, 1.0217642065545078, 1.038816175510874, 1.0550462147803046, 1.0721947809797712, 1.0883330016804393]
12	inanimate/n77.jpg	animate	inanimate	right	1.072	[0.0, 0.0, 0.0, 0.0, 0.0, 0.0, 0.0, 1.0, 0.0, -4.0, -5.0, -5.0, -5.0, -5.0, -5.0, -5.0, -5.0, -5.0, -5.0, -5.0, -5.0, -5.0, -5.0, -5.0, -5.0, -5.0, -5.0, -5.0, -5.0, -5.0, -5.0, 0.0, 13.0, 37.0, 84.0, 191.0, 281.0, 386.0, 490.0, 588.0, 660.0, 698.0, 719.0, 733.0, 747.0, 752.0, 758.0, 769.0, 779.0, 788.0, 797.0, 807.0, 813.0, 817.0, 819.0, 819.0, 814.0, 808.0, 804.0, 802.0, 801.0, 800.0, 800.0, 800.0, 800.0]	[-490.0, -490.0, -490.0, -490.0, -490.0, -490.0, -490.0, -489.0, -487.0, -487.0, -485.0, -485.0, -485.0, -485.0, -485.0, -485.0, -485.0, -485.0, -485.0, -485.0, -485.0, -485.0, -485.0, -485.0, -485.0, -485.0, -485.0, -485.0, -485.0, -485.0, -480.0, -470.0, -454.0, -423.0, -369.0, -278.0, -208.0, -144.0, -83.0, -35.0, 9.0, 38.0, 61.0, 77.0, 93.0, 99.0, 110.0, 134.0, 153.0, 173.0, 191.0, 211.0, 230.0, 249.0, 265.0, 281.0, 298.0, 312.0, 322.0, 325.0, 327.0, 330.0, 337.0, 345.0, 346.0]	[0.008942956774262711, 0.016567993006901816, 0.022005085163982585, 0.03287892817752436, 0.049816209269920364, 0.06611553914262913, 0.08332929990137927, 0.09957128585665487, 0.11662564412108622, 0.1328823073708918, 0.15004794020205736, 0.16615987828117795, 0.18334599109948613, 0.1995285851007793, 0.21663687398540787, 0.23285325994947925, 0.250098082004115, 0.2662195774319116, 0.2835340313904453, 0.2995585882454179, 0.3166504931577947, 0.33298634566017427, 0.34988744545262307, 0.3663861137465574, 0.3833431921666488, 0.40199567121453583, 0.4167398882564157, 0.4356057003897149, 0.4499078913067933, 0.46889351127902046, 0.48327932876418345, 0.5007972171879373, 0.5166999181674328, 0.5334132848656736, 0.5500990036234725, 0.5663628348556813, 0.5831642654375173, 0.5995956911356188, 0.6166732600831892, 0.6328217207919806, 0.6495920900779311, 0.6691228187410161, 0.6830891380668618, 0.70262703471235, 0.7164544315310195, 0.7333712326653767, 0.7497634050669149, 0.7691538459039293, 0.7831157279142644, 0.802766605746001, 0.8164960400317796, 0.8361189285933506, 0.8497445976245217, 0.8691876037337352, 0.8830801951407921, 0.902135447046021, 0.9162157715472858, 0.9359431079938076, 0.9496145156444982, 0.9689069939486217, 0.9829395318520255, 1.0003942736657336, 1.0164693477854598, 1.0332322077592835, 1.049819622625364]
13	inanimate/n69.jpg	animate	inanimate	right	1.148	[0.0, 0.0, 0.0, 0.0, 0.0, 0.0, 0.0, 0.0, 0.0, 0.0, 0.0, 0.0, 0.0, 0.0, 0.0, 0.0, 0.0, 0.0, 0.0, 0.0, 0.0, 0.0, 0.0, 0.0, 0.0, 0.0, 0.0, 0.0, 0.0, 0.0, 0.0, 0.0, 0.0, 0.0, 0.0, 0.0, -9.0, -23.0, -48.0, -118.0, -140.0, -174.0, -195.0, -231.0, -260.0, -299.0, -332.0, -350.0, -369.0, -388.0, -420.0, -462.0, -500.0, -527.0, -532.0, -535.0, -536.0, -528.0, -445.0, -274.0, -45.0, 219.0, 472.0, 714.0, 938.0, 959.0, 959.0, 959.0, 959.0, 959.0]	[-490.0, -490.0, -490.0, -490.0, -490.0, -490.0, -490.0, -490.0, -490.0, -490.0, -490.0, -490.0, -490.0, -490.0, -490.0, -490.0, -490.0, -490.0, -490.0, -490.0, -490.0, -490.0, -490.0, -490.0, -490.0, -490.0, -490.0, -490.0, -490.0, -490.0, -490.0, -490.0, -490.0, -490.0, -490.0, -490.0, -484.0, -465.0, -426.0, -357.0, -341.0, -316.0, -292.0, -224.0, -154.0, -60.0, 16.0, 61.0, 100.0, 130.0, 163.0, 196.0, 219.0, 241.0, 246.0, 255.0, 271.0, 304.0, 335.0, 363.0, 390.0, 425.0, 458.0, 490.0, 518.0, 540.0, 540.0, 540.0, 540.0, 540.0]	[0.009958183305570856, 0.014980897307395935, 0.022990615718299523, 0.032355425879359245, 0.049216589715797454, 0.06594156174105592, 0.08409330539871007, 0.09933450317475945, 0.11543995596002787, 0.13274451126926579, 0.1501623891235795, 0.16609069009427913, 0.18249583317083307, 0.1993276423891075, 0.21834739568294026, 0.23268952252692543, 0.24884617523639463, 0.2660950933059212, 0.2822616446646862, 0.2990579552424606, 0.318757302389713, 0.33246830466669053, 0.34933390584774315, 0.36602474458049983, 0.3827261646219995, 0.39942383000743575, 0.4158497944008559, 0.4323303720448166, 0.44963970602839254, 0.4658690626383759, 0.4828913356468547, 0.4992876040341798, 0.5187780554406345, 0.5324487804318778, 0.5518784745363519, 0.5659106711100321, 0.5851918854168616, 0.5992978099093307, 0.618566394870868, 0.6323180157924071, 0.6493771527311765, 0.6656792132707778, 0.6827195769001264, 0.6989209442108404, 0.716059953061631, 0.7324599761632271, 0.7494146652170457, 0.7658112749631982, 0.7827369507576805, 0.799109325860627, 0.8159476204018574, 0.8324152273999061, 0.849409169779392, 0.8656074650934897, 0.8827297486132011, 0.8989184866077267, 0.9160523754835594, 0.9322933374205604, 0.9494483889138792, 0.9656057242827956, 0.9827266424836125, 0.9989969590678811, 1.0161479145754129, 1.03227384731872, 1.0494841947511304, 1.065639823442325, 1.0828064802626614, 1.098949138307944, 1.1161526590876747, 1.1322878078208305]
14	animate/a50.jpg	inanimate	animate	right	0.927	[0.0, 0.0, 0.0, 0.0, 0.0, 0.0, 0.0, 0.0, 0.0, 0.0, 0.0, 0.0, 0.0, 0.0, 0.0, 0.0, 0.0, 0.0, 0.0, 0.0, 0.0, 0.0, -2.0, -3.0, -3.0, -3.0, -4.0, -6.0, -6.0, -6.0, -6.0, -6.0, 14.0, 38.0, 81.0, 140.0, 203.0, 265.0, 320.0, 362.0, 399.0, 414.0, 426.0, 455.0, 514.0, 648.0, 723.0, 779.0, 822.0, 845.0, 856.0, 859.0, 859.0, 859.0, 859.0, 859.0]	[-490.0, -490.0, -490.0, -490.0, -490.0, -490.0, -490.0, -490.0, -490.0, -490.0, -490.0, -490.0, -490.0, -490.0, -490.0, -490.0, -490.0, -490.0, -490.0, -490.0, -490.0, -490.0, -490.0, -491.0, -491.0, -491.0, -491.0, -491.0, -491.0, -491.0, -491.0, -491.0, -453.0, -419.0, -366.0, -294.0, -216.0, -124.0, -55.0, -4.0, 38.0, 65.0, 87.0, 129.0, 192.0, 311.0, 377.0, 422.0, 461.0, 479.0, 489.0, 492.0, 493.0, 494.0, 496.0, 496.0]	[0.009725291834911332, 0.016222564066993073, 0.021067102294182405, 0.03398655352066271, 0.05114262903225608, 0.06716001787572168, 0.084523965138942, 0.10053350334055722, 0.11784386134240776, 0.1338216555886902, 0.1512033521430567, 0.16759074589936063, 0.18445225109462626, 0.20072120233089663, 0.21777214729809202, 0.23415203171316534, 0.2513159578666091, 0.2674712452571839, 0.2845020515669603, 0.30312893065274693, 0.31785744638182223, 0.33694205290521495, 0.3510104307788424, 0.36748349911067635, 0.3845979319885373, 0.4007965686323587, 0.41787720954744145, 0.4342468540125992, 0.4512575216940604, 0.4700943205098156, 0.4844057274167426, 0.5036497364344541, 0.5177379116066732, 0.5367757555213757, 0.5510584904404823, 0.5680858834530227, 0.5844664505275432, 0.6006575778592378, 0.6174931417626794, 0.6340604179713409, 0.6508993951720186, 0.6675857965892646, 0.6842704912996851, 0.700949042045977, 0.7177757312892936, 0.7342873702291399, 0.750753953208914, 0.7678653141192626, 0.7842223292391282, 0.801097487739753, 0.8175910360296257, 0.8344235279364511, 0.8507170551165473, 0.8677830187371001, 0.8840246633335482, 0.9010093897231854]
15	animate/a3.jpg	inanimate	animate	right	0.95	[0.0, 0.0, 0.0, 0.0, 0.0, 0.0, 0.0, 0.0, 0.0, 0.0, 0.0, 0.0, 0.0, 0.0, 0.0, 0.0, 0.0, 0.0, 0.0, 0.0, 0.0, 0.0, 0.0, 0.0, 0.0, 0.0, 0.0, 0.0, 0.0, 0.0, 0.0, 0.0, 0.0, 0.0, -4.0, -8.0, -11.0, -13.0, -13.0, -8.0, 22.0, 77.0, 138.0, 191.0, 223.0, 263.0, 324.0, 402.0, 491.0, 588.0, 680.0, 766.0, 815.0, 835.0, 844.0, 845.0, 845.0]	[-490.0, -490.0, -490.0, -490.0, -490.0, -490.0, -490.0, -490.0, -490.0, -490.0, -490.0, -490.0, -490.0, -490.0, -490.0, -490.0, -490.0, -490.0, -490.0, -490.0, -490.0, -490.0, -490.0, -490.0, -490.0, -490.0, -490.0, -490.0, -490.0, -490.0, -490.0, -490.0, -490.0, -490.0, -484.0, -476.0, -473.0, -469.0, -465.0, -444.0, -394.0, -315.0, -233.0, -144.0, -98.0, -43.0, 29.0, 126.0, 209.0, 292.0, 356.0, 409.0, 441.0, 463.0, 477.0, 478.0, 478.0]	[0.014225083810742944, 0.018857654300518334, 0.025524569005938247, 0.04274344973964617, 0.05929400064633228, 0.0758534262131434, 0.0923684784793295, 0.10950270865578204, 0.12565799604635686, 0.1428318208490964, 0.15899393486324698, 0.17614352505188435, 0.19234728169976734, 0.20951871716533788, 0.22567810054169968, 0.24293896526796743, 0.259048514009919, 0.27629572540172376, 0.2923837701964658, 0.30944495514268056, 0.3258350795658771, 0.3428621312195901, 0.36123335192678496, 0.37615233144606464, 0.3951642340689432, 0.4094551609887276, 0.4264637806627434, 0.44276311053545214, 0.4590423017507419, 0.47589698029332794, 0.4951529359386768, 0.5092612497683149, 0.5285100374312606, 0.5426234712358564, 0.5595556323241908, 0.5759194741258398, 0.5929403817863204, 0.6090383252303582, 0.6261162354785483, 0.6426756610453594, 0.6595573048689403, 0.6759501599590294, 0.6927177985780872, 0.7092755174671765, 0.7261506759678014, 0.7427223895210773, 0.7593920656072441, 0.7760098590806592, 0.7927723777247593, 0.8092826513166074, 0.8261148018937092, 0.8426080088538583, 0.8594524473883212, 0.8757616759103257, 0.8927788289147429, 0.9090109161916189, 0.9262113649747334]
16	inanimate/n8.jpg	inanimate	animate	left	0.939	[0.0, 0.0, 0.0, 0.0, 0.0, 0.0, 0.0, 0.0, 0.0, 0.0, 0.0, 0.0, 0.0, 0.0, 0.0, 0.0, 0.0, 0.0, 0.0, 0.0, 0.0, 0.0, 0.0, 0.0, 0.0, 0.0, 0.0, 0.0, 0.0, 0.0, -2.0, -12.0, -20.0, -40.0, -54.0, -65.0, -78.0, -97.0, -120.0, -144.0, -163.0, -177.0, -202.0, -235.0, -286.0, -358.0, -502.0, -589.0, -655.0, -691.0, -717.0, -732.0, -738.0, -740.0, -741.0, -741.0, -741.0]	[-490.0, -490.0, -490.0, -490.0, -490.0, -490.0, -490.0, -490.0, -490.0, -490.0, -490.0, -490.0, -490.0, -490.0, -490.0, -490.0, -490.0, -490.0, -490.0, -490.0, -490.0, -490.0, -490.0, -490.0, -490.0, -490.0, -490.0, -490.0, -489.0, -488.0, -486.0, -479.0, -475.0, -467.0, -459.0, -449.0, -431.0, -406.0, -380.0, -359.0, -336.0, -306.0, -249.0, -198.0, -134.0, -58.0, 86.0, 183.0, 276.0, 347.0, 406.0, 446.0, 473.0, 496.0, 512.0, 516.0, 516.0]	[0.010751679918030277, 0.01663523557363078, 0.022090077050961554, 0.03672063024714589, 0.05285168296541087, 0.07012585966731422, 0.08619137646746822, 0.10349320113891736, 0.11945461138384417, 0.1368509852909483, 0.15299534998484887, 0.17018658277811483, 0.18635791281121783, 0.20354163626325317, 0.21969487564638257, 0.2369212657213211, 0.2531335556996055, 0.27025959390448406, 0.28635992665658705, 0.3035965567396488, 0.3197279508167412, 0.33690689562354237, 0.3533093080040999, 0.37008923463872634, 0.3864363511092961, 0.40356170665472746, 0.4225637106283102, 0.4368532722000964, 0.45324544463073835, 0.4700308325700462, 0.4892096469993703, 0.5034575659665279, 0.5225332978588995, 0.5367801928368863, 0.5557241702044848, 0.5700819983903784, 0.5889792131492868, 0.6034056492499076, 0.6204658101778477, 0.6367453427519649, 0.6541635619360022, 0.6701416975120082, 0.6870997999212705, 0.7035196202923544, 0.7196714943274856, 0.7365370955085382, 0.7532914221810643, 0.7700686181196943, 0.7864307532436214, 0.8033557463495526, 0.8198772839677986, 0.8366357065970078, 0.8531609988713171, 0.869902696198551, 0.8863194445730187, 0.9031751471047755, 0.9207739314297214]
17	inanimate/n2.jpg	animate	inanimate	right	1.048	[0.0, 0.0, 0.0, 0.0, 0.0, 0.0, 0.0, 0.0, 0.0, 0.0, 0.0, 0.0, 0.0, 0.0, 0.0, 0.0, 0.0, 0.0, 0.0, 0.0, 0.0, 0.0, 0.0, 0.0, 0.0, 0.0, -3.0, -11.0, -18.0, -21.0, -21.0, -21.0, -21.0, -21.0, -21.0, -21.0, -21.0, -21.0, -21.0, -21.0, -21.0, -22.0, -22.0, -21.0, -19.0, -15.0, -5.0, 7.0, 23.0, 44.0, 87.0, 169.0, 260.0, 370.0, 480.0, 589.0, 720.0, 751.0, 807.0, 821.0, 829.0, 829.0, 829.0]	[-490.0, -490.0, -490.0, -490.0, -490.0, -490.0, -490.0, -490.0, -490.0, -490.0, -490.0, -490.0, -490.0, -490.0, -490.0, -490.0, -490.0, -490.0, -490.0, -490.0, -490.0, -490.0, -490.0, -490.0, -490.0, -490.0, -490.0, -492.0, -494.0, -494.0, -494.0, -494.0, -494.0, -494.0, -494.0, -494.0, -494.0, -494.0, -494.0, -494.0, -494.0, -493.0, -489.0, -485.0, -482.0, -478.0, -473.0, -464.0, -451.0, -431.0, -391.0, -337.0, -277.0, -188.0, -69.0, 75.0, 247.0, 288.0, 358.0, 383.0, 405.0, 410.0, 410.0]	[0.01520402662572451, 0.020793011935893446, 0.027236012247158214, 0.04563317427528091, 0.06103240919765085, 0.07850797232822515, 0.09439087600912899, 0.11084858435788192, 0.12755068705882877, 0.1444364268973004, 0.16099960712017491, 0.17775461642304435, 0.19428332202369347, 0.21076901964261197, 0.22739534644642845, 0.24722440011100844, 0.2609278930758592, 0.2799793902959209, 0.2943034265190363, 0.31240567690110765, 0.3273898510087747, 0.34587712489883415, 0.3609357095847372, 0.38000393213587813, 0.39425082711386494, 0.41225921094883233, 0.4272601103584748, 0.4453773793647997, 0.46088618217618205, 0.4780327003682032, 0.4943084782571532, 0.5110952315153554, 0.5276775263773743, 0.5444110317330342, 0.5608830760465935, 0.5777599412249401, 0.5941678149392828, 0.6110958800709341, 0.6272945167147554, 0.6443690136366058, 0.6609137618797831, 0.677728163136635, 0.6941978181130253, 0.7110825339332223, 0.727546044945484, 0.7443256302212831, 0.7609372797305696, 0.7779878833389375, 0.79398342690547, 0.8111326757643837, 0.8275088055233937, 0.8442703001492191, 0.8606839765561745, 0.877775198809104, 0.8939618887961842, 0.9110985083389096, 0.9272896356415004, 0.9444323991774581, 0.9606296704732813, 0.9778864392137621, 0.9940267079218756, 1.011165034113219, 1.027307350828778]
18	inanimate/n13.jpg	animate	inanimate	right	1.379	[0.0, 0.0, 0.0, 0.0, 0.0, 0.0, 0.0, 0.0, 0.0, 0.0, 0.0, 0.0, 0.0, 0.0, 0.0, 0.0, 0.0, 0.0, 0.0, 0.0, 0.0, 0.0, 0.0, 0.0, 0.0, 0.0, 0.0, 0.0, 3.0, 7.0, 14.0, 24.0, 36.0, 72.0, 108.0, 149.0, 180.0, 205.0, 223.0, 251.0, 298.0, 363.0, 442.0, 513.0, 565.0, 585.0, 597.0, 604.0, 609.0, 614.0, 615.0, 615.0, 615.0, 595.0, 522.0, 395.0, 231.0, -64.0, -159.0, -391.0, -500.0, -558.0, -575.0, -577.0, -577.0, -577.0, -577.0, -578.0, -579.0, -579.0, -579.0, -579.0, -555.0, -443.0, -257.0, 1.0, 255.0, 485.0, 685.0, 825.0, 877.0, 881.0, 881.0]	[-490.0, -490.0, -490.0, -490.0, -490.0, -490.0, -490.0, -490.0, -490.0, -490.0, -490.0, -490.0, -490.0, -490.0, -490.0, -490.0, -490.0, -490.0, -490.0, -490.0, -490.0, -490.0, -490.0, -490.0, -490.0, -490.0, -490.0, -489.0, -479.0, -470.0, -456.0, -435.0, -413.0, -350.0, -281.0, -209.0, -158.0, -118.0, -92.0, -64.0, -30.0, 15.0, 75.0, 124.0, 161.0, 175.0, 184.0, 192.0, 205.0, 222.0, 231.0, 240.0, 247.0, 257.0, 276.0, 294.0, 318.0, 354.0, 356.0, 356.0, 360.0, 368.0, 370.0, 370.0, 370.0, 370.0, 370.0, 370.0, 372.0, 373.0, 375.0, 379.0, 386.0, 404.0, 428.0, 489.0, 540.0, 540.0, 540.0, 540.0, 540.0, 540.0, 540.0]	[0.009422870876733214, 0.014240785123547539, 0.020345524506410584, 0.03202047589002177, 0.04814777395222336, 0.06539123068796471, 0.08153730205958709, 0.09878212411422282, 0.11509783795918338, 0.13202897508745082, 0.14827437433996238, 0.16542669516638853, 0.18160246251500212, 0.19874386070296168, 0.21492816138197668, 0.23210778884822503, 0.2482995988393668, 0.26553042625891976, 0.28162768701440655, 0.2987987811793573, 0.3149759138468653, 0.33215963732800446, 0.34830502604017965, 0.3655204934766516, 0.3816457435314078, 0.39883492831722833, 0.4151741941459477, 0.4321572138578631, 0.44855109293712303, 0.4653443315473851, 0.4817549359286204, 0.4987642382911872, 0.5151021387719084, 0.5321380650857463, 0.5510677064594347, 0.5654569372709375, 0.584389650641242, 0.5988577293755952, 0.616593388171168, 0.632111406972399, 0.6492415411921684, 0.6654087752103806, 0.6825535867246799, 0.6987733860150911, 0.7158506136038341, 0.7321468714799266, 0.7488216675410513, 0.765278010541806, 0.7816667696461082, 0.7983924243308138, 0.8178879957122263, 0.8318509016826283, 0.8512130118906498, 0.8651520245766733, 0.8821190016460605, 0.8985381393576972, 0.9167765815509483, 0.9319655554136261, 0.9511774791462813, 0.9651369717903435, 0.9833559580147266, 0.9985985211387742, 1.0169038645981345, 1.0319279746618122, 1.0492816819169093, 1.0649877751711756, 1.0825896314636339, 1.0982718314044178, 1.1156757146236487, 1.1317060741130263, 1.1486092219420243, 1.1650822902447544, 1.1821202645660378, 1.1986476048186887, 1.2154766833700705, 1.2319453143863939, 1.2486975930223707, 1.2652314185979776, 1.2821338837384246, 1.2986008080770262, 1.3154769905959256, 1.331894080300117, 1.3487146255502012]
19	animate/a4.jpg	inanimate	animate	right	0.948	[0.0, 0.0, 0.0, 0.0, 0.0, 0.0, 0.0, 0.0, 0.0, 0.0, 0.0, 0.0, 0.0, 0.0, 0.0, 0.0, 0.0, 0.0, 0.0, 0.0, 0.0, 0.0, 0.0, 0.0, 0.0, -4.0, -12.0, -19.0, -22.0, -22.0, -22.0, -22.0, -23.0, -23.0, -23.0, -23.0, -23.0, -21.0, -2.0, 15.0, 33.0, 78.0, 158.0, 263.0, 410.0, 509.0, 597.0, 679.0, 734.0, 780.0, 809.0, 819.0, 819.0, 819.0, 819.0, 819.0, 819.0]	[-490.0, -490.0, -490.0, -490.0, -490.0, -490.0, -490.0, -490.0, -490.0, -490.0, -490.0, -490.0, -490.0, -490.0, -490.0, -490.0, -490.0, -490.0, -490.0, -490.0, -490.0, -490.0, -490.0, -490.0, -490.0, -487.0, -485.0, -485.0, -485.0, -485.0, -485.0, -485.0, -483.0, -466.0, -430.0, -373.0, -307.0, -254.0, -192.0, -127.0, -64.0, 11.0, 84.0, 154.0, 222.0, 261.0, 290.0, 320.0, 348.0, 376.0, 397.0, 403.0, 403.0, 404.0, 404.0, 404.0, 404.0]	[0.010373141732998192, 0.015500303619774058, 0.020562612218782306, 0.0350057736504823, 0.05159182316856459, 0.06893119442975149, 0.08503016186296009, 0.10486706616939045, 0.11808142907102592, 0.1350518194376491, 0.15131804000702687, 0.16851644081179984, 0.1846666081692092, 0.20181039569433779, 0.21802644032868557, 0.23518865983351134, 0.2513453125138767, 0.268697995779803, 0.28470241400646046, 0.3018704361456912, 0.3180530301469844, 0.33523811894701794, 0.3514794222137425, 0.3685528951755259, 0.38477883843006566, 0.40191545797279105, 0.4182519931346178, 0.4351889328972902, 0.4543325900158379, 0.4686419489153195, 0.48603047215146944, 0.5018911891966127, 0.5187236811034381, 0.5352370266919024, 0.551511439261958, 0.5686856053944211, 0.5847449782304466, 0.6028929672029335, 0.6182782074902207, 0.6351216220355127, 0.6516796822543256, 0.6685568887623958, 0.6849217545532156, 0.7018662036280148, 0.7182136614283081, 0.7351372892153449, 0.7516342508315574, 0.7684431907546241, 0.7849561950424686, 0.8017647936067078, 0.8179968808835838, 0.8347696395067032, 0.8517820138658863, 0.8682465488673188, 0.8852060165954754, 0.9015661037119571, 0.9184586702031083]
20	inanimate/n65.jpg	animate	inanimate	right	0.964	[0.0, 0.0, 0.0, 0.0, 0.0, 0.0, 0.0, 0.0, 0.0, 0.0, 0.0, 0.0, 0.0, 0.0, 0.0, 0.0, 0.0, 0.0, 0.0, 0.0, 0.0, 0.0, 0.0, 0.0, 0.0, 0.0, 0.0, 0.0, 0.0, 0.0, 0.0, -3.0, -5.0, -5.0, -7.0, -7.0, -7.0, -7.0, -4.0, 23.0, 58.0, 81.0, 98.0, 104.0, 149.0, 189.0, 230.0, 268.0, 313.0, 365.0, 438.0, 529.0, 630.0, 716.0, 798.0, 822.0, 826.0, 826.0, 826.0]	[-490.0, -490.0, -490.0, -490.0, -490.0, -490.0, -490.0, -490.0, -490.0, -490.0, -490.0, -490.0, -490.0, -490.0, -490.0, -490.0, -490.0, -490.0, -490.0, -490.0, -490.0, -490.0, -490.0, -490.0, -490.0, -490.0, -490.0, -489.0, -487.0, -486.0, -485.0, -483.0, -477.0, -473.0, -465.0, -458.0, -444.0, -415.0, -393.0, -349.0, -297.0, -255.0, -212.0, -200.0, -119.0, -50.0, 17.0, 67.0, 111.0, 156.0, 202.0, 262.0, 334.0, 391.0, 434.0, 445.0, 447.0, 447.0, 447.0]	[0.008236841385951266, 0.013669837557245046, 0.018399687920464203, 0.03122390725184232, 0.048384761408669874, 0.06504351485637017, 0.08183368147001602, 0.0979493742052, 0.11473954081884585, 0.1328342818596866, 0.14780958130722865, 0.16609205547138117, 0.18172134878113866, 0.19845485413679853, 0.21497741574421525, 0.23130200422019698, 0.24810138682369143, 0.26507348389714025, 0.2813704244035762, 0.2984019134019036, 0.31470875258673914, 0.3317852975160349, 0.3480726807320025, 0.36516424431465566, 0.38139940358814783, 0.3984459112107288, 0.4147326117672492, 0.4317043674818706, 0.4480647959280759, 0.4650897996034473, 0.48140039344434626, 0.49848308236687444, 0.5147622735821642, 0.53178864257643, 0.5482842388737481, 0.565093861456262, 0.5813017140899319, 0.5984693949285429, 0.6149414392421022, 0.6316059953242075, 0.6481818048632704, 0.6650702753686346, 0.6812863199738786, 0.6984509288158733, 0.7149571064219344, 0.7318749315454625, 0.7481650454283226, 0.7651002785132732, 0.7812914058449678, 0.7984498706646264, 0.8146177873713896, 0.8317605508782435, 0.8479520195396617, 0.8651541750004981, 0.8812889823748264, 0.8984791911789216, 0.914629358536331, 0.9319127512280829, 0.9481322091887705]
21	animate/a66.jpg	inanimate	animate	right	1.232	[0.0, 0.0, 0.0, 0.0, 0.0, 0.0, 0.0, 0.0, 0.0, 0.0, 0.0, 0.0, 0.0, 0.0, 0.0, 0.0, 0.0, -1.0, -4.0, -6.0, -11.0, -14.0, -18.0, -21.0, -25.0, -28.0, -28.0, -28.0, -28.0, -28.0, -28.0, -19.0, -2.0, 27.0, 102.0, 129.0, 203.0, 251.0, 283.0, 313.0, 341.0, 370.0, 400.0, 432.0, 463.0, 485.0, 516.0, 551.0, 574.0, 583.0, 589.0, 601.0, 609.0, 619.0, 630.0, 637.0, 643.0, 647.0, 649.0, 649.0, 649.0, 649.0, 649.0, 649.0, 649.0, 650.0, 652.0, 654.0, 661.0, 675.0, 690.0, 696.0, 696.0, 696.0]	[-490.0, -490.0, -490.0, -490.0, -490.0, -490.0, -490.0, -490.0, -490.0, -490.0, -490.0, -490.0, -490.0, -490.0, -490.0, -490.0, -490.0, -490.0, -490.0, -489.0, -487.0, -486.0, -485.0, -485.0, -485.0, -485.0, -485.0, -485.0, -485.0, -485.0, -479.0, -461.0, -437.0, -396.0, -308.0, -280.0, -212.0, -174.0, -146.0, -112.0, -69.0, -14.0, 41.0, 95.0, 146.0, 181.0, 223.0, 272.0, 308.0, 323.0, 331.0, 353.0, 368.0, 383.0, 399.0, 413.0, 423.0, 430.0, 432.0, 432.0, 432.0, 432.0, 432.0, 432.0, 432.0, 433.0, 435.0, 437.0, 441.0, 446.0, 453.0, 454.0, 454.0, 454.0]	[0.002660963247762993, 0.0101583409414161, 0.019899641309166327, 0.0366665972978808, 0.05370149959344417, 0.0705455967981834, 0.08940253427135758, 0.10330195233109407, 0.12042799053597264, 0.1368717042496428, 0.15488077071495354, 0.17055443732533604, 0.18927688963594846, 0.20329645689344034, 0.2204088417638559, 0.23689727007877082, 0.25468037417158484, 0.2700099771900568, 0.2870274715241976, 0.30374664088594727, 0.32031903706956655, 0.3366395295888651, 0.3537099305249285, 0.3697621353494469, 0.3870871706458274, 0.4037462654232513, 0.4204661174444482, 0.43666099943220615, 0.45373140036826953, 0.4698877117189113, 0.48709942449931987, 0.5037489619280677, 0.5215952126309276, 0.5366346826485824, 0.5536303316766862, 0.5700706320349127, 0.5869662705226801, 0.6060430264042225, 0.6203714999428485, 0.6369012295326684, 0.6536439508781768, 0.6726599494868424, 0.6870597616070881, 0.7040298106730916, 0.7204830816772301, 0.7366605557035655, 0.7535807701351587, 0.7702449848875403, 0.7869784902432002, 0.803233446815284, 0.8203564130235463, 0.8368090013682377, 0.8537438931525685, 0.8701814628439024, 0.8868538695969619, 0.9035385643364862, 0.9204014348506462, 0.9368007752636913, 0.9535079979686998, 0.9702261433121748, 0.9870299632602837, 1.0032357678865083, 1.0200829370878637, 1.0370809754531365, 1.0535987583862152, 1.0706124980642926, 1.0866476362280082, 1.103722474508686, 1.12017779352027, 1.1370563653472345, 1.1535577643080615, 1.1704052748391405, 1.1868158792494796, 1.2037507710047066]
22	inanimate/n14.jpg	inanimate	animate	left	0.904	[0.0, 0.0, 0.0, 0.0, 0.0, 2.0, 2.0, 3.0, 3.0, 3.0, 3.0, 3.0, 3.0, 3.0, 3.0, 3.0, -1.0, -9.0, -18.0, -34.0, -44.0, -48.0, -50.0, -52.0, -52.0, -52.0, -52.0, -32.0, 13.0, 87.0, 185.0, 296.0, 410.0, 514.0, 637.0, 659.0, 659.0, 647.0, 620.0, 586.0, 524.0, 413.0, 238.0, 25.0, -204.0, -505.0, -649.0, -730.0, -761.0, -767.0, -767.0, -767.0, -767.0, -767.0]	[-490.0, -490.0, -490.0, -490.0, -489.0, -489.0, -488.0, -487.0, -486.0, -485.0, -485.0, -485.0, -485.0, -485.0, -485.0, -485.0, -484.0, -482.0, -478.0, -465.0, -451.0, -442.0, -436.0, -428.0, -412.0, -392.0, -369.0, -337.0, -293.0, -235.0, -168.0, -91.0, -8.0, 70.0, 162.0, 188.0, 201.0, 217.0, 233.0, 245.0, 262.0, 276.0, 300.0, 325.0, 359.0, 373.0, 377.0, 377.0, 384.0, 387.0, 388.0, 390.0, 390.0, 390.0]	[0.013703185773920268, 0.018876427580835298, 0.02588092055520974, 0.042554692627163604, 0.05928990463144146, 0.07689141962327994, 0.09232444650842808, 0.10982560960110277, 0.1263362245517783, 0.14307996985735372, 0.1597923125664238, 0.17661900180974044, 0.19268178794300184, 0.20967607165221125, 0.2259774495032616, 0.24300757315359078, 0.25931065768236294, 0.27633463733945973, 0.2926206552074291, 0.3096927628212143, 0.326111900532851, 0.34293961376533844, 0.35946524736937135, 0.3762574619613588, 0.39295478601707146, 0.4098043445555959, 0.4262555675813928, 0.44300784621736966, 0.4594908131984994, 0.476323987764772, 0.4928868266288191, 0.5095343160792254, 0.5259251231618691, 0.5430078120843973, 0.5592371686943807, 0.5763147376419511, 0.5925512622343376, 0.6098725428746548, 0.6258663797634654, 0.6430453245702665, 0.6592091452621389, 0.6763751194230281, 0.6926249560201541, 0.7097670368675608, 0.7259110602608416, 0.7430644050764386, 0.7594866148137953, 0.7763146693760063, 0.7927679403801449, 0.809931525203865, 0.8260332233039662, 0.8430875815975014, 0.8618243698729202, 0.8763125872355886]
23	animate/a32.jpg	inanimate	animate	right	1.031	[0.0, 0.0, 0.0, 0.0, 0.0, 0.0, 0.0, 0.0, 0.0, 0.0, 0.0, 0.0, 0.0, 0.0, 0.0, 0.0, 0.0, 0.0, 0.0, 0.0, 0.0, 0.0, 0.0, 0.0, 0.0, 0.0, -3.0, -15.0, -29.0, -38.0, -44.0, -46.0, -46.0, -37.0, -6.0, 61.0, 158.0, 271.0, 388.0, 499.0, 600.0, 687.0, 766.0, 816.0, 842.0, 862.0, 876.0, 880.0, 882.0, 882.0, 882.0, 882.0, 882.0, 882.0, 882.0, 882.0, 882.0, 882.0, 882.0, 882.0, 882.0, 882.0]	[-490.0, -490.0, -490.0, -490.0, -490.0, -490.0, -490.0, -490.0, -490.0, -490.0, -490.0, -490.0, -490.0, -490.0, -490.0, -490.0, -490.0, -490.0, -490.0, -490.0, -490.0, -490.0, -490.0, -490.0, -490.0, -490.0, -487.0, -455.0, -425.0, -406.0, -393.0, -388.0, -388.0, -381.0, -364.0, -329.0, -262.0, -166.0, -81.0, -1.0, 71.0, 154.0, 248.0, 328.0, 390.0, 436.0, 479.0, 509.0, 535.0, 540.0, 540.0, 540.0, 540.0, 540.0, 540.0, 540.0, 540.0, 540.0, 540.0, 540.0, 540.0, 540.0]	[0.002667653316166252, 0.011716389184584841, 0.02045690140221268, 0.037012230954132974, 0.054232135735219344, 0.07036182313458994, 0.08753633059677668, 0.10371346329338849, 0.12078113356255926, 0.1371995886147488, 0.15418977630906738, 0.1705993567011319, 0.18760900039342232, 0.2064379485673271, 0.2207691527728457, 0.2372995650221128, 0.2542525474273134, 0.2730449729715474, 0.2877195581095293, 0.3067335087398533, 0.32075614799396135, 0.3397656612796709, 0.3540985721629113, 0.37299339758465067, 0.387467961612856, 0.40653754951199517, 0.4207544071832672, 0.4381224504322745, 0.4541039993346203, 0.4707429554546252, 0.48755291939596646, 0.5040416890115011, 0.520812399656279, 0.5372639640117995, 0.5540172666369472, 0.5705951241834555, 0.5873419415147509, 0.6040399482299108, 0.6206618376891129, 0.6372758765064646, 0.654055803141091, 0.6703633249853738, 0.6871647555963136, 0.7041426553041674, 0.7204675851389766, 0.7375809940276667, 0.7539909157494549, 0.7709353648533579, 0.7873111532826442, 0.804122482513776, 0.8206778120656963, 0.837545802583918, 0.8539314896916039, 0.8708568241272587, 0.8870158661738969, 0.9041671630111523, 0.9208020231453702, 0.9373409686959349, 0.9537331411265768, 0.9708905819570646, 0.9873435116314795, 1.0041295822593383]
24	inanimate/n13.jpg	inanimate	animate	left	1.396	[0.0, 0.0, 0.0, 0.0, 0.0, 0.0, 0.0, 0.0, 0.0, 0.0, 0.0, 0.0, 0.0, 0.0, 0.0, 0.0, 0.0, 0.0, 0.0, 0.0, 0.0, 0.0, 0.0, 0.0, 0.0, 1.0, 11.0, 17.0, 78.0, 112.0, 220.0, 319.0, 429.0, 543.0, 630.0, 689.0, 714.0, 731.0, 747.0, 756.0, 759.0, 759.0, 753.0, 734.0, 717.0, 699.0, 681.0, 654.0, 622.0, 587.0, 547.0, 498.0, 427.0, 330.0, 154.0, 54.0, -3.0, -30.0, -51.0, -73.0, -108.0, -160.0, -222.0, -296.0, -372.0, -444.0, -523.0, -557.0, -576.0, -588.0, -594.0, -606.0, -620.0, -638.0, -659.0, -689.0, -714.0, -728.0, -741.0, -746.0, -748.0, -748.0, -748.0, -748.0]	[-490.0, -490.0, -490.0, -490.0, -490.0, -490.0, -490.0, -490.0, -490.0, -490.0, -490.0, -490.0, -490.0, -490.0, -490.0, -490.0, -490.0, -490.0, -490.0, -490.0, -490.0, -490.0, -490.0, -490.0, -490.0, -483.0, -456.0, -440.0, -346.0, -302.0, -182.0, -99.0, -39.0, 19.0, 65.0, 98.0, 119.0, 151.0, 193.0, 226.0, 241.0, 244.0, 257.0, 279.0, 295.0, 308.0, 320.0, 332.0, 345.0, 354.0, 364.0, 370.0, 370.0, 370.0, 370.0, 370.0, 370.0, 370.0, 372.0, 375.0, 381.0, 381.0, 381.0, 381.0, 381.0, 376.0, 362.0, 350.0, 345.0, 341.0, 340.0, 340.0, 340.0, 340.0, 341.0, 345.0, 347.0, 349.0, 356.0, 363.0, 367.0, 367.0, 367.0, 367.0]	[0.0011313138529658318, 0.007371903746388853, 0.0173852464358788, 0.034343690174864605, 0.05089287576265633, 0.06728300015674904, 0.08450290493783541, 0.1006636536330916, 0.11781119581428356, 0.13402382709318772, 0.15121096390066668, 0.16734099262976088, 0.18453324944130145, 0.20065303816227242, 0.21795349751482718, 0.23416715278290212, 0.2512105884379707, 0.2673723611223977, 0.28453287394950166, 0.30071922263596207, 0.31771623698296025, 0.33430706517538056, 0.3511856370023452, 0.3674508335534483, 0.3844888078747317, 0.4043281015183311, 0.41778515209443867, 0.4341943911567796, 0.4511934535112232, 0.47027703604544513, 0.48453382970183156, 0.5034839510626625, 0.5178742058633361, 0.5368888391531073, 0.5510818035108969, 0.5679825620027259, 0.584388387738727, 0.6007873868220486, 0.6177717718528584, 0.6343933199823368, 0.6511783666210249, 0.6676084269711282, 0.6843129190092441, 0.7009846431028564, 0.717848537635291, 0.7342888379935175, 0.7511865244596265, 0.7674230490811169, 0.7842063890129793, 0.8012979525956325, 0.8175931864534505, 0.8344396729953587, 0.8509410719561856, 0.8679230676789302, 0.8842824721359648, 0.9010924360482022, 0.9175842776894569, 0.9346673079417087, 0.9510919069871306, 0.9678527189535089, 0.9840605715871789, 1.0011944604630116, 1.0173917317588348, 1.0345542925933842, 1.0508628384559415, 1.0676898690289818, 1.0842793318734039, 1.1010974877572153, 1.1173858949914575, 1.1346204770670738, 1.1507330978056416, 1.167827733384911, 1.1842461884371005, 1.201199170842301, 1.2173844955104869, 1.2345235043612774, 1.2508525302109774, 1.2678242859255988, 1.2841376104333904, 1.3011704647506122, 1.3173397467762697, 1.33453234488843, 1.3506797816080507, 1.3678833023877814]
25	inanimate/n15.jpg	animate	inanimate	right	1.136	[0.0, 0.0, 0.0, 0.0, 0.0, 0.0, 0.0, 0.0, 0.0, 0.0, 0.0, 0.0, 0.0, 0.0, 0.0, 0.0, 0.0, 0.0, 0.0, 0.0, 0.0, 1.0, 1.0, 1.0, 1.0, 1.0, 3.0, 4.0, 4.0, 4.0, 4.0, 5.0, 5.0, 5.0, 1.0, -10.0, -13.0, -4.0, 33.0, 93.0, 186.0, 281.0, 368.0, 434.0, 475.0, 493.0, 505.0, 507.0, 500.0, 478.0, 467.0, 464.0, 464.0, 464.0, 482.0, 533.0, 601.0, 663.0, 708.0, 739.0, 755.0, 762.0, 772.0, 782.0, 790.0, 795.0, 796.0, 796.0, 796.0]	[-490.0, -490.0, -490.0, -490.0, -490.0, -490.0, -490.0, -490.0, -490.0, -490.0, -490.0, -490.0, -490.0, -490.0, -490.0, -490.0, -490.0, -490.0, -490.0, -490.0, -490.0, -491.0, -491.0, -491.0, -491.0, -491.0, -491.0, -490.0, -490.0, -490.0, -490.0, -490.0, -488.0, -477.0, -453.0, -402.0, -359.0, -266.0, -180.0, -81.0, 44.0, 152.0, 235.0, 284.0, 313.0, 330.0, 345.0, 354.0, 363.0, 374.0, 377.0, 379.0, 381.0, 390.0, 416.0, 446.0, 469.0, 474.0, 477.0, 479.0, 480.0, 480.0, 476.0, 468.0, 464.0, 463.0, 462.0, 462.0, 462.0]	[0.014615568681620061, 0.021917362610111013, 0.030142120784148574, 0.044463085010647774, 0.06063953501870856, 0.07786421844502911, 0.09393417258979753, 0.11123292526463047, 0.12727830340736546, 0.14467023996985517, 0.16080538870301098, 0.17788090964313596, 0.19405497031402774, 0.21100215005571954, 0.22725778931635432, 0.24440601415699348, 0.2607527892978396, 0.277764139638748, 0.2939494643069338, 0.3110625318659004, 0.3275676854827907, 0.3444827799394261, 0.36086778435856104, 0.37776171616860665, 0.3940002887684386, 0.4111915215617046, 0.42759837131598033, 0.4445984576595947, 0.46065236916183494, 0.47763334086630493, 0.4939767026808113, 0.5111085435491987, 0.5275925345194992, 0.5445997888455167, 0.5605929430748802, 0.5777350239513908, 0.5939418525667861, 0.6113317411218304, 0.6272617487702519, 0.644458442897303, 0.6609141032386106, 0.6777913097466808, 0.694004623714136, 0.7111883471661713, 0.7275429729779717, 0.744573779287748, 0.7607730985910166, 0.7777960542589426, 0.793905603029998, 0.8112180090101901, 0.8275374775112141, 0.8445952491310891, 0.8609119869652204, 0.877851998724509, 0.8941602032573428, 0.911185548233334, 0.9275227660546079, 0.9444839404604863, 0.9608723582059611, 0.9778690312523395, 0.9939000734302681, 1.0111076901957858, 1.0274708493088838, 1.0445600235834718, 1.0608822227513883, 1.0778717277862597, 1.0939457779168151, 1.1110721574514173, 1.1272380261216313]
26	inanimate/n40.jpg	inanimate	animate	left	1.494	[0.0, 0.0, 0.0, 0.0, 0.0, 0.0, 0.0, 0.0, 0.0, 0.0, 0.0, 0.0, 0.0, 0.0, 0.0, 0.0, 0.0, 0.0, 0.0, -3.0, -3.0, -3.0, -3.0, -3.0, 1.0, 13.0, 31.0, 70.0, 117.0, 187.0, 263.0, 368.0, 475.0, 592.0, 686.0, 760.0, 812.0, 850.0, 870.0, 872.0, 872.0, 872.0, 869.0, 859.0, 845.0, 830.0, 815.0, 778.0, 755.0, 687.0, 529.0, 403.0, 254.0, 83.0, -101.0, -285.0, -419.0, -546.0, -657.0, -750.0, -821.0, -857.0, -874.0, -876.0, -876.0, -876.0, -876.0, -877.0, -877.0, -877.0, -864.0, -847.0, -818.0, -787.0, -745.0, -730.0, -727.0, -727.0, -727.0, -727.0, -727.0, -727.0, -727.0, -727.0, -727.0, -727.0, -727.0, -727.0, -727.0, -727.0]	[-490.0, -490.0, -490.0, -490.0, -490.0, -490.0, -490.0, -490.0, -490.0, -490.0, -490.0, -490.0, -490.0, -490.0, -490.0, -490.0, -490.0, -490.0, -490.0, -486.0, -478.0, -465.0, -445.0, -420.0, -387.0, -336.0, -266.0, -153.0, -108.0, -64.0, -28.0, 18.0, 63.0, 119.0, 179.0, 234.0, 280.0, 330.0, 375.0, 390.0, 397.0, 403.0, 414.0, 424.0, 434.0, 440.0, 447.0, 462.0, 473.0, 492.0, 526.0, 540.0, 540.0, 532.0, 501.0, 450.0, 414.0, 377.0, 347.0, 331.0, 319.0, 318.0, 318.0, 318.0, 318.0, 318.0, 318.0, 318.0, 322.0, 331.0, 347.0, 363.0, 386.0, 409.0, 439.0, 449.0, 451.0, 451.0, 451.0, 451.0, 451.0, 451.0, 451.0, 451.0, 451.0, 451.0, 451.0, 451.0, 451.0, 451.0]	[0.015961444383719936, 0.02188834932167083, 0.030178643413819373, 0.047165759111521766, 0.06409757887013257, 0.08005079717258923, 0.09731746453326195, 0.11397587662213482, 0.13038545701419935, 0.14671755486051552, 0.16392483029630966, 0.1806911035964731, 0.19710477997432463, 0.21350343772792257, 0.23068067588610575, 0.2473974559106864, 0.26362510584294796, 0.2800742808612995, 0.29729179630521685, 0.31334946243441664, 0.3305236285959836, 0.34682534777675755, 0.36394387666950934, 0.38042957431753166, 0.39733101543970406, 0.4133719562960323, 0.43046181320096366, 0.4468410149565898, 0.46400425845058635, 0.4803571775846649, 0.4973016266885679, 0.5134111754305195, 0.5304597310605459, 0.5470505592529662, 0.5639813550224062, 0.5803322261490393, 0.5972555126063526, 0.6136142344039399, 0.6307003366528079, 0.6469662158924621, 0.663979614211712, 0.680336970690405, 0.6973189663840458, 0.7136674482026137, 0.7306245265936013, 0.7467859579774085, 0.7651223627326544, 0.7802611606311984, 0.7972308683674783, 0.8137097393337172, 0.8306282471457962, 0.8470009635784663, 0.8640901378239505, 0.88044066762086, 0.8972533621999901, 0.9134182068810333, 0.9305862290493678, 0.9467336657689884, 0.9640184237796348, 0.9803150229854509, 0.9972912160155829, 1.0133669728238601, 1.030541138985427, 1.0470077219652012, 1.0639675310521852, 1.080022807844216, 1.0971085687924642, 1.1133713760063984, 1.1304533822694793, 1.1469148452742957, 1.163970568915829, 1.1804726505069993, 1.1973205023969058, 1.2133768032072112, 1.2305943186511286, 1.246977275062818, 1.2639971587341279, 1.2800862275180407, 1.2971095245156903, 1.313384619745193, 1.3304669673379976, 1.3469485689711291, 1.3640254552301485, 1.3802677824860439, 1.39725489821285, 1.4136928092339076, 1.43057957306155, 1.4469068922335282, 1.4640476077329367, 1.4803049536421895]
27	inanimate/n57.jpg	inanimate	animate	left	1.869	[0.0, 0.0, 0.0, 0.0, 0.0, 0.0, 0.0, 0.0, 0.0, 0.0, 0.0, 0.0, 0.0, 1.0, 3.0, 5.0, 8.0, 11.0, 16.0, 31.0, 47.0, 61.0, 80.0, 99.0, 126.0, 169.0, 212.0, 261.0, 317.0, 381.0, 446.0, 520.0, 591.0, 621.0, 642.0, 653.0, 660.0, 668.0, 679.0, 690.0, 696.0, 700.0, 700.0, 700.0, 700.0, 619.0, 487.0, 306.0, 85.0, -152.0, -390.0, -614.0, -793.0, -926.0, -960.0, -960.0, -960.0, -960.0, -960.0, -960.0, -960.0, -960.0, -960.0, -960.0, -960.0, -960.0, -960.0, -960.0, -960.0, -960.0, -957.0, -949.0, -936.0, -915.0, -871.0, -819.0, -748.0, -662.0, -587.0, -493.0, -465.0, -418.0, -405.0, -399.0, -399.0, -399.0, -399.0, -399.0, -404.0, -467.0, -559.0, -668.0, -795.0, -838.0, -850.0, -855.0, -855.0, -855.0, -855.0, -855.0, -855.0, -855.0, -855.0, -855.0, -855.0, -855.0, -851.0, -842.0, -828.0, -815.0, -813.0, -813.0]	[-490.0, -490.0, -490.0, -490.0, -490.0, -490.0, -490.0, -490.0, -490.0, -490.0, -490.0, -489.0, -488.0, -486.0, -484.0, -482.0, -478.0, -474.0, -468.0, -443.0, -415.0, -390.0, -362.0, -337.0, -303.0, -243.0, -180.0, -102.0, -21.0, 55.0, 128.0, 199.0, 279.0, 323.0, 353.0, 372.0, 386.0, 398.0, 418.0, 437.0, 452.0, 460.0, 460.0, 460.0, 460.0, 464.0, 464.0, 464.0, 464.0, 464.0, 466.0, 466.0, 475.0, 486.0, 486.0, 486.0, 486.0, 486.0, 486.0, 486.0, 486.0, 486.0, 486.0, 486.0, 486.0, 486.0, 486.0, 486.0, 486.0, 485.0, 483.0, 478.0, 467.0, 448.0, 400.0, 340.0, 264.0, 184.0, 105.0, -4.0, -37.0, -103.0, -123.0, -131.0, -133.0, -133.0, -133.0, -133.0, -130.0, -74.0, 10.0, 116.0, 246.0, 290.0, 308.0, 324.0, 332.0, 333.0, 333.0, 333.0, 333.0, 333.0, 333.0, 333.0, 333.0, 333.0, 346.0, 369.0, 396.0, 414.0, 415.0, 415.0]	[0.0030047878972254694, 0.010010304860770702, 0.020501172315562144, 0.037423776113428175, 0.054481889063026756, 0.07066789639065973, 0.08800487834378146, 0.10465236779418774, 0.1209288283425849, 0.13738141668727621, 0.15477130524232052, 0.17122389358701184, 0.18772563387756236, 0.2067788377753459, 0.2212336045340635, 0.2376800488855224, 0.2542944290325977, 0.27068148145917803, 0.28789899687399156, 0.304630454222206, 0.3209123761043884, 0.3373100098397117, 0.3547367623541504, 0.370831633801572, 0.3879129574052058, 0.404132756695617, 0.4211045124102384, 0.4374379755463451, 0.4546152137045283, 0.4707725490734447, 0.48791053393506445, 0.5040501199837308, 0.5212000515020918, 0.5374396480910946, 0.5546499955235049, 0.5707882162532769, 0.5878777318284847, 0.6040866084804293, 0.621193873375887, 0.6374710165837314, 0.6545861321501434, 0.6709568005753681, 0.6879193403292447, 0.7040749690204393, 0.7212208045239095, 0.7376945555151906, 0.7545850739988964, 0.7710069423774257, 0.7878923408861738, 0.8042708599823527, 0.8212357890442945, 0.8375910975155421, 0.8547236210433766, 0.870942396344617, 0.887936338694999, 0.9042814071581233, 0.9212371202593204, 0.9376429459953215, 0.9546129950322211, 0.9706870451627765, 0.9878250300243963, 1.0043076556758024, 1.0212138754723128, 1.0376688531541731, 1.0547822620428633, 1.0709170694171917, 1.0878966758027673, 1.104048891196726, 1.1212937132513616, 1.1373756140237674, 1.1546163400926162, 1.1709822298726067, 1.187919169664383, 1.2040140410827007, 1.2211707992537413, 1.2373632919043303, 1.2545374580658972, 1.2709733211086132, 1.287983647431247, 1.3043225719302427, 1.3213175382988993, 1.3375144682649989, 1.3548367728944868, 1.3707514205598272, 1.3879406053747516, 1.4039979301742278, 1.4209758298820816, 1.4379499749629758, 1.454042798402952, 1.471218671213137, 1.4876442942477297, 1.5047112818574533, 1.520986377086956, 1.537840372940991, 1.5541700814501382, 1.5712916823104024, 1.5874756416596938, 1.60461021316587, 1.6208556124474853, 1.6378338534850627, 1.6540444367856253, 1.671201877616113, 1.687454103550408, 1.7045241631567478, 1.721006106119603, 1.737935195240425, 1.7540696612850297, 1.7712882007181179, 1.787363274837844, 1.8045210570271593, 1.8209306374192238, 1.8379044411412906]
28	inanimate/n52.jpg	animate	inanimate	right	1.412	[0.0, 0.0, 0.0, 0.0, 0.0, 0.0, 0.0, 0.0, 0.0, 0.0, 0.0, 0.0, 0.0, 0.0, 0.0, 0.0, 0.0, 0.0, 0.0, 0.0, 0.0, 0.0, 0.0, 0.0, 0.0, 1.0, 3.0, 6.0, 8.0, 10.0, 12.0, 18.0, 21.0, 25.0, 32.0, 41.0, 55.0, 68.0, 86.0, 104.0, 121.0, 147.0, 173.0, 210.0, 246.0, 284.0, 302.0, 318.0, 333.0, 345.0, 360.0, 379.0, 417.0, 482.0, 605.0, 689.0, 751.0, 799.0, 824.0, 843.0, 854.0, 857.0, 857.0, 858.0, 859.0, 860.0, 860.0, 860.0, 860.0, 860.0, 860.0, 860.0, 860.0, 860.0, 860.0, 860.0, 860.0, 860.0, 860.0, 860.0, 860.0, 860.0, 860.0, 860.0, 860.0]	[-490.0, -490.0, -490.0, -490.0, -490.0, -490.0, -490.0, -490.0, -490.0, -490.0, -490.0, -490.0, -490.0, -490.0, -490.0, -490.0, -490.0, -490.0, -490.0, -490.0, -490.0, -490.0, -490.0, -490.0, -490.0, -490.0, -489.0, -486.0, -483.0, -482.0, -480.0, -476.0, -474.0, -471.0, -465.0, -458.0, -440.0, -422.0, -399.0, -377.0, -358.0, -323.0, -287.0, -225.0, -139.0, -47.0, -4.0, 26.0, 48.0, 65.0, 85.0, 106.0, 149.0, 207.0, 292.0, 348.0, 391.0, 431.0, 455.0, 471.0, 480.0, 483.0, 484.0, 486.0, 487.0, 489.0, 491.0, 491.0, 491.0, 491.0, 491.0, 491.0, 491.0, 491.0, 491.0, 491.0, 491.0, 491.0, 491.0, 491.0, 491.0, 491.0, 491.0, 491.0, 491.0]	[0.01070286933099851, 0.016447502479422837, 0.022383282048394904, 0.03568775684107095, 0.05281959768035449, 0.06903530098497868, 0.08610433660214767, 0.10241800243966281, 0.11973313908674754, 0.13638677253038622, 0.15289568080333993, 0.1691339120734483, 0.18644631805364043, 0.20244288560934365, 0.2196310464059934, 0.23587337366188876, 0.25292807328514755, 0.2693796376406681, 0.2864077133126557, 0.3024373901425861, 0.3193186926364433, 0.33625938708428293, 0.3525276556320023, 0.36928266496397555, 0.38629162596771494, 0.4025349772418849, 0.4195651008922141, 0.43603202523081563, 0.45288260775851086, 0.46935738273896277, 0.4862021626031492, 0.502459508512402, 0.5194561815587804, 0.5358749779406935, 0.5528228403709363, 0.5695781910035294, 0.5861055312561803, 0.6024570850713644, 0.6195312406634912, 0.6358575358171947, 0.6529374940728303, 0.6691726533463225, 0.6862874275830109, 0.7024389602884185, 0.7195912811148446, 0.7357349631784018, 0.7529937798972242, 0.7692367898125667, 0.7862368761852849, 0.8024419981520623, 0.8196120682987384, 0.8357680383196566, 0.85299203908653, 0.8705781940661836, 0.8861402448092122, 0.9025600652093999, 0.9195987221901305, 0.935916142683709, 0.9529152050381526, 0.9717052412743215, 0.9862166692619212, 1.0026685749471653, 1.0195171094674151, 1.0385761160578113, 1.0528571443283, 1.0693080259952694, 1.0862429177504964, 1.105511161411414, 1.119513662008103, 1.1387511857028585, 1.152831851533847, 1.1719550286943559, 1.1862043130095117, 1.205118594400119, 1.2195146518934052, 1.2386088157363702, 1.2529287559736986, 1.2705104736378416, 1.286308044072939, 1.3036678953503724, 1.3195818603271618, 1.3365020747878589, 1.3528945885482244, 1.369359123549657, 1.386031188943889]
29	animate/a30.jpg	inanimate	animate	right	1.064	[0.0, 0.0, 0.0, 0.0, 0.0, 0.0, 0.0, 0.0, 0.0, 0.0, 0.0, 0.0, 0.0, 0.0, 0.0, 0.0, 0.0, -1.0, -2.0, -2.0, -2.0, -3.0, -3.0, -4.0, -6.0, -6.0, -6.0, -6.0, -6.0, -6.0, -7.0, -10.0, -10.0, -10.0, -10.0, -9.0, -3.0, 3.0, 18.0, 37.0, 60.0, 87.0, 110.0, 130.0, 153.0, 176.0, 212.0, 249.0, 301.0, 358.0, 426.0, 493.0, 554.0, 607.0, 668.0, 738.0, 789.0, 831.0, 862.0, 879.0, 890.0, 890.0, 890.0, 890.0]	[-490.0, -490.0, -490.0, -490.0, -490.0, -490.0, -490.0, -490.0, -490.0, -490.0, -489.0, -489.0, -489.0, -489.0, -489.0, -489.0, -488.0, -484.0, -480.0, -476.0, -475.0, -470.0, -467.0, -460.0, -448.0, -433.0, -418.0, -405.0, -395.0, -387.0, -376.0, -363.0, -357.0, -350.0, -341.0, -323.0, -291.0, -266.0, -231.0, -201.0, -159.0, -121.0, -87.0, -62.0, -31.0, 9.0, 66.0, 118.0, 173.0, 215.0, 260.0, 298.0, 333.0, 363.0, 383.0, 402.0, 416.0, 429.0, 438.0, 445.0, 450.0, 450.0, 450.0, 450.0]	[0.010803903918713331, 0.016284345387248322, 0.022527665918460116, 0.039731528027914464, 0.053541858185781166, 0.07058597650029697, 0.08684946640278213, 0.10605763545027003, 0.1201229413272813, 0.13904234272195026, 0.1535107627569232, 0.1728960836189799, 0.1867248457565438, 0.20446323521900922, 0.22003859796677716, 0.23717180415405892, 0.2533738541242201, 0.2705009163473733, 0.28696852331631817, 0.30379999123397283, 0.3200604091398418, 0.3371021381171886, 0.35379707283573225, 0.37079135651583783, 0.3870405104535166, 0.40383886903873645, 0.42006412966293283, 0.4372427331400104, 0.45346492176759057, 0.47050869872327894, 0.4867199646832887, 0.5038497575733345, 0.5204125964373816, 0.5371402991295327, 0.5536205354437698, 0.570464632648509, 0.5869537436228711, 0.6038582567416597, 0.6200265147781465, 0.6374160620034672, 0.6533703042659909, 0.670482006506063, 0.6869509788230062, 0.7038111186702736, 0.720027504634345, 0.7371907481283415, 0.7534699393436313, 0.7704799243656453, 0.7867741342342924, 0.8038462418480776, 0.8200380518101156, 0.8373207618424203, 0.8533671640034299, 0.8705464501399547, 0.8866914975224063, 0.9038656636839733, 0.9200540603487752, 0.9372807917534374, 0.9534029698406812, 0.9705470986955334, 0.9867317406751681, 1.0038844028604217, 1.0200966928096022, 1.0374841920565814]
30	animate/a29.jpg	inanimate	animate	right	1.064	[0.0, 0.0, 0.0, 0.0, 0.0, 0.0, 0.0, 0.0, -1.0, -1.0, -1.0, -1.0, -1.0, -1.0, -1.0, -1.0, -3.0, -8.0, -16.0, -28.0, -38.0, -47.0, -56.0, -62.0, -74.0, -87.0, -105.0, -116.0, -116.0, -116.0, -97.0, -71.0, -54.0, -39.0, -8.0, 46.0, 112.0, 172.0, 238.0, 307.0, 379.0, 468.0, 551.0, 601.0, 679.0, 722.0, 751.0, 772.0, 783.0, 785.0, 785.0, 785.0, 785.0, 785.0, 785.0, 785.0, 785.0, 785.0, 785.0, 786.0, 788.0, 788.0, 788.0, 788.0]	[-490.0, -490.0, -490.0, -490.0, -490.0, -490.0, -490.0, -490.0, -489.0, -489.0, -489.0, -489.0, -489.0, -489.0, -488.0, -487.0, -484.0, -480.0, -474.0, -464.0, -436.0, -414.0, -394.0, -378.0, -351.0, -324.0, -292.0, -275.0, -269.0, -259.0, -210.0, -143.0, -78.0, 16.0, 74.0, 123.0, 169.0, 215.0, 261.0, 299.0, 330.0, 368.0, 412.0, 440.0, 481.0, 507.0, 523.0, 538.0, 540.0, 540.0, 540.0, 540.0, 540.0, 540.0, 540.0, 540.0, 540.0, 540.0, 540.0, 540.0, 540.0, 540.0, 540.0, 540.0]	[0.016474126430694014, 0.021522781724343076, 0.029885438416386023, 0.04755521996412426, 0.06338794770999812, 0.08286235644482076, 0.09666108130477369, 0.11395095931948163, 0.13023390519083478, 0.14727153818239458, 0.16379136909381486, 0.18057129572844133, 0.19704572937916964, 0.21398437581956387, 0.23040487885009497, 0.2473192906472832, 0.26379508964600973, 0.28055624294211157, 0.2971067938487977, 0.3140034563257359, 0.3301836609898601, 0.34713698472478427, 0.36380119950626977, 0.3805306088470388, 0.3970210851402953, 0.41391365163144656, 0.43051198913599364, 0.4472294518200215, 0.46354823766159825, 0.48067564121447504, 0.4968694991839584, 0.5139327321376186, 0.5301344407780562, 0.5473778975137975, 0.5634782302659005, 0.5807978042575996, 0.5969960995716974, 0.6139593219850212, 0.6302108652307652, 0.6473119861329906, 0.6634880948113278, 0.6807158502342645, 0.6968387109518517, 0.7140098051168025, 0.7304432788223494, 0.7471716641739476, 0.7636007005348802, 0.7806584721547551, 0.7990426635369658, 0.8139916803338565, 0.8329865162959322, 0.847235800611088, 0.8665149669104721, 0.880617819406325, 0.8995512154651806, 0.913898803642951, 0.9327188771567307, 0.9472698997706175, 0.964803489507176, 0.9806877585069742, 0.9971195255639032, 1.0137352710298728, 1.0301400727767032, 1.0470230819482822]
31	inanimate/n68.jpg	animate	inanimate	right	1.816	[0.0, 0.0, 0.0, 0.0, 0.0, 0.0, 0.0, 0.0, 0.0, 0.0, 0.0, 1.0, 1.0, 1.0, 2.0, 4.0, 4.0, 4.0, 5.0, 7.0, 11.0, 17.0, 23.0, 29.0, 38.0, 56.0, 78.0, 107.0, 134.0, 156.0, 172.0, 181.0, 190.0, 200.0, 250.0, 339.0, 460.0, 576.0, 678.0, 787.0, 874.0, 939.0, 959.0, 959.0, 959.0, 959.0, 956.0, 939.0, 901.0, 831.0, 727.0, 588.0, 412.0, 236.0, 64.0, -50.0, -90.0, -91.0, -76.0, -29.0, 44.0, 133.0, 220.0, 296.0, 359.0, 394.0, 421.0, 449.0, 470.0, 487.0, 492.0, 498.0, 509.0, 528.0, 547.0, 565.0, 570.0, 570.0, 570.0, 570.0, 574.0, 600.0, 675.0, 846.0, 946.0, 959.0, 959.0, 959.0, 959.0, 959.0, 959.0, 959.0, 959.0, 959.0, 959.0, 959.0, 959.0, 959.0, 959.0, 957.0, 951.0, 944.0, 942.0, 941.0, 941.0, 941.0, 941.0, 941.0, 941.0]	[-490.0, -490.0, -490.0, -490.0, -490.0, -490.0, -490.0, -490.0, -490.0, -490.0, -490.0, -489.0, -489.0, -489.0, -489.0, -488.0, -487.0, -484.0, -481.0, -476.0, -468.0, -459.0, -439.0, -420.0, -392.0, -349.0, -303.0, -252.0, -205.0, -165.0, -139.0, -120.0, -94.0, -72.0, -6.0, 56.0, 108.0, 160.0, 202.0, 253.0, 302.0, 339.0, 367.0, 380.0, 388.0, 391.0, 402.0, 411.0, 427.0, 445.0, 469.0, 498.0, 529.0, 540.0, 540.0, 539.0, 524.0, 522.0, 517.0, 514.0, 514.0, 514.0, 514.0, 522.0, 532.0, 537.0, 537.0, 537.0, 537.0, 540.0, 540.0, 540.0, 540.0, 540.0, 540.0, 540.0, 540.0, 540.0, 540.0, 540.0, 539.0, 516.0, 453.0, 335.0, 289.0, 281.0, 281.0, 281.0, 281.0, 281.0, 281.0, 281.0, 281.0, 281.0, 281.0, 281.0, 281.0, 283.0, 304.0, 331.0, 359.0, 381.0, 391.0, 393.0, 393.0, 393.0, 393.0, 393.0, 393.0]	[0.0012398577528074384, 0.008924627240048721, 0.01767503810697235, 0.0340764265274629, 0.051264587324112654, 0.06780011954833753, 0.08454249956412241, 0.1011346930754371, 0.11801565423957072, 0.13695997293689288, 0.15136149173486046, 0.16878926823846996, 0.1847383905260358, 0.2012507121253293, 0.217805700347526, 0.23460098696523346, 0.2514020762173459, 0.26759491019765846, 0.2845830499136355, 0.30110834215884097, 0.3176769837155007, 0.33608609237126075, 0.3510931357741356, 0.36844035773538053, 0.3842365628515836, 0.40138751835911535, 0.41754656040575355, 0.43505455015110783, 0.45115385891404003, 0.46797611081274226, 0.48420068877749145, 0.5015584920183755, 0.5178158379567321, 0.5346541324979626, 0.5510418675839901, 0.5680262526147999, 0.5842310332518537, 0.6015639192191884, 0.6175345454830676, 0.6346544396947138, 0.6509623028687201, 0.6680190504994243, 0.6842060818162281, 0.7013638640055433, 0.7178778922825586, 0.7346782988752238, 0.7511865244887304, 0.7679773737618234, 0.7843733008194249, 0.8012566513207275, 0.8175522265373729, 0.8347038647043519, 0.8508666613779496, 0.8680196648929268, 0.884215912228683, 0.9013419504335616, 0.9175655043800361, 0.9347109985537827, 0.9509051978820935, 0.9680421587254386, 0.9842773179989308, 1.0015446680481546, 1.0175804889004212, 1.034757385699777, 1.051071734225843, 1.0680400766141247, 1.0844472676690202, 1.1013845487614162, 1.119725049531553, 1.1347583755559754, 1.1537757395126391, 1.1679253546171822, 1.1871410329767969, 1.2014244505844545, 1.2188624670961872, 1.2347293281345628, 1.2514785348030273, 1.2680410323373508, 1.2849936734128278, 1.3014169071393553, 1.317617591790622, 1.3343903504137415, 1.3537473406177014, 1.3679348436708096, 1.3866487626510207, 1.4011997852649074, 1.419326952949632, 1.4342373991094064, 1.4524055267393123, 1.467795204371214, 1.4861159078136552, 1.5011287538800389, 1.5193764120922424, 1.5345636792771984, 1.5526789003051817, 1.5675337092252448, 1.5871190511388704, 1.6012014236475807, 1.6192497434385587, 1.6342997947940603, 1.6525184396887198, 1.667763050791109, 1.685174101992743, 1.701145069586346, 1.7188203124678694, 1.7342499260557815, 1.751567793340655, 1.7678497152228374, 1.7846265698608477]
32	inanimate/n19.jpg	animate	inanimate	right	0.971	[0.0, 0.0, 0.0, 0.0, 0.0, 0.0, 0.0, 0.0, 0.0, 0.0, 0.0, 0.0, 0.0, 0.0, 0.0, 0.0, 0.0, 0.0, 0.0, 0.0, -6.0, -15.0, -25.0, -37.0, -48.0, -59.0, -65.0, -65.0, -51.0, -25.0, -6.0, 26.0, 72.0, 131.0, 209.0, 301.0, 390.0, 477.0, 539.0, 570.0, 586.0, 594.0, 599.0, 599.0, 599.0, 599.0, 599.0, 603.0, 613.0, 622.0, 629.0, 633.0, 643.0, 664.0, 686.0, 717.0, 719.0, 719.0]	[-490.0, -490.0, -490.0, -490.0, -490.0, -490.0, -490.0, -490.0, -490.0, -490.0, -490.0, -490.0, -490.0, -490.0, -490.0, -490.0, -490.0, -490.0, -490.0, -489.0, -480.0, -465.0, -450.0, -432.0, -412.0, -390.0, -368.0, -338.0, -284.0, -197.0, -129.0, -35.0, 30.0, 96.0, 162.0, 224.0, 283.0, 338.0, 379.0, 402.0, 414.0, 421.0, 427.0, 427.0, 427.0, 427.0, 427.0, 428.0, 431.0, 433.0, 435.0, 435.0, 439.0, 444.0, 451.0, 465.0, 466.0, 466.0]	[0.0037087187520228326, 0.008670675510074943, 0.02342444987152703, 0.03914248975343071, 0.05761952369357459, 0.072711900313152, 0.089805170573527, 0.10603486851323396, 0.12307796280947514, 0.13930527144111693, 0.1564336989831645, 0.17283884203061461, 0.1898863736714702, 0.20621881281840615, 0.2231223019771278, 0.23930079996353015, 0.2564903261081781, 0.27288795984350145, 0.291038679482881, 0.3062723679759074, 0.32301679597003385, 0.3394413950154558, 0.35641144405235536, 0.37259676872054115, 0.3897753721976187, 0.4059770808380563, 0.42305567377479747, 0.43926659840508364, 0.4564086792524904, 0.472635305224685, 0.48979103937745094, 0.5059319907741155, 0.5231297088903375, 0.5392791935882997, 0.5567530500411522, 0.5726141084451228, 0.5897398053202778, 0.6062152629601769, 0.6229641282989178, 0.6393979433341883, 0.6564287496439647, 0.6750088661210611, 0.6898070137540344, 0.7088475883647334, 0.722995155461831, 0.7407383235986345, 0.7565720753336791, 0.7735759163624607, 0.7897871823224705, 0.8070924203202594, 0.8230261826247443, 0.8396709414082579, 0.8565047986048739, 0.8731894933443982, 0.8898089934955351, 0.9059444835584145, 0.9227015408687294, 0.9409304257715121]
33	inanimate/n39.jpg	animate	inanimate	right	0.889	[0.0, 0.0, 0.0, 0.0, 0.0, 0.0, 0.0, 0.0, 1.0, 1.0, 1.0, 1.0, 1.0, 1.0, 1.0, 1.0, 1.0, 1.0, 1.0, -4.0, -9.0, -10.0, -7.0, 1.0, 31.0, 70.0, 125.0, 179.0, 243.0, 300.0, 354.0, 404.0, 432.0, 475.0, 498.0, 553.0, 570.0, 587.0, 604.0, 617.0, 620.0, 622.0, 622.0, 622.0, 622.0, 641.0, 657.0, 711.0, 733.0, 751.0, 757.0, 759.0, 759.0, 759.0]	[-490.0, -490.0, -490.0, -490.0, -490.0, -490.0, -490.0, -490.0, -490.0, -490.0, -490.0, -490.0, -490.0, -490.0, -490.0, -490.0, -489.0, -476.0, -456.0, -426.0, -385.0, -341.0, -284.0, -257.0, -149.0, -57.0, 29.0, 96.0, 153.0, 201.0, 250.0, 288.0, 308.0, 341.0, 358.0, 396.0, 411.0, 423.0, 436.0, 444.0, 448.0, 449.0, 449.0, 449.0, 449.0, 455.0, 460.0, 473.0, 473.0, 473.0, 474.0, 474.0, 474.0, 474.0]	[0.01298331463476643, 0.017841847497038543, 0.024295429117046297, 0.039067294128471985, 0.05539119997411035, 0.07240118496702053, 0.08879642939427868, 0.10582245705882087, 0.12215182420914061, 0.1391450839000754, 0.15541710713296197, 0.17244723078329116, 0.18864757410483435, 0.2058613348635845, 0.22202242488856427, 0.23917713508126326, 0.25538123305886984, 0.2724683592969086, 0.288669385277899, 0.30578040482942015, 0.3220073721022345, 0.3391535489645321, 0.3553600362793077, 0.37250245845643803, 0.3886782258050516, 0.4058759439212736, 0.42210598319070414, 0.43916170683223754, 0.4553439594747033, 0.47252802428556606, 0.48869628232205287, 0.5058701071247924, 0.5222783221979626, 0.5391022807452828, 0.5555186878191307, 0.5725392541498877, 0.5888518959982321, 0.605883043637732, 0.6222438134427648, 0.6391309186001308, 0.6555104616854805, 0.6725822279695421, 0.6910821312048938, 0.7058823268453125, 0.7247099097003229, 0.7390482818882447, 0.7566610608482733, 0.7726914203667548, 0.7893508564739022, 0.8059379299811553, 0.8222461344848853, 0.83894175189198, 0.8553550869401079, 0.8721438882057555]
34	animate/a5.jpg	animate	inanimate	left	0.986	[0.0, 0.0, 0.0, 0.0, 0.0, 0.0, 0.0, 0.0, 0.0, 0.0, 0.0, 0.0, 0.0, 0.0, 0.0, 0.0, 0.0, 0.0, 0.0, 0.0, 0.0, 0.0, 0.0, 0.0, 0.0, 0.0, 0.0, 1.0, -1.0, -5.0, -10.0, -15.0, -21.0, -30.0, -35.0, -46.0, -61.0, -74.0, -102.0, -145.0, -267.0, -360.0, -457.0, -542.0, -614.0, -658.0, -681.0, -690.0, -696.0, -699.0, -700.0, -700.0, -700.0, -701.0, -706.0, -723.0, -742.0, -757.0, -758.0]	[-490.0, -490.0, -490.0, -490.0, -490.0, -490.0, -490.0, -490.0, -490.0, -490.0, -490.0, -490.0, -490.0, -490.0, -490.0, -490.0, -490.0, -490.0, -490.0, -490.0, -490.0, -490.0, -490.0, -490.0, -490.0, -490.0, -490.0, -490.0, -480.0, -468.0, -450.0, -400.0, -346.0, -290.0, -224.0, -145.0, -50.0, 40.0, 122.0, 178.0, 259.0, 306.0, 348.0, 398.0, 455.0, 495.0, 520.0, 533.0, 540.0, 540.0, 540.0, 540.0, 540.0, 540.0, 540.0, 535.0, 529.0, 523.0, 522.0]	[0.002422917663352564, 0.009106557670747861, 0.019993371359305456, 0.03642650370602496, 0.053328627516748384, 0.07036318851169199, 0.08658401179127395, 0.10351412490126677, 0.12000596654252149, 0.1369439302943647, 0.15333132405066863, 0.1704484875954222, 0.18641843119985424, 0.20384074636967853, 0.21997282310621813, 0.2370875973138027, 0.2533176366123371, 0.2704918027448002, 0.28655493023688905, 0.30354818992782384, 0.31975160524598323, 0.33700496063102037, 0.3533647064177785, 0.3702255289244931, 0.3868067997973412, 0.4035580544441473, 0.41974645110894926, 0.4369045745988842, 0.45333258697064593, 0.47032106801634654, 0.48645519276033156, 0.5035552896442823, 0.5197621182887815, 0.5368803058518097, 0.5534588460286614, 0.5700797114986926, 0.5864268279692624, 0.6034463703108486, 0.6201409636996686, 0.6368376050959341, 0.6534178519505076, 0.6702452238532715, 0.6865834656637162, 0.7034879788116086, 0.7197412287059706, 0.7369334855175111, 0.7531048155215103, 0.7702366563898977, 0.7864339277148247, 0.8036889897484798, 0.8197674772236496, 0.8369296966993716, 0.8530802054156084, 0.8702533475589007, 0.8864560802176129, 0.9038012541423086, 0.9197609577677213, 0.9370020251662936, 0.9531873498344794]
35	inanimate/n30.jpg	animate	inanimate	right	0.974	[0.0, 0.0, 0.0, 0.0, 0.0, 0.0, 0.0, 0.0, -3.0, -3.0, -3.0, -5.0, -6.0, -6.0, -8.0, -9.0, -11.0, -13.0, -17.0, -22.0, -27.0, -34.0, -37.0, -42.0, -48.0, -52.0, -52.0, -52.0, -51.0, -43.0, -31.0, -25.0, -5.0, 16.0, 55.0, 82.0, 105.0, 149.0, 203.0, 266.0, 324.0, 384.0, 432.0, 472.0, 503.0, 531.0, 571.0, 586.0, 602.0, 618.0, 641.0, 661.0, 675.0, 678.0, 679.0, 683.0, 686.0, 686.0]	[-490.0, -490.0, -490.0, -490.0, -490.0, -490.0, -490.0, -491.0, -491.0, -491.0, -491.0, -489.0, -487.0, -485.0, -483.0, -481.0, -478.0, -474.0, -466.0, -455.0, -437.0, -414.0, -406.0, -385.0, -360.0, -334.0, -314.0, -294.0, -282.0, -265.0, -240.0, -230.0, -201.0, -176.0, -132.0, -102.0, -84.0, -56.0, -19.0, 24.0, 66.0, 111.0, 152.0, 200.0, 240.0, 274.0, 325.0, 345.0, 365.0, 385.0, 410.0, 429.0, 441.0, 445.0, 448.0, 454.0, 458.0, 458.0]	[0.013942118821432814, 0.01878631568979472, 0.03483783785486594, 0.05093236794346012, 0.06813520606374368, 0.08420686685713008, 0.10153292617178522, 0.1181476476485841, 0.13482210240908898, 0.15118765085935593, 0.16800648943171836, 0.18454987232689746, 0.20157555866171606, 0.21765984877129085, 0.2344561593781691, 0.2510418675665278, 0.2681491324619856, 0.28436108108144253, 0.3014625433133915, 0.3176905346044805, 0.33488995939842425, 0.3511148786637932, 0.368152511655353, 0.3845883746689651, 0.40142803455819376, 0.41791543885483406, 0.4347738720534835, 0.45111279655247927, 0.4682006054499652, 0.487138780154055, 0.5014174191164784, 0.5180734418681823, 0.5349038857675623, 0.5541042041731998, 0.5680910034570843, 0.5871008580725174, 0.6013003077823669, 0.6191554331162479, 0.6348519690218382, 0.65198824723484, 0.6681937105313409, 0.6851675142534077, 0.7015590039954986, 0.7176818647421896, 0.7346925324236508, 0.7512789232714567, 0.768035639252048, 0.7843868517084047, 0.801253476907732, 0.8186734027694911, 0.83431122940965, 0.8518246804887895, 0.8679373012273572, 0.8848401077266317, 0.9012957680679392, 0.918157273234101, 0.9344139364839066, 0.951482630771352]
36	inanimate/n26.jpg	inanimate	animate	left	1.57	[0.0, 0.0, 0.0, 0.0, 0.0, 0.0, 0.0, 0.0, 0.0, 0.0, 0.0, 0.0, 0.0, 0.0, 0.0, 0.0, 0.0, 0.0, 0.0, 0.0, -1.0, -9.0, -19.0, -27.0, -35.0, -42.0, -46.0, -46.0, -46.0, -46.0, -46.0, -46.0, -41.0, -18.0, 20.0, 90.0, 165.0, 257.0, 361.0, 470.0, 568.0, 649.0, 734.0, 771.0, 790.0, 794.0, 794.0, 794.0, 794.0, 794.0, 794.0, 794.0, 778.0, 754.0, 597.0, 440.0, 238.0, -4.0, -244.0, -490.0, -703.0, -856.0, -960.0, -960.0, -960.0, -960.0, -960.0, -960.0, -960.0, -960.0, -960.0, -960.0, -960.0, -960.0, -960.0, -960.0, -960.0, -960.0, -960.0, -960.0, -960.0, -960.0, -960.0, -960.0, -960.0, -960.0, -960.0, -958.0, -953.0, -948.0, -936.0, -901.0, -887.0, -883.0, -883.0]	[-490.0, -490.0, -490.0, -490.0, -490.0, -490.0, -490.0, -490.0, -490.0, -490.0, -490.0, -490.0, -490.0, -490.0, -490.0, -490.0, -490.0, -490.0, -490.0, -490.0, -489.0, -488.0, -488.0, -488.0, -488.0, -488.0, -488.0, -488.0, -488.0, -488.0, -488.0, -488.0, -480.0, -434.0, -343.0, -222.0, -114.0, -14.0, 74.0, 154.0, 227.0, 298.0, 396.0, 442.0, 464.0, 469.0, 469.0, 469.0, 469.0, 469.0, 469.0, 469.0, 470.0, 470.0, 470.0, 470.0, 470.0, 470.0, 470.0, 470.0, 470.0, 470.0, 460.0, 455.0, 449.0, 449.0, 449.0, 449.0, 449.0, 449.0, 449.0, 449.0, 449.0, 449.0, 449.0, 449.0, 449.0, 449.0, 449.0, 449.0, 449.0, 449.0, 449.0, 449.0, 449.0, 449.0, 449.0, 445.0, 445.0, 445.0, 445.0, 445.0, 445.0, 445.0, 445.0]	[0.011353449925081804, 0.019752970547415316, 0.025988440436776727, 0.03705820854520425, 0.054307126614730805, 0.07079350689309649, 0.0878215825650841, 0.10387720071594231, 0.12104044420993887, 0.13727150749764405, 0.1545009695691988, 0.1708955313079059, 0.19051227587624453, 0.20383859597495757, 0.2210434820735827, 0.23703356430632994, 0.25434835962369107, 0.2703193272172939, 0.2876822504622396, 0.3041484921122901, 0.3212673623347655, 0.3373492631362751, 0.3543158988468349, 0.3705148768494837, 0.38766310169012286, 0.4039566288993228, 0.4210430724779144, 0.43723624778795056, 0.45434214736451395, 0.4706018826109357, 0.4876951528422069, 0.5038599975232501, 0.521163528872421, 0.5373850348114502, 0.554299787938362, 0.5705400672159158, 0.5876903400640003, 0.6039159420179203, 0.6210467588680331, 0.6371675716072787, 0.654323647118872, 0.6705328650714364, 0.6875565034279134, 0.7040896463149693, 0.7211470766051207, 0.7374528918007854, 0.7543792502547149, 0.7735461180272978, 0.7876547731575556, 0.8068380249023903, 0.8210920878918841, 0.8399660919967573, 0.8542164003010839, 0.871638715500012, 0.8876059284084477, 0.9042728738568258, 0.9211394990270492, 0.9373651009809691, 0.954109187645372, 0.9705013600469101, 0.9873952918860596, 1.0066601221915334, 1.0205161909689195, 1.0386075186834205, 1.0539634043525439, 1.071059063920984, 1.0873119725147262, 1.105595129338326, 1.1205076235055458, 1.1386098738876171, 1.154160319303628, 1.1720584525901359, 1.1875675967312418, 1.204823341453448, 1.220608965260908, 1.2380189924733713, 1.2541718904976733, 1.270954206440365, 1.2874719893734436, 1.304321547911968, 1.320544760528719, 1.3376806974119972, 1.354116901755333, 1.371083196165273, 1.3874555712682195, 1.4043559884012211, 1.4206222089705989, 1.437505218142178, 1.4541158436331898, 1.471003631450003, 1.4874169665272348, 1.5042969036730938, 1.520571657572873, 1.537676191801438, 1.5538410364824813]
37	animate/a38.jpg	inanimate	animate	right	0.898	[0.0, 1.0, 1.0, 1.0, 1.0, 1.0, 1.0, 1.0, 1.0, 1.0, 1.0, 1.0, 1.0, 1.0, 1.0, 1.0, 1.0, 1.0, 1.0, 1.0, 1.0, -4.0, -13.0, -14.0, -15.0, -17.0, -19.0, -23.0, -25.0, -27.0, -27.0, -28.0, -28.0, -28.0, -5.0, 28.0, 68.0, 104.0, 145.0, 200.0, 269.0, 357.0, 434.0, 553.0, 591.0, 669.0, 704.0, 729.0, 752.0, 770.0, 775.0, 775.0, 775.0, 775.0, 775.0]	[-490.0, -490.0, -490.0, -490.0, -490.0, -490.0, -490.0, -490.0, -490.0, -490.0, -490.0, -490.0, -490.0, -490.0, -490.0, -490.0, -490.0, -490.0, -490.0, -490.0, -490.0, -490.0, -486.0, -485.0, -484.0, -483.0, -481.0, -478.0, -476.0, -475.0, -474.0, -474.0, -473.0, -469.0, -441.0, -407.0, -366.0, -318.0, -263.0, -177.0, -59.0, 43.0, 103.0, 198.0, 227.0, 286.0, 319.0, 350.0, 381.0, 411.0, 418.0, 418.0, 418.0, 418.0, 418.0]	[0.011160016525536776, 0.016275573085295036, 0.022426392417401075, 0.03786488063633442, 0.054608284641290084, 0.07132847799221054, 0.08743700274499133, 0.10460809688083827, 0.1210541999025736, 0.13803209963953122, 0.1541604216909036, 0.17127144124242477, 0.18747724589775316, 0.20460123609518632, 0.2207776861032471, 0.23796721224789508, 0.2543641633237712, 0.2712400044838432, 0.287480283761397, 0.3046274846128654, 0.3210783662798349, 0.3379951674141921, 0.3542156493640505, 0.37129970360547304, 0.38754476155736484, 0.4046387144480832, 0.4207666951988358, 0.43807534652296454, 0.45410570604144596, 0.4713160534738563, 0.4875020608014893, 0.5046291229955386, 0.5208007943583652, 0.5379264912335202, 0.5541650638333522, 0.5713231873232871, 0.5874812053516507, 0.6048284272837918, 0.6207990535476711, 0.6380312462861184, 0.6541397710388992, 0.671322129201144, 0.6877644775377121, 0.704528702859534, 0.7208925446320791, 0.7379871802113485, 0.7542298488260712, 0.7712801111047156, 0.7902524191013072, 0.8046652018965688, 0.8236986084957607, 0.8379608634568285, 0.8570396673167124, 0.8711725570901763, 0.8904210034525022]
