trialIndex	stimulus	isAnimate	left_option	right_option	response	response_time	xTrajectory	yTrajectory	tTrajectory
0	飞机	False	animate	inanimate	right	1.329	[0.0, 1.0, 1.0, 1.0, 1.0, 1.0, 1.0, 1.0, 1.0, 1.0, 1.0, 1.0, 1.0, 1.0, 1.0, 1.0, 1.0, 1.0, 1.0, 1.0, 1.0, 1.0, 1.0, 1.0, 1.0, 1.0, 1.0, 1.0, -11.0, -20.0, -23.0, -29.0, -29.0, -29.0, -29.0, -29.0, -29.0, 0.0, 14.0, 22.0, 34.0, 47.0, 54.0, 80.0, 98.0, 126.0, 170.0, 223.0, 281.0, 324.0, 382.0, 408.0, 496.0, 554.0, 574.0, 623.0, 661.0, 706.0, 722.0, 729.0, 730.0, 732.0, 733.0, 733.0, 734.0, 734.0, 734.0, 734.0, 734.0, 734.0, 734.0, 734.0, 734.0, 736.0, 745.0, 752.0, 757.0, 757.0, 757.0]	[-490.0, -490.0, -490.0, -490.0, -490.0, -490.0, -490.0, -490.0, -490.0, -490.0, -490.0, -490.0, -490.0, -490.0, -490.0, -490.0, -490.0, -490.0, -490.0, -490.0, -490.0, -490.0, -490.0, -490.0, -490.0, -490.0, -490.0, -490.0, -487.0, -487.0, -487.0, -487.0, -487.0, -487.0, -487.0, -487.0, -487.0, -483.0, -479.0, -477.0, -474.0, -469.0, -467.0, -448.0, -430.0, -408.0, -375.0, -336.0, -278.0, -215.0, -135.0, -97.0, 13.0, 72.0, 97.0, 163.0, 218.0, 271.0, 294.0, 307.0, 313.0, 319.0, 324.0, 329.0, 331.0, 331.0, 331.0, 331.0, 331.0, 331.0, 331.0, 331.0, 333.0, 344.0, 361.0, 380.0, 391.0, 391.0, 391.0]	[0.005482557724462822, 0.010688226175261661, 0.026608676475007087, 0.044364473927998915, 0.06117955784429796, 0.07609648935613222, 0.09429363027447835, 0.11094965305528603, 0.12637960794381797, 0.14436819445108995, 0.16119010504917242, 0.17613741516834125, 0.1943021294719074, 0.21099877086817287, 0.22641404846217483, 0.2443234457168728, 0.26112590031698346, 0.2761418183799833, 0.29435602595913224, 0.31078745165723376, 0.32689324574312195, 0.34434730489738286, 0.3611828687717207, 0.37614417358417995, 0.39441811441793106, 0.41103693188051693, 0.4263423002557829, 0.4443366894265637, 0.46105927211465314, 0.47624688065843657, 0.4944573335524183, 0.5109676071733702, 0.5263593327836134, 0.544276239379542, 0.5611182885768358, 0.5759109749051277, 0.5942750276299194, 0.6108033919008449, 0.626322093361523, 0.6442714265722316, 0.661110403802013, 0.6761109618819319, 0.6943504280934576, 0.7109238482953515, 0.7269350931455847, 0.7443212270445656, 0.7611383589683101, 0.7760890824429225, 0.794370873918524, 0.8109429288015235, 0.8262363505200483, 0.8442061637178995, 0.8610686929023359, 0.876098946959246, 0.8942145093169529, 0.910821721481625, 0.9263052656315267, 0.9442310468875803, 0.96101814150461, 0.9760842355026398, 0.9942967364040669, 1.0105947009578813, 1.0263185435032938, 1.0441880048019812, 1.0610716966330074, 1.0761374493013136, 1.0941748464247212, 1.1111633274704218, 1.126335917331744, 1.1440705521672498, 1.161102382466197, 1.1760913352190983, 1.1942342042166274, 1.210883741674479, 1.2263140378927346, 1.2442749764304608, 1.2610927910136525, 1.2762309062527493, 1.2944406765163876]
1	兔子	True	inanimate	animate	right	1.033	[0.0, 0.0, 0.0, 0.0, 0.0, 0.0, 0.0, 0.0, 0.0, 0.0, 0.0, 0.0, 0.0, 0.0, 0.0, 0.0, 0.0, 0.0, 0.0, -1.0, -4.0, -6.0, -15.0, -22.0, -24.0, -24.0, -24.0, -24.0, -25.0, -25.0, -25.0, -25.0, -25.0, -21.0, -12.0, 2.0, 14.0, 24.0, 24.0, 24.0, 5.0, -3.0, -32.0, -131.0, -223.0, -284.0, -298.0, -298.0, -293.0, -235.0, -94.0, 81.0, 338.0, 421.0, 581.0, 764.0, 842.0, 857.0, 880.0, 881.0, 881.0, 881.0, 881.0]	[-490.0, -490.0, -490.0, -490.0, -490.0, -490.0, -490.0, -490.0, -490.0, -490.0, -490.0, -490.0, -490.0, -490.0, -490.0, -490.0, -490.0, -490.0, -490.0, -489.0, -489.0, -489.0, -488.0, -485.0, -485.0, -484.0, -484.0, -484.0, -483.0, -483.0, -483.0, -483.0, -482.0, -468.0, -446.0, -408.0, -365.0, -322.0, -265.0, -181.0, -88.0, -65.0, -15.0, 88.0, 150.0, 182.0, 190.0, 190.0, 201.0, 235.0, 280.0, 328.0, 379.0, 401.0, 449.0, 500.0, 518.0, 525.0, 533.0, 535.0, 535.0, 535.0, 535.0]	[0.00757014992996119, 0.011911563400644809, 0.015975131886079907, 0.03213622191105969, 0.04848129037418403, 0.0638655066723004, 0.08162062146584503, 0.09863299579592422, 0.11376291906344704, 0.13192660934873857, 0.14843824828858487, 0.16386513120960444, 0.18180832042708062, 0.19861930835759267, 0.21363829841720872, 0.23192350321915, 0.24844333415967412, 0.26394599297782406, 0.2818154543056153, 0.2986107408942189, 0.31361027498496696, 0.33191561844432727, 0.34839824406662956, 0.36383092965115793, 0.3817829935287591, 0.39862948007066734, 0.4134293343813624, 0.43178587779402733, 0.4484555538801942, 0.46384864480933174, 0.4818123140139505, 0.4985888273222372, 0.5136286386987194, 0.5319575341127347, 0.5485173010092694, 0.5638421253534034, 0.5818774744693656, 0.5985939131933264, 0.6135989085887559, 0.6317940015287604, 0.6484029203420505, 0.6638243419292849, 0.6816890245827381, 0.6985187857935671, 0.7136473437421955, 0.7318489219760522, 0.7483721662429161, 0.7638574170705397, 0.7817391663847957, 0.7985078290221281, 0.8136005469714291, 0.831987810350256, 0.8484680466644932, 0.8638932229077909, 0.8817599535686895, 0.8987064506509341, 0.9134138037334196, 0.9318345177453011, 0.9485062418098096, 0.963853252818808, 0.9817739140708, 0.9985934353026096, 1.0136011613940354]
2	月亮	False	animate	inanimate	right	1.19	[0.0, 0.0, 0.0, 0.0, 0.0, 0.0, 0.0, 0.0, 0.0, 0.0, 0.0, 0.0, 0.0, 0.0, 0.0, 0.0, 0.0, 0.0, 0.0, 0.0, 3.0, 11.0, 19.0, 33.0, 49.0, 64.0, 82.0, 100.0, 134.0, 167.0, 192.0, 209.0, 218.0, 224.0, 227.0, 228.0, 228.0, 228.0, 228.0, 228.0, 228.0, 228.0, 228.0, 228.0, 229.0, 260.0, 294.0, 310.0, 319.0, 329.0, 338.0, 354.0, 362.0, 362.0, 362.0, 363.0, 374.0, 407.0, 471.0, 538.0, 589.0, 631.0, 669.0, 706.0, 756.0, 781.0, 792.0, 797.0, 800.0, 802.0, 802.0, 802.0]	[-490.0, -490.0, -490.0, -490.0, -490.0, -490.0, -490.0, -490.0, -490.0, -490.0, -490.0, -490.0, -490.0, -490.0, -490.0, -490.0, -485.0, -479.0, -475.0, -462.0, -449.0, -432.0, -417.0, -395.0, -374.0, -354.0, -334.0, -314.0, -285.0, -257.0, -235.0, -222.0, -216.0, -213.0, -211.0, -210.0, -210.0, -210.0, -210.0, -210.0, -210.0, -210.0, -210.0, -210.0, -208.0, -190.0, -162.0, -144.0, -119.0, -86.0, -48.0, -15.0, 19.0, 44.0, 56.0, 100.0, 132.0, 181.0, 245.0, 302.0, 334.0, 360.0, 383.0, 403.0, 431.0, 446.0, 454.0, 459.0, 464.0, 468.0, 468.0, 468.0]	[0.007129489094950259, 0.01211772847454995, 0.017973977461224422, 0.03113372708321549, 0.04754808614961803, 0.06296643571113236, 0.08096731020486914, 0.09772402621456422, 0.11271741628297605, 0.13101627441938035, 0.14756989732268266, 0.16294558029039763, 0.1809099321544636, 0.19773116006399505, 0.2127225021540653, 0.23101692294585519, 0.2475340232194867, 0.26292745550745167, 0.28090682602487504, 0.29772395791951567, 0.3125425855687354, 0.3312012086098548, 0.34748415448120795, 0.3629188880440779, 0.3809487758553587, 0.3977239237865433, 0.41274564451305196, 0.43108034261967987, 0.4475336136238184, 0.46292124324827455, 0.4809070990886539, 0.49773754298803397, 0.5127118184173014, 0.5309529913065489, 0.547493984864559, 0.5629717263800558, 0.5808186597423628, 0.5976702662592288, 0.612698813638417, 0.6309335012047086, 0.6473802868858911, 0.6628088764555287, 0.6808749455376528, 0.697685933439061, 0.7127189181628637, 0.7310068536316976, 0.7475034739181865, 0.7629382074810565, 0.7808547727472614, 0.7976288967183791, 0.8127680359757505, 0.8309464035846759, 0.8474996851291507, 0.8629176933900453, 0.8808178746548947, 0.8976981531595811, 0.912709975236794, 0.9309593400976155, 0.9474388937524054, 0.9629285818955395, 0.980818864540197, 0.9976708123867866, 1.01246861871914, 1.0308879673830234, 1.047214262536727, 1.0629353744152468, 1.0808239503821824, 1.0976666822680272, 1.1127146856160834, 1.1309527865087148, 1.1474770547647495, 1.1629370469599962]
3	苍蝇	True	animate	inanimate	left	1.324	[0.0, 0.0, 0.0, 0.0, 0.0, 0.0, 0.0, 0.0, 0.0, 0.0, 0.0, 0.0, 0.0, 0.0, 0.0, 0.0, 0.0, 0.0, 0.0, 0.0, -3.0, -7.0, -20.0, -22.0, -24.0, -25.0, -25.0, -25.0, -25.0, -25.0, -25.0, -18.0, -6.0, 2.0, 31.0, 61.0, 108.0, 157.0, 219.0, 291.0, 374.0, 460.0, 534.0, 585.0, 616.0, 618.0, 621.0, 624.0, 629.0, 640.0, 648.0, 650.0, 650.0, 645.0, 613.0, 525.0, 274.0, 161.0, -179.0, -381.0, -548.0, -667.0, -737.0, -758.0, -763.0, -763.0, -766.0, -767.0, -767.0, -767.0, -767.0, -767.0, -767.0, -767.0, -767.0, -767.0, -767.0, -767.0, -767.0, -767.0]	[-490.0, -490.0, -490.0, -490.0, -490.0, -490.0, -490.0, -490.0, -490.0, -490.0, -490.0, -490.0, -490.0, -490.0, -490.0, -490.0, -490.0, -490.0, -490.0, -490.0, -490.0, -490.0, -481.0, -478.0, -477.0, -476.0, -476.0, -475.0, -468.0, -463.0, -444.0, -416.0, -393.0, -382.0, -343.0, -299.0, -234.0, -161.0, -83.0, 5.0, 94.0, 168.0, 223.0, 257.0, 276.0, 279.0, 285.0, 289.0, 296.0, 314.0, 338.0, 351.0, 357.0, 360.0, 366.0, 368.0, 368.0, 368.0, 368.0, 368.0, 368.0, 368.0, 376.0, 380.0, 384.0, 387.0, 395.0, 399.0, 399.0, 399.0, 399.0, 399.0, 399.0, 399.0, 399.0, 399.0, 399.0, 399.0, 399.0, 399.0]	[0.007869157561799511, 0.012337205553194508, 0.016466651286464185, 0.032733213185565546, 0.04904073502984829, 0.06440583668882027, 0.08235346325091086, 0.09932453630608507, 0.11426570246112533, 0.13247479003621265, 0.14906834886642173, 0.1644494931679219, 0.1824182823766023, 0.19923165961517952, 0.21424655368900858, 0.23247646255185828, 0.2489355362195056, 0.26445867502479814, 0.28235066431807354, 0.29922787082614377, 0.3142526635201648, 0.3325498150079511, 0.3490583819511812, 0.3644303102628328, 0.3823779368249234, 0.3992100873729214, 0.4139935577113647, 0.4324682023143396, 0.44909555310732685, 0.4644531454250682, 0.4824690385721624, 0.49917148263193667, 0.5139959129155613, 0.5324217469024006, 0.5490354443900287, 0.5644466259691399, 0.5822430420375895, 0.5992062644509133, 0.6142232065030839, 0.6324210300808772, 0.6488220771716442, 0.6644295251753647, 0.6822846505383495, 0.6991772170003969, 0.7142067883978598, 0.7323953959858045, 0.748890650953399, 0.7644574803416617, 0.7822972457215656, 0.7991928841802292, 0.8142453248728998, 0.8324598737817723, 0.8489513740933035, 0.8644888488634024, 0.8822726356156636, 0.8991361887892708, 0.9141998934501316, 0.9324042023799848, 0.9489178893272765, 0.964449220104143, 0.9820650710607879, 0.9991969119291753, 1.0142312619718723, 1.0323833469301462, 1.0489646178029943, 1.064400375355035, 1.0822565246780869, 1.0991675231489353, 1.114279014436761, 1.1324573820456862, 1.1488140558358282, 1.1644546131719835, 1.182262634538347, 1.1992333662637975, 1.214245529670734, 1.2324283346242737, 1.2489881014917046, 1.2645153362827841, 1.2823646589531563, 1.2992227508220822]
4	骆驼	True	animate	inanimate	left	1.167	[0.0, 0.0, 0.0, 0.0, 0.0, 0.0, 0.0, 0.0, 0.0, 0.0, 0.0, 0.0, 0.0, 0.0, 0.0, 0.0, 0.0, 0.0, 0.0, 0.0, 0.0, 0.0, 0.0, 0.0, 0.0, 0.0, 0.0, 0.0, 0.0, 0.0, 0.0, 3.0, 4.0, 5.0, 14.0, 18.0, 18.0, 18.0, 18.0, 19.0, 30.0, 52.0, 80.0, 112.0, 122.0, 125.0, 122.0, 104.0, 67.0, -3.0, -117.0, -258.0, -423.0, -558.0, -655.0, -701.0, -741.0, -750.0, -764.0, -773.0, -775.0, -778.0, -779.0, -779.0, -779.0, -779.0, -779.0, -779.0, -779.0, -779.0, -779.0]	[-490.0, -490.0, -490.0, -490.0, -490.0, -490.0, -490.0, -490.0, -490.0, -490.0, -490.0, -490.0, -490.0, -490.0, -490.0, -490.0, -490.0, -490.0, -490.0, -490.0, -490.0, -490.0, -490.0, -490.0, -490.0, -490.0, -490.0, -490.0, -490.0, -490.0, -490.0, -486.0, -481.0, -476.0, -443.0, -413.0, -361.0, -314.0, -285.0, -257.0, -229.0, -196.0, -163.0, -110.0, -67.0, -44.0, 10.0, 34.0, 52.0, 73.0, 107.0, 131.0, 154.0, 175.0, 196.0, 218.0, 252.0, 264.0, 292.0, 310.0, 318.0, 327.0, 336.0, 347.0, 354.0, 359.0, 362.0, 363.0, 363.0, 363.0, 363.0]	[0.014331613812828436, 0.020201174804242328, 0.02722409972921014, 0.0453840353875421, 0.06190147699089721, 0.07740720777655952, 0.09533606102922931, 0.11217196626239456, 0.12700629519531503, 0.14535293995868415, 0.16181269628577866, 0.17741400032537058, 0.19532920024357736, 0.2122401987144258, 0.22712026626686566, 0.24533344982773997, 0.2620905071380548, 0.2774733581172768, 0.2952902541437652, 0.31221183395246044, 0.3271482214331627, 0.3454194316000212, 0.3619778331485577, 0.37740881205536425, 0.3954885344428476, 0.41217118117492646, 0.42712395265698433, 0.44532860291656107, 0.46199554833583534, 0.4774159459047951, 0.4953209058439825, 0.5121254084515385, 0.5272570383676793, 0.5454152673482895, 0.5618385010457132, 0.5774012344481889, 0.5953553463332355, 0.6122383555048145, 0.6272218469530344, 0.6453872439160477, 0.66197329343413, 0.6773933496733662, 0.695255984319374, 0.7120802842255216, 0.727219423482893, 0.7453807244601194, 0.7619193286809605, 0.7773946808592882, 0.7952190862270072, 0.812132132705301, 0.8271743333898485, 0.845334610377904, 0.8619182705588173, 0.8774482360167895, 0.8951989134657197, 0.9121006959467195, 0.9271804432501085, 0.9453622242144775, 0.9619236977596302, 0.9774045112426393, 0.9952476899488829, 1.0121846297115553, 1.0271814331354108, 1.0453737953794189, 1.0618864583375398, 1.0773717091651633, 1.0950114534352906, 1.1121200836496428, 1.1271872016368434, 1.1452969613601454, 1.1619956507347524]
5	皇帝	True	inanimate	animate	right	1.081	[0.0, 0.0, 0.0, 0.0, 0.0, 0.0, 0.0, 0.0, 0.0, 0.0, 0.0, 0.0, 0.0, 0.0, 0.0, 0.0, 0.0, 0.0, 0.0, 0.0, 0.0, 0.0, 0.0, 2.0, -5.0, -10.0, -10.0, -5.0, 21.0, 50.0, 87.0, 135.0, 169.0, 207.0, 243.0, 276.0, 307.0, 334.0, 385.0, 446.0, 506.0, 570.0, 581.0, 599.0, 601.0, 601.0, 592.0, 527.0, 392.0, 225.0, 33.0, -115.0, -205.0, -217.0, -200.0, 32.0, 258.0, 482.0, 663.0, 798.0, 864.0, 882.0, 882.0, 882.0, 882.0]	[-490.0, -490.0, -490.0, -490.0, -490.0, -490.0, -490.0, -490.0, -490.0, -490.0, -490.0, -490.0, -490.0, -490.0, -490.0, -490.0, -490.0, -490.0, -490.0, -490.0, -490.0, -490.0, -490.0, -486.0, -472.0, -455.0, -434.0, -408.0, -358.0, -310.0, -243.0, -134.0, -51.0, 11.0, 58.0, 101.0, 136.0, 166.0, 218.0, 268.0, 311.0, 349.0, 356.0, 366.0, 366.0, 366.0, 370.0, 379.0, 394.0, 396.0, 396.0, 396.0, 396.0, 397.0, 403.0, 443.0, 473.0, 473.0, 475.0, 490.0, 502.0, 504.0, 504.0, 504.0, 504.0]	[0.007170107681304216, 0.011567499750526622, 0.015565873647574335, 0.03146038265549578, 0.04769861392560415, 0.06328285130439326, 0.08117859525373206, 0.0980114284902811, 0.11277202953351662, 0.1311135542637203, 0.14806346470140852, 0.16299302552943118, 0.18135332359815948, 0.19785642920760438, 0.21327682677656412, 0.23100497626001015, 0.24798116931924596, 0.26277112498064525, 0.28114507638383657, 0.29778710450045764, 0.31326416332740337, 0.33124899517861195, 0.348055204434786, 0.36304757051402703, 0.38133891933830455, 0.39788878755643964, 0.4133224971301388, 0.431163627828937, 0.44796164508443326, 0.4630338830756955, 0.4813320585526526, 0.4977822575601749, 0.5132337164250202, 0.5311335563892499, 0.5479738989379257, 0.5630973368533887, 0.5813146164291538, 0.5977603781211656, 0.6132435809704475, 0.6310222477186471, 0.6479595288110431, 0.6630222094827332, 0.6811899957829155, 0.6978770798596088, 0.7133135200710967, 0.7311334881233051, 0.7479581293591764, 0.7631017059320584, 0.7812930441868957, 0.797849056427367, 0.8132592140173074, 0.8311259446491022, 0.8479567298782058, 0.8630258958728518, 0.8812100661743898, 0.8976158918812871, 0.9132322145742364, 0.9311040652100928, 0.9479382637655362, 0.9630705763702281, 0.9814315570984036, 0.9979370520450175, 1.0132721163972747, 1.031179465673631, 1.0480378988431767]
6	镜子	False	inanimate	animate	left	1.15	[0.0, 0.0, 0.0, 0.0, 0.0, 0.0, 0.0, 0.0, 0.0, 0.0, 0.0, 0.0, 0.0, 0.0, 0.0, 0.0, 0.0, 0.0, 0.0, 0.0, 0.0, -2.0, -10.0, -20.0, -21.0, -22.0, -22.0, -12.0, 3.0, 18.0, 35.0, 56.0, 79.0, 117.0, 171.0, 236.0, 303.0, 376.0, 400.0, 414.0, 418.0, 418.0, 418.0, 418.0, 405.0, 382.0, 359.0, 344.0, 341.0, 337.0, 324.0, 285.0, 202.0, 83.0, -73.0, -359.0, -459.0, -621.0, -727.0, -816.0, -833.0, -864.0, -879.0, -897.0, -914.0, -916.0, -916.0, -916.0, -916.0, -916.0]	[-490.0, -490.0, -490.0, -490.0, -490.0, -490.0, -490.0, -490.0, -490.0, -490.0, -490.0, -490.0, -490.0, -490.0, -490.0, -490.0, -490.0, -490.0, -490.0, -490.0, -490.0, -490.0, -481.0, -469.0, -468.0, -467.0, -465.0, -454.0, -438.0, -421.0, -406.0, -389.0, -369.0, -338.0, -291.0, -225.0, -147.0, -46.0, 1.0, 43.0, 71.0, 87.0, 107.0, 132.0, 166.0, 203.0, 225.0, 239.0, 247.0, 266.0, 285.0, 306.0, 324.0, 340.0, 357.0, 386.0, 393.0, 393.0, 393.0, 406.0, 412.0, 421.0, 427.0, 432.0, 437.0, 437.0, 437.0, 437.0, 437.0, 437.0]	[0.013893342314986512, 0.019004461559234187, 0.025884367991238832, 0.044218042108695954, 0.06120720581384376, 0.07607805737643503, 0.09439841948915273, 0.11083735449938104, 0.12636970929452218, 0.14424190126010217, 0.1610918011283502, 0.17615823648520745, 0.19441476932843216, 0.21090319764334708, 0.2263983471202664, 0.24406130201532505, 0.2609900498064235, 0.2761298716941383, 0.2943464686104562, 0.3109069181664381, 0.32635701171238907, 0.34423193434486166, 0.3610261969442945, 0.37610901627340354, 0.39442016239627264, 0.41092736399150454, 0.4263777988671791, 0.4442575001739897, 0.46105108011397533, 0.47611034745932557, 0.4944146669295151, 0.5108689619519282, 0.5263207621464971, 0.5442031941202004, 0.5610022353939712, 0.5758321269822773, 0.5941364464524668, 0.6108109012129717, 0.6263156080094632, 0.6441997466608882, 0.6609834279224742, 0.6761433884967119, 0.6944255213311408, 0.7109033683082089, 0.7263295685406774, 0.7441447579185478, 0.7609444818517659, 0.7761177544016391, 0.7943203566537704, 0.8108299475861713, 0.8264292036183178, 0.8439781533088535, 0.8609895036497619, 0.8761525362206157, 0.8944288663915358, 0.9108077268174384, 0.9262919536558911, 0.9440774470567703, 0.9609857148607261, 0.9761405554309022, 0.9943124377168715, 1.010899169894401, 1.0263506287883501, 1.0442938180058263, 1.06097100340412, 1.0761179933324456, 1.0942366276867688, 1.1108260905311909, 1.1263485466479324, 1.1441391600528732]
7	画家	True	animate	inanimate	left	1.364	[0.0, 0.0, 0.0, 0.0, 0.0, 0.0, 0.0, 0.0, 0.0, 0.0, 0.0, 0.0, 0.0, 0.0, 0.0, 0.0, 0.0, 0.0, 0.0, 0.0, 0.0, 0.0, 0.0, 0.0, 0.0, 0.0, 2.0, 11.0, 28.0, 57.0, 93.0, 148.0, 225.0, 309.0, 453.0, 547.0, 588.0, 699.0, 770.0, 833.0, 882.0, 903.0, 912.0, 912.0, 908.0, 891.0, 781.0, 614.0, 503.0, 102.0, -168.0, -408.0, -594.0, -754.0, -873.0, -946.0, -960.0, -960.0, -960.0, -960.0, -960.0, -960.0, -960.0, -960.0, -960.0, -960.0, -960.0, -960.0, -960.0, -960.0, -960.0, -960.0, -960.0, -935.0, -912.0, -895.0, -883.0, -877.0, -876.0, -876.0, -876.0, -876.0]	[-490.0, -490.0, -490.0, -490.0, -490.0, -490.0, -490.0, -490.0, -490.0, -490.0, -490.0, -490.0, -490.0, -490.0, -490.0, -490.0, -490.0, -490.0, -490.0, -490.0, -490.0, -490.0, -490.0, -490.0, -490.0, -490.0, -488.0, -478.0, -458.0, -421.0, -380.0, -325.0, -248.0, -170.0, -49.0, 33.0, 68.0, 187.0, 256.0, 317.0, 374.0, 402.0, 420.0, 430.0, 434.0, 440.0, 449.0, 449.0, 449.0, 449.0, 449.0, 449.0, 449.0, 453.0, 472.0, 482.0, 490.0, 491.0, 491.0, 491.0, 491.0, 491.0, 491.0, 491.0, 491.0, 491.0, 491.0, 491.0, 491.0, 491.0, 491.0, 491.0, 491.0, 483.0, 474.0, 469.0, 468.0, 467.0, 467.0, 467.0, 467.0, 467.0]	[0.007294352923054248, 0.012235147005412728, 0.018239534518215805, 0.031681225111242384, 0.047846752480836585, 0.06346682980074547, 0.08140250970609486, 0.09820837763254531, 0.11302973591955379, 0.13122448752983473, 0.14801465414348058, 0.16340057709021494, 0.18132601701654494, 0.19820731951040216, 0.2132020749268122, 0.23140228784177452, 0.24800915867672302, 0.2634585695632268, 0.28134236685582437, 0.2982683839800302, 0.31315869151148945, 0.3313203338184394, 0.34806442048284225, 0.3633875381783582, 0.381324583402602, 0.39816390196210705, 0.41317879600683227, 0.4313609183009248, 0.4480872556450777, 0.4635632904828526, 0.48138291720533744, 0.4981304171960801, 0.5131797858921345, 0.5312997855653521, 0.547932256362401, 0.5633772299042903, 0.5810367714730091, 0.5981488150428049, 0.6131732664362062, 0.6313700660248287, 0.648061246087309, 0.6635342089284677, 0.6813975262630265, 0.698148439580109, 0.713193370931549, 0.7312625120102894, 0.7478867908357643, 0.7633771616383456, 0.781180063058855, 0.798106080153957, 0.813180024822941, 0.8313679497514386, 0.8480099778680597, 0.8635440393118188, 0.8813104181026574, 0.8980845420446713, 0.9129448122985195, 0.9312617610848974, 0.9479307545116171, 0.9633849440433551, 0.9810178616316989, 0.9981418518582359, 1.013164937903639, 1.0313552521693055, 1.0478914670820814, 1.0635040350898635, 1.081250275223283, 1.0981281643908005, 1.1130365626013372, 1.1311019489949103, 1.1479030382761266, 1.1633630304713733, 1.1810509026690852, 1.1980308503843844, 1.2131740856275428, 1.2312480053806212, 1.2479494254221208, 1.263410782936262, 1.281154292402789, 1.2981192214647308, 1.3131293368933257, 1.331270499213133]
8	警察	True	inanimate	animate	right	0.841	[0.0, 0.0, 0.0, 0.0, 0.0, 0.0, 0.0, 0.0, 0.0, 0.0, 0.0, 0.0, 0.0, 0.0, 0.0, 0.0, 0.0, 0.0, 0.0, 0.0, 0.0, 0.0, 0.0, 0.0, 0.0, 4.0, 10.0, 17.0, 30.0, 34.0, 45.0, 74.0, 101.0, 114.0, 118.0, 120.0, 123.0, 134.0, 178.0, 242.0, 332.0, 432.0, 556.0, 692.0, 735.0, 750.0, 787.0, 802.0, 806.0, 806.0, 806.0]	[-490.0, -490.0, -490.0, -490.0, -490.0, -490.0, -490.0, -490.0, -490.0, -490.0, -490.0, -490.0, -490.0, -490.0, -490.0, -490.0, -488.0, -488.0, -487.0, -484.0, -480.0, -478.0, -469.0, -459.0, -447.0, -431.0, -401.0, -351.0, -255.0, -224.0, -183.0, -124.0, -76.0, -39.0, -10.0, 11.0, 32.0, 59.0, 120.0, 193.0, 265.0, 328.0, 381.0, 427.0, 438.0, 443.0, 458.0, 461.0, 463.0, 463.0, 463.0]	[0.01643647745368071, 0.02132368227466941, 0.03105952130863443, 0.049681963049806654, 0.06601269554812461, 0.08148907171562314, 0.09939881032914855, 0.11625997419469059, 0.13127555092796683, 0.14948839315911755, 0.16603416539146565, 0.1813770803855732, 0.1993639602442272, 0.21622444142121822, 0.23116287690936588, 0.249371281825006, 0.2659781526599545, 0.28146545149502344, 0.29933457146398723, 0.3161032341013197, 0.33116420812439173, 0.34946033559390344, 0.36602965981001034, 0.3813910067838151, 0.3993830066174269, 0.4162697704450693, 0.43120991258183494, 0.44944289347040467, 0.4660064150230028, 0.48129266875912435, 0.49927715928060934, 0.5160454805882182, 0.5311071372416336, 0.5493623047659639, 0.5659340183192398, 0.581384794524638, 0.5992918024712708, 0.6161389716726262, 0.6311559137247968, 0.649331209337106, 0.6658694722573273, 0.6813502857694402, 0.699169229803374, 0.7161106069106609, 0.7311606582661625, 0.7493424392014276, 0.7659165420627687, 0.7813543476222549, 0.7992616968986113, 0.8161037460959051, 0.8309442190511618]
9	医生	True	inanimate	animate	right	0.731	[0.0, 0.0, 0.0, 0.0, 0.0, 0.0, 0.0, 0.0, 0.0, 0.0, 0.0, 0.0, 0.0, 0.0, 0.0, 0.0, 0.0, 0.0, 0.0, 0.0, 1.0, 8.0, 21.0, 75.0, 99.0, 194.0, 277.0, 371.0, 453.0, 525.0, 584.0, 622.0, 643.0, 656.0, 672.0, 681.0, 683.0, 685.0, 685.0, 690.0, 706.0, 722.0, 732.0, 733.0, 733.0]	[-490.0, -490.0, -490.0, -490.0, -490.0, -490.0, -490.0, -490.0, -490.0, -490.0, -490.0, -489.0, -489.0, -489.0, -489.0, -489.0, -487.0, -486.0, -482.0, -473.0, -455.0, -427.0, -383.0, -268.0, -221.0, -62.0, 64.0, 179.0, 262.0, 320.0, 370.0, 402.0, 421.0, 434.0, 455.0, 465.0, 467.0, 469.0, 469.0, 471.0, 475.0, 479.0, 480.0, 480.0, 480.0]	[0.014297139190603048, 0.02022131346166134, 0.027283833012916148, 0.04587384813930839, 0.06217932200524956, 0.0776150795572903, 0.0954370955878403, 0.11227095281356014, 0.1272575162583962, 0.14562703028786927, 0.162116482591955, 0.17760105076013133, 0.19543091746163554, 0.21227706267382018, 0.22726465010782704, 0.24555087892804295, 0.26212395780021325, 0.2775894113292452, 0.295463309972547, 0.31223675125511363, 0.3273318585706875, 0.3455307061376516, 0.3621706862759311, 0.37747059331741184, 0.39539466792484745, 0.4121855171979405, 0.4272860858181957, 0.44546616010484286, 0.46208054025191814, 0.4775647670903709, 0.49541204175329767, 0.5121789977129083, 0.5272816143406089, 0.5455477045325097, 0.5620231621724088, 0.5774886157014407, 0.595136551943142, 0.6123055981006473, 0.627287724200869, 0.6454981771239545, 0.6619985520665068, 0.6776042934216093, 0.6953474615584128, 0.7122523160360288, 0.7272559461125638]
10	饭店	False	inanimate	animate	left	1.116	[0.0, 0.0, 0.0, 0.0, 0.0, 0.0, 0.0, 0.0, 0.0, 0.0, 0.0, 0.0, 0.0, 0.0, 0.0, 0.0, 0.0, 0.0, 0.0, 3.0, 8.0, 18.0, 30.0, 42.0, 61.0, 109.0, 144.0, 187.0, 232.0, 273.0, 323.0, 400.0, 421.0, 458.0, 481.0, 502.0, 513.0, 525.0, 536.0, 550.0, 568.0, 583.0, 590.0, 592.0, 580.0, 545.0, 482.0, 391.0, 377.0, 348.0, 323.0, 268.0, 193.0, 89.0, -36.0, -187.0, -358.0, -512.0, -620.0, -719.0, -732.0, -762.0, -766.0, -766.0, -766.0, -766.0, -766.0]	[-490.0, -490.0, -490.0, -490.0, -490.0, -490.0, -490.0, -489.0, -489.0, -489.0, -489.0, -489.0, -489.0, -487.0, -487.0, -487.0, -486.0, -484.0, -480.0, -473.0, -462.0, -442.0, -413.0, -395.0, -361.0, -281.0, -229.0, -176.0, -122.0, -76.0, -20.0, 70.0, 89.0, 123.0, 140.0, 159.0, 168.0, 190.0, 207.0, 228.0, 247.0, 264.0, 276.0, 294.0, 315.0, 335.0, 355.0, 369.0, 369.0, 374.0, 383.0, 401.0, 421.0, 440.0, 459.0, 480.0, 486.0, 486.0, 486.0, 478.0, 476.0, 471.0, 471.0, 471.0, 471.0, 471.0, 471.0]	[0.000726561265764758, 0.005800475220894441, 0.01648965710774064, 0.03473970465711318, 0.05154386590584181, 0.06649220004328527, 0.08485283944173716, 0.10129245714051649, 0.11674357467563823, 0.13463624662836082, 0.15146942119463347, 0.16632832610048354, 0.18453434167895466, 0.20130880697979592, 0.21670326325693168, 0.23475294836680405, 0.2514690457319375, 0.26652114506578073, 0.28491352844866924, 0.3011753116734326, 0.3167359970975667, 0.3346443703630939, 0.35146081959828734, 0.3664794683281798, 0.3847069878829643, 0.401279725425411, 0.41670694964705035, 0.43460883758962154, 0.4513908122316934, 0.46648489552899264, 0.48474620704655536, 0.5009957022848539, 0.516714083525585, 0.5345804728276562, 0.5513586927845608, 0.5664667707460467, 0.5846997516346164, 0.6011588253022637, 0.6167082467291038, 0.634636075963499, 0.6513791386387311, 0.6665039419021923, 0.6847840267291758, 0.7009505780879408, 0.7166843192826491, 0.7344213434262201, 0.7513883204956073, 0.7664629478240386, 0.7846529207599815, 0.8011963036551606, 0.8167040824482683, 0.8345520397997461, 0.8513951130153146, 0.8664847589971032, 0.8846501559601165, 0.901315394701669, 0.916674011037685, 0.9344915897527244, 0.95138552156277, 0.966423967591254, 0.9845709325745702, 1.0011836060730275, 1.0167183501762338, 1.0344635663204826, 1.0513807087554596, 1.0665621733060107, 1.0847518048831262]
11	乌龟	True	inanimate	animate	right	0.766	[0.0, 0.0, 0.0, 0.0, 0.0, 0.0, 1.0, 1.0, 1.0, 1.0, 1.0, 1.0, 1.0, 1.0, 1.0, 1.0, 1.0, 1.0, 1.0, -7.0, -22.0, -30.0, -39.0, -54.0, -64.0, -74.0, -78.0, -78.0, -78.0, -78.0, -63.0, -23.0, 39.0, 113.0, 201.0, 307.0, 416.0, 523.0, 620.0, 709.0, 797.0, 828.0, 847.0, 859.0, 862.0, 863.0, 863.0]	[-490.0, -490.0, -490.0, -490.0, -490.0, -490.0, -490.0, -490.0, -490.0, -490.0, -490.0, -490.0, -490.0, -490.0, -490.0, -490.0, -490.0, -490.0, -490.0, -486.0, -482.0, -476.0, -465.0, -454.0, -447.0, -443.0, -442.0, -442.0, -442.0, -439.0, -410.0, -343.0, -275.0, -192.0, -119.0, -43.0, 41.0, 121.0, 214.0, 309.0, 388.0, 411.0, 428.0, 442.0, 449.0, 450.0, 450.0]	[0.013899145036702976, 0.019585068890592083, 0.02624140228726901, 0.04468669224297628, 0.061065894027706236, 0.07649175293045118, 0.09443050483241677, 0.11131795131950639, 0.12624512281036004, 0.144439874420641, 0.1609313747030683, 0.17652312142308801, 0.1944007747224532, 0.21121073863469064, 0.22627614997327328, 0.24445929625653662, 0.26090812994516455, 0.27644082604092546, 0.2944969964737538, 0.3112192378321197, 0.3263327770982869, 0.3446743018575944, 0.36109890090301633, 0.3765476291300729, 0.3942785092804115, 0.41121271837619133, 0.42629622036474757, 0.44459234783425927, 0.46109886677004397, 0.47651653370121494, 0.4944167149660643, 0.5111925455858, 0.5262832155567594, 0.5445650070614647, 0.5610510460392106, 0.5764724675973412, 0.5943234969454352, 0.6111471141921356, 0.6262302748218644, 0.6443806531606242, 0.6607875028857961, 0.676489158795448, 0.694245638907887, 0.711191794660408, 0.7262814406421967, 0.7444106563052628, 0.7607799594115932]
12	老鹰	True	animate	inanimate	left	1.361	[0.0, 0.0, 0.0, 0.0, 0.0, 0.0, 0.0, 0.0, 0.0, 0.0, 0.0, 0.0, 0.0, 0.0, 0.0, 0.0, 0.0, 0.0, 0.0, 0.0, -3.0, -6.0, -8.0, -12.0, -15.0, -18.0, -22.0, -23.0, -27.0, -27.0, -28.0, -28.0, -21.0, -7.0, 26.0, 42.0, 75.0, 115.0, 127.0, 131.0, 131.0, 123.0, 113.0, 97.0, 74.0, 25.0, -45.0, -81.0, -87.0, -87.0, -87.0, -87.0, -93.0, -97.0, -104.0, -126.0, -177.0, -285.0, -414.0, -557.0, -695.0, -907.0, -960.0, -960.0, -960.0, -960.0, -960.0, -960.0, -960.0, -960.0, -960.0, -960.0, -960.0, -960.0, -942.0, -930.0, -885.0, -849.0, -825.0, -811.0, -810.0, -810.0]	[-490.0, -490.0, -490.0, -490.0, -490.0, -490.0, -490.0, -490.0, -490.0, -490.0, -490.0, -490.0, -490.0, -490.0, -490.0, -490.0, -490.0, -490.0, -490.0, -490.0, -487.0, -485.0, -484.0, -481.0, -478.0, -475.0, -473.0, -472.0, -471.0, -471.0, -471.0, -469.0, -455.0, -435.0, -365.0, -322.0, -258.0, -187.0, -157.0, -145.0, -113.0, -92.0, -75.0, -59.0, -40.0, -7.0, 25.0, 47.0, 61.0, 79.0, 121.0, 135.0, 165.0, 176.0, 183.0, 194.0, 210.0, 240.0, 271.0, 290.0, 311.0, 345.0, 365.0, 368.0, 377.0, 377.0, 377.0, 377.0, 377.0, 377.0, 377.0, 377.0, 377.0, 377.0, 382.0, 386.0, 397.0, 406.0, 412.0, 416.0, 416.0, 416.0]	[0.008600633969763294, 0.012965940753929317, 0.01774767372990027, 0.034242246008943766, 0.050587997160619125, 0.06595787746482529, 0.08400585589697585, 0.1007222945918329, 0.11571875668596476, 0.1338332950253971, 0.15058693900937214, 0.16595784333185293, 0.1838887445628643, 0.20071270313928835, 0.2156944879097864, 0.23387729286332615, 0.25044593439088203, 0.26597555849002674, 0.2837279426166788, 0.3007952715852298, 0.3154879473440815, 0.33384619740536436, 0.35053430547122844, 0.3659260310814716, 0.383956260222476, 0.4006952268828172, 0.4155855344433803, 0.4340495977085084, 0.4505397326720413, 0.46593384761945345, 0.48389683416462503, 0.500830019271234, 0.515488561737584, 0.5338976704224478, 0.5505734905018471, 0.5659293761709705, 0.5838599360722583, 0.6006299640284851, 0.6156888900441118, 0.6338829589658417, 0.6503372539882548, 0.6659283180197235, 0.6838083606562577, 0.7007309644541238, 0.7154615281906445, 0.7338515222072601, 0.750466243684059, 0.7659368172171526, 0.7838035478780512, 0.8006244344287552, 0.8157174937368836, 0.8338767467066646, 0.8504757668997627, 0.8659432684071362, 0.883830820384901, 0.900747962819878, 0.9158007448422723, 0.9339954964525532, 0.9504323834844399, 0.9659405036072712, 0.9838048449310008, 1.0005997901898809, 1.0157232281344477, 1.0339043264102656, 1.050460338650737, 1.0659544641384855, 1.083809248142643, 1.10075847589178, 1.1156061168003362, 1.1337844844383653, 1.1502227367891464, 1.1659452140156645, 1.1838354966312181, 1.2006956364784855, 1.2155815066944342, 1.2339848127157893, 1.2504732410307042, 1.265486769756535, 1.2837613932497334, 1.3007826422399376, 1.3156237978546415, 1.3339229973207694]
13	鸽子	True	inanimate	animate	right	1.041	[0.0, 0.0, 0.0, 0.0, 0.0, 0.0, 0.0, 0.0, 0.0, 0.0, 0.0, -2.0, -4.0, -5.0, -8.0, -11.0, -11.0, -11.0, -15.0, -21.0, -25.0, -27.0, -30.0, -33.0, -42.0, -48.0, -56.0, -57.0, -58.0, -58.0, -58.0, -58.0, -53.0, -38.0, -16.0, 17.0, 53.0, 113.0, 238.0, 280.0, 414.0, 519.0, 623.0, 710.0, 768.0, 810.0, 845.0, 876.0, 896.0, 902.0, 904.0, 904.0, 904.0, 902.0, 902.0, 900.0, 899.0, 892.0, 879.0, 872.0, 872.0, 872.0, 872.0]	[-490.0, -490.0, -490.0, -490.0, -490.0, -490.0, -490.0, -490.0, -490.0, -490.0, -489.0, -489.0, -489.0, -489.0, -491.0, -491.0, -491.0, -491.0, -491.0, -488.0, -485.0, -484.0, -482.0, -481.0, -478.0, -476.0, -472.0, -471.0, -471.0, -471.0, -471.0, -467.0, -454.0, -430.0, -390.0, -330.0, -275.0, -215.0, -114.0, -76.0, 28.0, 96.0, 155.0, 200.0, 240.0, 280.0, 332.0, 378.0, 401.0, 409.0, 412.0, 413.0, 419.0, 426.0, 428.0, 430.0, 431.0, 435.0, 442.0, 444.0, 444.0, 444.0, 444.0]	[0.001254808099474758, 0.005832423979882151, 0.017310426250332966, 0.035784046864137053, 0.05215539794880897, 0.06763894212781452, 0.08534012633026578, 0.10235796199413016, 0.11736944271251559, 0.1356741035124287, 0.152161507809069, 0.16761706268880516, 0.18551041730097495, 0.20238796513876878, 0.21715197950834408, 0.2354487896664068, 0.25215430569369346, 0.2676535511855036, 0.2855230125132948, 0.30232614977285266, 0.31740043574245647, 0.335735475178808, 0.35201432506437413, 0.3674671492772177, 0.38539156518527307, 0.4023315769445617, 0.41733111103530973, 0.43562348384875804, 0.45218564005335793, 0.4675893123203423, 0.4855113389203325, 0.5023479268129449, 0.5174734127358533, 0.5357063936244231, 0.55201869411394, 0.5675452462455723, 0.5852832943783142, 0.6022314981382806, 0.6173382107517682, 0.6354633304290473, 0.6520661052782089, 0.667564668081468, 0.6854320814018138, 0.7023533198516816, 0.7173883525538258, 0.7357452372962143, 0.7518848233448807, 0.7674762287351768, 0.7855081645247992, 0.8022884324600454, 0.8173890011094045, 0.835629491310101, 0.8522384101233911, 0.8677035223226994, 0.8855047170654871, 0.9023286756128073, 0.9173957936291117, 0.93563799050753, 0.9519120617187582, 0.9675778776581865, 0.9854094510374125, 1.0023265935014933, 1.0172339676937554]
14	书包	False	animate	inanimate	right	0.942	[0.0, 0.0, 0.0, 0.0, 0.0, 0.0, 0.0, 0.0, 0.0, 0.0, 0.0, 0.0, 1.0, 1.0, 1.0, 1.0, 3.0, 4.0, 6.0, 11.0, 17.0, 20.0, 38.0, 66.0, 96.0, 142.0, 201.0, 265.0, 321.0, 360.0, 383.0, 418.0, 452.0, 471.0, 540.0, 580.0, 610.0, 628.0, 630.0, 630.0, 630.0, 630.0, 630.0, 631.0, 631.0, 632.0, 652.0, 674.0, 708.0, 741.0, 769.0, 775.0, 793.0, 794.0, 796.0, 796.0, 796.0]	[-490.0, -490.0, -490.0, -490.0, -490.0, -490.0, -490.0, -490.0, -490.0, -490.0, -490.0, -490.0, -490.0, -489.0, -489.0, -489.0, -488.0, -486.0, -484.0, -472.0, -460.0, -450.0, -411.0, -358.0, -303.0, -235.0, -160.0, -83.0, -18.0, 22.0, 45.0, 83.0, 123.0, 146.0, 223.0, 266.0, 292.0, 305.0, 308.0, 308.0, 308.0, 308.0, 308.0, 309.0, 309.0, 313.0, 333.0, 349.0, 373.0, 393.0, 409.0, 411.0, 422.0, 423.0, 424.0, 424.0, 424.0]	[0.0005383503157645464, 0.005052136926678941, 0.01580514805391431, 0.03452179770101793, 0.050696199730737135, 0.06626439443789423, 0.08437927413615398, 0.10106055554933846, 0.11603824433404952, 0.13441731571219862, 0.15080232013133354, 0.16627869629883207, 0.1840379070781637, 0.20099396150908433, 0.21604708483209834, 0.23432614566991106, 0.25093165115686134, 0.2662598888564389, 0.2842645180062391, 0.30106970327324234, 0.3160368107201066, 0.3343336208781693, 0.35113334478228353, 0.366270777391037, 0.38419758263626136, 0.4010382665146608, 0.4161309844639618, 0.43425678682979196, 0.45084181232959963, 0.4662523112783674, 0.4841354259115178, 0.5010047817486338, 0.5161101290432271, 0.5342195474077016, 0.5505728078715038, 0.5662396478292067, 0.5841183251177426, 0.6010194249392953, 0.6160169110225979, 0.6343331771204248, 0.6507946401252411, 0.6663000296102837, 0.6840882536780555, 0.7009787721908651, 0.715963287599152, 0.7342290364613291, 0.7505853689217474, 0.7662190995761193, 0.7840943635383155, 0.80099717003759, 0.8157864430104382, 0.8341081704711542, 0.8507628279039636, 0.8662487613910343, 0.8841875132929999, 0.9010654024896212, 0.9160342165851034]
15	狮子	True	animate	inanimate	left	1.051	[0.0, 0.0, 0.0, 0.0, 0.0, 0.0, 0.0, 0.0, 0.0, 0.0, 0.0, 0.0, 0.0, 0.0, 0.0, 0.0, 0.0, -1.0, -4.0, -6.0, -11.0, -15.0, -21.0, -22.0, -22.0, -1.0, 36.0, 81.0, 125.0, 158.0, 192.0, 223.0, 251.0, 275.0, 288.0, 296.0, 296.0, 287.0, 259.0, 188.0, 72.0, -83.0, -257.0, -427.0, -601.0, -730.0, -828.0, -882.0, -895.0, -896.0, -896.0, -896.0, -896.0, -896.0, -896.0, -896.0, -896.0, -896.0, -890.0, -879.0, -864.0, -849.0, -847.0, -847.0]	[-490.0, -490.0, -490.0, -490.0, -490.0, -490.0, -490.0, -490.0, -490.0, -490.0, -490.0, -490.0, -490.0, -490.0, -490.0, -490.0, -490.0, -490.0, -484.0, -478.0, -465.0, -448.0, -423.0, -383.0, -368.0, -301.0, -237.0, -162.0, -104.0, -66.0, -29.0, 3.0, 31.0, 50.0, 66.0, 79.0, 93.0, 113.0, 137.0, 189.0, 265.0, 347.0, 416.0, 462.0, 497.0, 516.0, 531.0, 540.0, 540.0, 540.0, 540.0, 540.0, 540.0, 540.0, 540.0, 538.0, 536.0, 533.0, 517.0, 492.0, 457.0, 431.0, 430.0, 430.0]	[0.014327859185868874, 0.018817411153577268, 0.02680357760982588, 0.044972046569455415, 0.06194073028746061, 0.07704846691922285, 0.09529441845370457, 0.11179172139964066, 0.12725546828005463, 0.1451689615205396, 0.16194240283221006, 0.1770228328241501, 0.19518140310538, 0.2118162632395979, 0.22722266617347486, 0.24512830877210945, 0.2619915206450969, 0.2770098280161619, 0.29530697950394824, 0.3116110880218912, 0.3272625679965131, 0.3451388559769839, 0.36191980660078116, 0.3769534739549272, 0.3951704122009687, 0.4118305309675634, 0.42716900864616036, 0.44506031525088474, 0.4618788124935236, 0.47673874141764827, 0.49505261820741, 0.5115512865013443, 0.5272348517610226, 0.5450606224767398, 0.5618552264058962, 0.5767424619407393, 0.5950730640615802, 0.6116611615580041, 0.6271982949983794, 0.6448243859340437, 0.6618435869459063, 0.6770383634720929, 0.6952621283417102, 0.711415026395116, 0.7271279462729581, 0.7450410982128233, 0.7618763207865413, 0.7769134014670271, 0.7950067771889735, 0.811661434621783, 0.8272528400120791, 0.8450912400148809, 0.8619541105581447, 0.8770065512217116, 0.8951630735537037, 0.9114439714176115, 0.9271961445920169, 0.9450635579123627, 0.9618789831583854, 0.976971018477343, 0.9951807887118775, 1.0117627422441728, 1.0272162491164636, 1.045082297117915]
16	镜子	False	animate	inanimate	right	0.818	[0.0, 0.0, 0.0, 0.0, 0.0, 0.0, 0.0, 0.0, 0.0, 0.0, 0.0, 0.0, 1.0, 2.0, 3.0, 4.0, 6.0, 9.0, 11.0, 16.0, 23.0, 29.0, 37.0, 50.0, 70.0, 82.0, 93.0, 105.0, 129.0, 158.0, 167.0, 197.0, 217.0, 247.0, 286.0, 322.0, 370.0, 491.0, 537.0, 641.0, 724.0, 821.0, 843.0, 872.0, 878.0, 882.0, 883.0, 883.0, 883.0, 883.0]	[-490.0, -490.0, -490.0, -490.0, -490.0, -490.0, -490.0, -490.0, -490.0, -490.0, -490.0, -490.0, -490.0, -487.0, -484.0, -479.0, -472.0, -460.0, -453.0, -424.0, -402.0, -381.0, -355.0, -315.0, -269.0, -246.0, -226.0, -202.0, -164.0, -114.0, -100.0, -63.0, -44.0, -22.0, 5.0, 33.0, 68.0, 143.0, 180.0, 261.0, 330.0, 405.0, 419.0, 443.0, 452.0, 463.0, 469.0, 473.0, 474.0, 474.0]	[0.01592939326656051, 0.02155558386584744, 0.03012406430207193, 0.04827717327862047, 0.06499190532485954, 0.08017780716181733, 0.09844662802061066, 0.11498625625972636, 0.13042610982665792, 0.1483194644388277, 0.16515434565371834, 0.17992109069018625, 0.1984837991767563, 0.21501045676996, 0.23038784638629295, 0.248191089136526, 0.265114716894459, 0.28005144573398866, 0.29847762105055153, 0.3151179424894508, 0.330424676212715, 0.3481814976548776, 0.3652351732889656, 0.3799903129984159, 0.3983775763772428, 0.4150004898547195, 0.4304471700452268, 0.44831560738384724, 0.46512420594808646, 0.4802394518919755, 0.49841167553677224, 0.5147949732781854, 0.5303560000320431, 0.5483572158555035, 0.5652566089993343, 0.5799414341163356, 0.5983365481370129, 0.6147823098290246, 0.6303771285456605, 0.6482790164882317, 0.665090687078191, 0.6801414210931398, 0.6983959059580229, 0.7149508941802196, 0.7304020117153414, 0.7483294996200129, 0.7651725728355814, 0.7801697175891604, 0.7984245437837671, 0.8150006946525536]
17	石头	False	inanimate	animate	left	1.029	[0.0, 0.0, 0.0, 0.0, 0.0, 0.0, 0.0, 0.0, 0.0, 0.0, 0.0, 0.0, 0.0, 0.0, 0.0, 0.0, 0.0, 0.0, 0.0, 0.0, -3.0, -18.0, -24.0, -32.0, -46.0, -58.0, -71.0, -79.0, -82.0, -76.0, -29.0, 100.0, 200.0, 315.0, 435.0, 557.0, 658.0, 737.0, 799.0, 844.0, 868.0, 886.0, 889.0, 890.0, 890.0, 890.0, 890.0, 890.0, 888.0, 822.0, 682.0, 478.0, 229.0, -26.0, -269.0, -572.0, -688.0, -743.0, -755.0, -755.0, -755.0, -755.0]	[-490.0, -490.0, -490.0, -490.0, -490.0, -490.0, -490.0, -490.0, -490.0, -490.0, -490.0, -490.0, -490.0, -490.0, -490.0, -490.0, -490.0, -490.0, -490.0, -490.0, -490.0, -489.0, -485.0, -471.0, -447.0, -430.0, -410.0, -394.0, -379.0, -355.0, -292.0, -141.0, -44.0, 49.0, 139.0, 229.0, 303.0, 359.0, 402.0, 434.0, 454.0, 484.0, 491.0, 498.0, 498.0, 498.0, 498.0, 498.0, 499.0, 499.0, 499.0, 487.0, 473.0, 454.0, 440.0, 438.0, 438.0, 438.0, 438.0, 438.0, 438.0, 438.0]	[0.004102207371033728, 0.0091529106721282, 0.02342950162710622, 0.04157714926986955, 0.058411689155036584, 0.07337640726473182, 0.09165512677282095, 0.10820089900516905, 0.12361822457751259, 0.141585307137575, 0.15836216174648143, 0.17339890112634748, 0.1915926287183538, 0.20822373416740447, 0.22361033980268985, 0.24141870252788067, 0.2583614449540619, 0.273159592616139, 0.29153388531995006, 0.3082697799836751, 0.3235806096927263, 0.34167364408494905, 0.3583641414879821, 0.37339644352323376, 0.39175332826562226, 0.40828374051488936, 0.4236017382063437, 0.4415855460683815, 0.4583142727497034, 0.4733970920497086, 0.49158535833703354, 0.5081642398436088, 0.523573714774102, 0.5415165626618546, 0.5582623560039792, 0.5732001088326797, 0.5915713295398746, 0.6081915123504587, 0.6235876753053162, 0.6414482619438786, 0.6583329777931795, 0.6734062397736125, 0.691600650025066, 0.7082283421768807, 0.7236224571242929, 0.7415294650709257, 0.7583267996669747, 0.7733850429940503, 0.7917333944060374, 0.8082446920161601, 0.8235766843718011, 0.8413324818247929, 0.8582291443017311, 0.8733959315286484, 0.8915166138613131, 0.9079514529148582, 0.9236042982083745, 0.9414607888611499, 0.9583649606793188, 0.9733863400761038, 0.9915414970309939, 1.0081821598287206]
18	番茄	False	animate	inanimate	right	0.84	[0.0, 0.0, 0.0, 0.0, 0.0, 0.0, 0.0, 0.0, 0.0, 0.0, 0.0, 0.0, 0.0, 0.0, 0.0, 0.0, 0.0, 0.0, -1.0, -3.0, -4.0, -5.0, -5.0, -5.0, -5.0, -5.0, -5.0, -5.0, -5.0, 4.0, 19.0, 43.0, 76.0, 119.0, 171.0, 263.0, 388.0, 507.0, 651.0, 682.0, 745.0, 760.0, 766.0, 766.0, 766.0, 766.0, 768.0, 768.0, 768.0, 768.0, 768.0]	[-490.0, -490.0, -490.0, -490.0, -490.0, -490.0, -490.0, -490.0, -490.0, -490.0, -490.0, -490.0, -490.0, -490.0, -490.0, -490.0, -490.0, -490.0, -490.0, -489.0, -488.0, -487.0, -487.0, -487.0, -487.0, -475.0, -450.0, -401.0, -322.0, -288.0, -251.0, -211.0, -157.0, -97.0, -35.0, 44.0, 135.0, 220.0, 321.0, 337.0, 380.0, 394.0, 401.0, 402.0, 408.0, 413.0, 417.0, 417.0, 417.0, 417.0, 417.0]	[0.01575927290832624, 0.020195918274112046, 0.029480173863703385, 0.048151426221011207, 0.06464292653254233, 0.0799783322145231, 0.09791469477931969, 0.11471646669087932, 0.12972794743836857, 0.1479513710073661, 0.16464664705563337, 0.17996805807342753, 0.1979890712245833, 0.21473793653422035, 0.22984976915176958, 0.24794109686627053, 0.2645636690140236, 0.27997997059719637, 0.29793613048968837, 0.3146754384797532, 0.32972036983119324, 0.3479328707617242, 0.36454315489390865, 0.3799785711453296, 0.3979715949681122, 0.41468462033662945, 0.42980976492981426, 0.447987791209016, 0.46441341427271254, 0.47995532635832205, 0.49786847829818726, 0.5146497702517081, 0.5297110855753999, 0.5479683011071756, 0.564259097649483, 0.5799412975902669, 0.5976404337561689, 0.6146695334173273, 0.6297458674234804, 0.6479197976877913, 0.66430480213603, 0.6799358021235093, 0.6977284635358956, 0.7146599419647828, 0.7296147614251822, 0.747823507670546, 0.7644262825197075, 0.7799408879654948, 0.7977338907076046, 0.8146680998324882, 0.8296843592252117]
19	蚯蚓	True	animate	inanimate	left	1.149	[0.0, 0.0, 0.0, 0.0, 0.0, 0.0, 0.0, 0.0, 0.0, 0.0, 0.0, 0.0, 0.0, 0.0, 0.0, 0.0, 0.0, 0.0, 0.0, 0.0, 0.0, -3.0, -4.0, -5.0, -6.0, -7.0, -7.0, -7.0, 0.0, 8.0, 36.0, 104.0, 183.0, 270.0, 359.0, 447.0, 492.0, 560.0, 641.0, 661.0, 682.0, 702.0, 706.0, 710.0, 710.0, 710.0, 708.0, 708.0, 708.0, 709.0, 711.0, 714.0, 714.0, 711.0, 700.0, 598.0, 463.0, 279.0, 60.0, -162.0, -380.0, -564.0, -758.0, -794.0, -827.0, -837.0, -837.0, -837.0, -837.0, -837.0]	[-490.0, -490.0, -490.0, -490.0, -490.0, -490.0, -490.0, -490.0, -490.0, -490.0, -490.0, -490.0, -490.0, -490.0, -490.0, -490.0, -490.0, -490.0, -490.0, -490.0, -490.0, -487.0, -485.0, -482.0, -479.0, -476.0, -467.0, -459.0, -427.0, -409.0, -349.0, -229.0, -126.0, -29.0, 50.0, 118.0, 147.0, 195.0, 256.0, 273.0, 293.0, 318.0, 324.0, 341.0, 356.0, 372.0, 384.0, 390.0, 396.0, 402.0, 408.0, 414.0, 419.0, 425.0, 427.0, 427.0, 427.0, 427.0, 438.0, 454.0, 476.0, 476.0, 476.0, 476.0, 476.0, 476.0, 476.0, 476.0, 476.0, 476.0]	[0.01409677675110288, 0.02040699854842387, 0.02667523638228886, 0.04511096904752776, 0.061531813407782465, 0.07694436033489183, 0.09485853626392782, 0.11172516146325506, 0.1266755435790401, 0.14488565517240204, 0.1615341686119791, 0.1769177022506483, 0.19482812349451706, 0.2116517407412175, 0.22666356281843036, 0.24495457028388046, 0.26154266780940816, 0.2769971986708697, 0.29471374285640195, 0.3117711731174495, 0.3266560193442274, 0.3449149415246211, 0.361416340485448, 0.3770193511736579, 0.3946444181201514, 0.411665325780632, 0.42655768131953664, 0.44490637409035116, 0.4613115171378013, 0.4768496745964512, 0.494922570331255, 0.5115772277640644, 0.5266856470552739, 0.5448732306540478, 0.5614428961998783, 0.5769421416625846, 0.5945474113104865, 0.6115946016216185, 0.6266586476122029, 0.6448677351872902, 0.6614445687155239, 0.6768690622993745, 0.6947316969453823, 0.7116440607642289, 0.7266616854758468, 0.7448922770272475, 0.7614008439704776, 0.7768789268156979, 0.7945050177513622, 0.8115914613590576, 0.8266524353530258, 0.8448690322693437, 0.8613997858483344, 0.876878551353002, 0.8947104660328478, 0.9115921098855324, 0.9266602518910076, 0.9448655847809277, 0.9612560505338479, 0.9769822824164294, 0.9947943998267874, 1.0116193823923822, 1.0266861590498593, 1.044391097908374, 1.0613078990136273, 1.0767467285622843, 1.0948254269897006, 1.1115814602817409, 1.1265512983954977, 1.1448528871987946]
20	老鹰	True	inanimate	animate	right	0.868	[0.0, 0.0, 0.0, 0.0, 0.0, 0.0, 0.0, 0.0, 0.0, 0.0, 0.0, 0.0, 0.0, 0.0, 0.0, 0.0, 0.0, -4.0, -7.0, -23.0, -35.0, -47.0, -57.0, -72.0, -85.0, -94.0, -99.0, -100.0, -99.0, -51.0, -23.0, 68.0, 136.0, 214.0, 300.0, 389.0, 503.0, 620.0, 708.0, 768.0, 813.0, 840.0, 861.0, 870.0, 871.0, 871.0, 871.0, 871.0, 872.0, 872.0, 872.0, 872.0, 872.0]	[-490.0, -490.0, -490.0, -490.0, -490.0, -490.0, -490.0, -490.0, -490.0, -490.0, -490.0, -490.0, -490.0, -490.0, -490.0, -490.0, -486.0, -479.0, -476.0, -462.0, -444.0, -415.0, -396.0, -377.0, -363.0, -358.0, -355.0, -354.0, -348.0, -258.0, -212.0, -82.0, -1.0, 83.0, 157.0, 212.0, 266.0, 311.0, 344.0, 369.0, 396.0, 411.0, 423.0, 429.0, 430.0, 435.0, 443.0, 455.0, 464.0, 465.0, 465.0, 465.0, 465.0]	[0.008349071664270014, 0.01255429329467006, 0.01755959930596873, 0.03367870539659634, 0.05003674450563267, 0.06541208614362404, 0.08353379249456339, 0.10019391126115806, 0.1152436212869361, 0.13348274616873823, 0.14997424645116553, 0.1654141000180971, 0.18330199329648167, 0.2002501970564481, 0.21525655779987574, 0.23346530404523946, 0.24999127897899598, 0.2654949617863167, 0.2834685296402313, 0.30021602963097394, 0.315201910387259, 0.3334195312927477, 0.3500301567837596, 0.36547035168041475, 0.3831752905389294, 0.4001190569542814, 0.4152052895806264, 0.43343315049423836, 0.45000281601096503, 0.46542867491371, 0.483334658871172, 0.5001152681652457, 0.5152789833664428, 0.5333812337485142, 0.5499607979436405, 0.5654498034273274, 0.5830680437211413, 0.6000531114405021, 0.6153134238556959, 0.633417380915489, 0.6498918145662174, 0.6654159773315769, 0.6832274120533839, 0.7001261225377675, 0.7151939232135192, 0.7333156295644585, 0.7499515136878472, 0.7654695324890781, 0.7832679965358693, 0.8002332669566385, 0.8151802357460838, 0.8333852273353841, 0.8497360984620173]
21	犯人	True	inanimate	animate	right	1.015	[0.0, 0.0, 0.0, 0.0, 0.0, 0.0, 0.0, 0.0, 0.0, 0.0, 0.0, 0.0, -1.0, -1.0, -1.0, -1.0, -1.0, -4.0, -5.0, -5.0, -5.0, -5.0, -3.0, 3.0, 26.0, 59.0, 101.0, 145.0, 186.0, 240.0, 311.0, 410.0, 458.0, 485.0, 582.0, 656.0, 704.0, 734.0, 748.0, 751.0, 751.0, 750.0, 747.0, 739.0, 732.0, 732.0, 729.0, 728.0, 728.0, 727.0, 726.0, 726.0, 726.0, 726.0, 726.0, 726.0, 726.0, 726.0, 726.0, 726.0, 726.0, 726.0]	[-490.0, -490.0, -490.0, -490.0, -489.0, -489.0, -489.0, -488.0, -488.0, -488.0, -488.0, -488.0, -488.0, -488.0, -488.0, -488.0, -488.0, -486.0, -473.0, -443.0, -426.0, -419.0, -391.0, -368.0, -330.0, -288.0, -237.0, -186.0, -136.0, -76.0, -21.0, 38.0, 65.0, 80.0, 147.0, 198.0, 247.0, 293.0, 320.0, 334.0, 342.0, 348.0, 353.0, 364.0, 372.0, 375.0, 380.0, 383.0, 389.0, 391.0, 393.0, 393.0, 393.0, 393.0, 393.0, 393.0, 393.0, 393.0, 393.0, 393.0, 393.0, 393.0]	[0.013784115784801543, 0.019286402559373528, 0.026122618379304186, 0.04454196704318747, 0.0609877287351992, 0.07632927841041237, 0.09429124093730934, 0.11111554084345698, 0.12609834960312583, 0.14432347984984517, 0.16107405183720402, 0.17631968695786782, 0.19406968174735084, 0.21104075480252504, 0.22612255011335947, 0.244339488359401, 0.2607285887643229, 0.27631555681000464, 0.294339300628053, 0.3111021606018767, 0.3261286599736195, 0.3443657368479762, 0.36085996782639995, 0.3763093786837999, 0.3942054639919661, 0.4110478545189835, 0.4258500981668476, 0.44431996409548447, 0.4608189737191424, 0.4763001285609789, 0.49416071522864513, 0.5109973031212576, 0.5260794397618156, 0.5442892100254539, 0.5606772864412051, 0.5762970224313904, 0.594139518449083, 0.6110689488996286, 0.6258657312137075, 0.6441075867624022, 0.6608349481248297, 0.6763010843133088, 0.6941616709518712, 0.7110675494477618, 0.7259650249616243, 0.7443106457067188, 0.760624994232785, 0.7762689648661762, 0.7941565168439411, 0.8110326993337367, 0.8260595400643069, 0.844297982257558, 0.8605792214802932, 0.8763126213452779, 0.8940790001361165, 0.9110091132461093, 0.9260946632130072, 0.9441870149457827, 0.960805491078645, 0.9763221445318777, 0.9941417712543625, 1.011074615031248]
22	乞丐	True	inanimate	animate	right	0.751	[0.0, 0.0, 0.0, 0.0, 0.0, 0.0, 0.0, 0.0, 0.0, 0.0, 0.0, 0.0, 0.0, 0.0, 0.0, 0.0, 0.0, 0.0, 0.0, -1.0, -3.0, -3.0, -3.0, 7.0, 33.0, 84.0, 97.0, 146.0, 267.0, 355.0, 398.0, 519.0, 604.0, 681.0, 724.0, 742.0, 750.0, 752.0, 752.0, 752.0, 752.0, 752.0, 752.0, 752.0, 752.0, 752.0]	[-490.0, -490.0, -490.0, -490.0, -490.0, -490.0, -490.0, -490.0, -490.0, -490.0, -490.0, -490.0, -490.0, -490.0, -490.0, -490.0, -490.0, -490.0, -490.0, -489.0, -481.0, -466.0, -451.0, -411.0, -349.0, -229.0, -203.0, -142.0, -45.0, 6.0, 33.0, 131.0, 214.0, 293.0, 339.0, 365.0, 376.0, 380.0, 380.0, 380.0, 380.0, 380.0, 382.0, 385.0, 385.0, 385.0]	[0.014985949062975124, 0.02026363875484094, 0.028072653425624594, 0.046457868797006086, 0.06328558202949353, 0.07826463613309897, 0.09653038496617228, 0.11305670122965239, 0.12846071482636034, 0.14646431998698972, 0.16323537193238735, 0.17803010626812465, 0.19649894820759073, 0.2130832910479512, 0.22852724060066976, 0.24643697921419516, 0.2632169058197178, 0.27827207717928104, 0.29653885003062896, 0.31312319287098944, 0.3284459692367818, 0.3463359105226118, 0.36324622633401304, 0.37802901401300915, 0.39636917342431843, 0.4129002683330327, 0.42847324174363166, 0.44640687364153564, 0.4631342350039631, 0.47823446229449473, 0.4963711872987915, 0.5129790821229108, 0.5284677462768741, 0.5463409622607287, 0.5632331874221563, 0.5780081244301982, 0.5962571479612961, 0.6129807546385564, 0.6284769281337503, 0.6463341014750767, 0.6632198412844446, 0.6782203993643634, 0.696387161675375, 0.7129820858535822, 0.7285697365587112, 0.7461323395837098]
23	牙齿	False	animate	inanimate	right	0.999	[0.0, 0.0, 0.0, 0.0, 0.0, 1.0, 1.0, 1.0, 1.0, 1.0, 1.0, 1.0, 1.0, 1.0, 1.0, 1.0, 1.0, 1.0, 5.0, 20.0, 52.0, 124.0, 229.0, 353.0, 479.0, 596.0, 696.0, 825.0, 917.0, 934.0, 950.0, 954.0, 954.0, 950.0, 932.0, 921.0, 892.0, 842.0, 711.0, 654.0, 431.0, 260.0, 122.0, 11.0, -81.0, -150.0, -181.0, -183.0, -168.0, -136.0, -79.0, 32.0, 273.0, 470.0, 632.0, 770.0, 865.0, 899.0, 904.0, 904.0]	[-490.0, -490.0, -490.0, -490.0, -490.0, -490.0, -490.0, -490.0, -490.0, -490.0, -490.0, -490.0, -490.0, -490.0, -490.0, -490.0, -490.0, -490.0, -477.0, -439.0, -368.0, -255.0, -137.0, -31.0, 44.0, 111.0, 172.0, 186.0, 196.0, 216.0, 240.0, 254.0, 265.0, 275.0, 288.0, 293.0, 299.0, 307.0, 312.0, 312.0, 302.0, 289.0, 289.0, 289.0, 290.0, 302.0, 312.0, 315.0, 326.0, 343.0, 368.0, 388.0, 392.0, 392.0, 392.0, 392.0, 396.0, 396.0, 398.0, 398.0]	[0.016456274752272293, 0.021847969648661092, 0.031210731802275404, 0.0490696117922198, 0.06753504040534608, 0.0813641439017374, 0.09923428785987198, 0.11611081170849502, 0.13092431935365312, 0.14923922013258561, 0.16600993077736348, 0.18144466434023343, 0.1993233416287694, 0.21612716154777445, 0.23106389038730413, 0.24927297796239145, 0.26580953420489095, 0.28140264624380507, 0.29930146218976006, 0.3160977727966383, 0.3309932003321592, 0.34938285301905125, 0.3657692227861844, 0.3814855560194701, 0.3992328201420605, 0.41604176006512716, 0.4311228727165144, 0.4494046641921159, 0.4659733057487756, 0.48137493000831455, 0.4994198364438489, 0.5161106751766056, 0.5311467318970244, 0.5494670940097421, 0.5657981678086799, 0.581391962536145, 0.5992057865660172, 0.616061489097774, 0.6312221323314589, 0.6494110812491272, 0.6659080428944435, 0.6814687282894738, 0.6991975604614709, 0.7160355136729777, 0.7311200396507047, 0.7493690631818026, 0.7656318704248406, 0.7813680009567179, 0.7990149132092483, 0.8160641514987219, 0.8311411681643222, 0.8493434290867299, 0.8658799853292294, 0.8813713801500853, 0.8992572254501283, 0.9160603627096862, 0.931080376758473, 0.9493437362834811, 0.9659451457846444, 0.981389095337363]
24	厨师	True	animate	inanimate	left	0.913	[0.0, 0.0, 0.0, 0.0, 0.0, 0.0, 0.0, 0.0, 0.0, 0.0, 0.0, -10.0, -28.0, -48.0, -78.0, -89.0, -108.0, -110.0, -110.0, -110.0, -110.0, -110.0, -110.0, -110.0, -110.0, -111.0, -115.0, -118.0, -123.0, -123.0, -123.0, -125.0, -125.0, -124.0, -121.0, -112.0, -103.0, -100.0, -128.0, -159.0, -310.0, -447.0, -567.0, -669.0, -745.0, -799.0, -834.0, -843.0, -845.0, -847.0, -847.0, -847.0, -847.0, -847.0, -847.0]	[-490.0, -490.0, -490.0, -490.0, -490.0, -490.0, -490.0, -490.0, -490.0, -490.0, -490.0, -488.0, -486.0, -486.0, -496.0, -499.0, -503.0, -503.0, -503.0, -503.0, -503.0, -503.0, -503.0, -503.0, -503.0, -503.0, -499.0, -492.0, -467.0, -417.0, -366.0, -324.0, -285.0, -246.0, -211.0, -179.0, -132.0, -79.0, -6.0, 19.0, 115.0, 179.0, 220.0, 246.0, 279.0, 304.0, 325.0, 333.0, 338.0, 346.0, 365.0, 369.0, 375.0, 375.0, 375.0]	[0.015299292659619823, 0.020618624956114218, 0.028859084442956373, 0.0471347319544293, 0.06395561850513332, 0.07889576067100279, 0.09721475746482611, 0.11377452433225699, 0.12915737528237514, 0.14712240983499214, 0.1638825391419232, 0.17868410013034008, 0.19716830205288716, 0.21370383427711204, 0.2291187705413904, 0.24706776242237538, 0.26386100103263743, 0.2789131003955845, 0.2971942092117388, 0.31376012007240206, 0.3291849549859762, 0.347080698935315, 0.36393844947451726, 0.37865809054346755, 0.39700746597372927, 0.4137184433348011, 0.42913303824025206, 0.44711206742795184, 0.4638523994362913, 0.478722909669159, 0.4970801357412711, 0.5137863344571088, 0.5291725987335667, 0.5468533029488754, 0.5638035546871834, 0.5789348433027044, 0.5970739576150663, 0.613640209834557, 0.6290746020677034, 0.6470106233027764, 0.6638038619130384, 0.6789337851514574, 0.6971015714516398, 0.7136179890658241, 0.7291715064784512, 0.7467423014750239, 0.7637717424659058, 0.7789016657334287, 0.797084812016692, 0.8136271709227003, 0.829130853730021, 0.8469501390936784, 0.8638655748800375, 0.8789214288990479, 0.8972305270435754]
25	苍蝇	True	inanimate	animate	right	0.84	[0.0, 0.0, 0.0, 0.0, 0.0, 0.0, 0.0, 0.0, 0.0, 0.0, 0.0, 0.0, 0.0, 0.0, 0.0, 0.0, 0.0, 0.0, 0.0, 0.0, 0.0, 0.0, 0.0, -3.0, -8.0, -11.0, -12.0, -3.0, 30.0, 86.0, 151.0, 206.0, 267.0, 309.0, 345.0, 355.0, 362.0, 373.0, 398.0, 453.0, 530.0, 603.0, 666.0, 721.0, 753.0, 767.0, 770.0, 770.0, 770.0, 770.0]	[-490.0, -490.0, -490.0, -490.0, -490.0, -490.0, -490.0, -490.0, -490.0, -490.0, -490.0, -490.0, -490.0, -490.0, -490.0, -490.0, -490.0, -490.0, -490.0, -490.0, -490.0, -490.0, -472.0, -448.0, -427.0, -405.0, -382.0, -352.0, -301.0, -237.0, -161.0, -92.0, -17.0, 43.0, 111.0, 142.0, 177.0, 205.0, 231.0, 249.0, 273.0, 294.0, 326.0, 365.0, 400.0, 421.0, 427.0, 427.0, 427.0, 427.0]	[0.001616279681911692, 0.006946875975700095, 0.018057262699585408, 0.03602093190420419, 0.05356646826840006, 0.06832843463052996, 0.08621018394478597, 0.1030634971393738, 0.11798213532892987, 0.13624754283227958, 0.15290936827659607, 0.168349904473871, 0.18606678998912685, 0.20305629502399825, 0.21812238902202807, 0.2363437645835802, 0.2529202567820903, 0.26835157701862045, 0.28629647291381843, 0.3030405595782213, 0.31803565632435493, 0.3364372556679882, 0.352785054827109, 0.36840206015040167, 0.3860807163582649, 0.4030507654242683, 0.41813256073510274, 0.43637168561690487, 0.45269832212943584, 0.46833819677704014, 0.48618547143996693, 0.5029732487164438, 0.5180666493542958, 0.5362890489341225, 0.5528259465063456, 0.5682944720319938, 0.586073480109917, 0.6029336199571844, 0.6181229351495858, 0.6364610465825535, 0.6526323765865527, 0.6683852324495092, 0.6859382781549357, 0.7029980977531523, 0.7181317756767385, 0.7362988793174736, 0.7527698996418621, 0.7683507236943115, 0.7861638650647365, 0.8030530182295479]
26	黑板	False	inanimate	animate	left	1.331	[0.0, 0.0, 0.0, 0.0, 0.0, 0.0, 0.0, 0.0, 0.0, 0.0, 0.0, 0.0, 0.0, 0.0, 0.0, 0.0, 0.0, 0.0, 0.0, 0.0, 0.0, 0.0, 2.0, 3.0, 4.0, 5.0, 6.0, 11.0, 15.0, 26.0, 43.0, 73.0, 95.0, 116.0, 138.0, 173.0, 221.0, 292.0, 345.0, 409.0, 464.0, 538.0, 597.0, 663.0, 684.0, 701.0, 710.0, 714.0, 715.0, 715.0, 715.0, 714.0, 714.0, 713.0, 713.0, 713.0, 711.0, 711.0, 711.0, 710.0, 708.0, 700.0, 688.0, 646.0, 525.0, 342.0, 128.0, -158.0, -336.0, -497.0, -616.0, -681.0, -699.0, -705.0, -708.0, -711.0, -712.0, -716.0, -719.0, -719.0, -719.0]	[-490.0, -490.0, -490.0, -490.0, -490.0, -490.0, -490.0, -490.0, -490.0, -490.0, -490.0, -490.0, -490.0, -490.0, -490.0, -490.0, -490.0, -490.0, -490.0, -490.0, -490.0, -490.0, -490.0, -487.0, -486.0, -483.0, -479.0, -472.0, -461.0, -440.0, -417.0, -381.0, -360.0, -338.0, -318.0, -282.0, -221.0, -130.0, -51.0, 36.0, 89.0, 144.0, 184.0, 239.0, 260.0, 279.0, 291.0, 297.0, 300.0, 306.0, 311.0, 316.0, 318.0, 322.0, 329.0, 350.0, 364.0, 370.0, 373.0, 374.0, 377.0, 381.0, 384.0, 389.0, 399.0, 419.0, 428.0, 430.0, 432.0, 445.0, 461.0, 469.0, 473.0, 474.0, 474.0, 474.0, 474.0, 473.0, 473.0, 473.0, 473.0]	[0.013034890027483925, 0.0181156306352932, 0.024038439558353275, 0.04242911626351997, 0.05930871207965538, 0.07413621435989626, 0.09255897635011934, 0.1089473941246979, 0.1245589381433092, 0.1424437594250776, 0.15928341931430623, 0.17432732667657547, 0.19260365684749559, 0.2091064211272169, 0.22452169872121885, 0.24243143730564043, 0.25925334787461907, 0.2743798578158021, 0.292600550717907, 0.30913915496785194, 0.32462338177720085, 0.34245939247193746, 0.35926014042343013, 0.37437948235310614, 0.39263055386254564, 0.408980401000008, 0.4246131076652091, 0.44225694792112336, 0.45925430362694897, 0.4742835336655844, 0.4925472345203161, 0.5090824254148174, 0.5245427589397877, 0.5424576175573748, 0.5592017042217776, 0.5743387954717036, 0.5925550510291941, 0.6089537087827921, 0.624547844810877, 0.6423623515293002, 0.6592013287590817, 0.6742800520732999, 0.6924997209571302, 0.7089284160174429, 0.7245304026873782, 0.7424865625798702, 0.7591907132882625, 0.7743179058888927, 0.792783334502019, 0.8088369046454318, 0.8245624538685661, 0.8424052912159823, 0.8591476712026633, 0.8742608691682108, 0.8924559620791115, 0.9091491901490372, 0.9245088304451201, 0.9423718064499553, 0.9591834770399146, 0.9743543602526188, 0.9927190956368577, 1.0088095297396649, 1.0245593136060052, 1.0421707272180356, 1.059165010927245, 1.0740778464532923, 1.0923913818842266, 1.108994156733388, 1.124513882183237, 1.1423707141948398, 1.1587154413282406, 1.1740911242959555, 1.1927709099836648, 1.2087906881642994, 1.2245647066738456, 1.2423812613706104, 1.259164260001853, 1.2742965725774411, 1.29257870541187, 1.3089858964667656, 1.324530880578095]
27	金鱼	True	inanimate	animate	right	1.237	[0.0, 0.0, 0.0, 0.0, 0.0, 0.0, 0.0, 0.0, 0.0, 0.0, 0.0, 0.0, 0.0, 0.0, 0.0, 0.0, 0.0, 0.0, 0.0, -1.0, -1.0, -1.0, 1.0, 4.0, 8.0, 13.0, 20.0, 32.0, 47.0, 54.0, 58.0, 66.0, 71.0, 80.0, 93.0, 120.0, 158.0, 204.0, 277.0, 306.0, 397.0, 422.0, 455.0, 493.0, 511.0, 525.0, 538.0, 554.0, 575.0, 613.0, 665.0, 716.0, 748.0, 754.0, 756.0, 760.0, 764.0, 766.0, 766.0, 769.0, 775.0, 780.0, 785.0, 786.0, 787.0, 787.0, 787.0, 787.0, 787.0, 787.0, 787.0, 787.0, 787.0, 787.0, 787.0]	[-490.0, -490.0, -490.0, -490.0, -490.0, -490.0, -490.0, -490.0, -490.0, -490.0, -490.0, -490.0, -489.0, -487.0, -484.0, -483.0, -482.0, -478.0, -477.0, -467.0, -460.0, -454.0, -446.0, -435.0, -424.0, -410.0, -387.0, -344.0, -296.0, -283.0, -278.0, -268.0, -259.0, -248.0, -228.0, -196.0, -155.0, -125.0, -87.0, -71.0, -28.0, -19.0, -5.0, 17.0, 27.0, 37.0, 54.0, 77.0, 101.0, 134.0, 179.0, 227.0, 261.0, 271.0, 274.0, 289.0, 303.0, 319.0, 336.0, 352.0, 375.0, 394.0, 408.0, 416.0, 421.0, 424.0, 424.0, 424.0, 424.0, 424.0, 424.0, 424.0, 424.0, 424.0, 424.0]	[0.013303860381711274, 0.018484270171029493, 0.024252796632936224, 0.04300323821371421, 0.05951965582789853, 0.0748984107922297, 0.09283204269013368, 0.10969900921918452, 0.12442103962530382, 0.14269805245567113, 0.1594301924633328, 0.17494718727539293, 0.19270127805066295, 0.20959213786409236, 0.22439438151195645, 0.24290998606011271, 0.259463608963415, 0.2749259904958308, 0.2927783851628192, 0.309635794343194, 0.32463020842988044, 0.34295398389804177, 0.35944923883653246, 0.3749454123317264, 0.39266434582532384, 0.40960913625895046, 0.4246629422705155, 0.442879197828006, 0.4594273593975231, 0.47487165027996525, 0.49277865822659805, 0.5095592675206717, 0.5244215857528616, 0.5428197717701551, 0.5594413199287374, 0.5749163307773415, 0.5925912323291413, 0.6095322680776007, 0.6246539993444458, 0.6428112043358851, 0.6593023632885888, 0.6749279019422829, 0.692744115338428, 0.709552713931771, 0.7246604505344294, 0.7429033300722949, 0.7594098490371834, 0.7748698412324302, 0.7925321134680416, 0.8095803277683444, 0.8243832540756557, 0.8427636907726992, 0.8593534949468449, 0.874859225761611, 0.8927024044387508, 0.9095406990090851, 0.9246767662407365, 0.94282407258288, 0.9593473168206401, 0.9749168769048993, 0.9924760666035581, 1.0095495395362377, 1.0246664921287447, 1.0427953664620873, 1.0594653839070816, 1.074945856060367, 1.0928474026732147, 1.1096580492740031, 1.1245691781223286, 1.1427656363812275, 1.1592042300617322, 1.1748877953214105, 1.1927292673499323, 1.2095781432290096, 1.2246438958973158]
28	燕子	True	animate	inanimate	left	1.531	[0.0, 0.0, 0.0, 0.0, 0.0, 0.0, 0.0, 0.0, 0.0, 0.0, 0.0, 0.0, 0.0, 0.0, 0.0, 0.0, 0.0, 0.0, -4.0, -15.0, -23.0, -31.0, -44.0, -49.0, -60.0, -63.0, -53.0, -39.0, 23.0, 73.0, 153.0, 256.0, 367.0, 454.0, 519.0, 551.0, 567.0, 580.0, 585.0, 587.0, 596.0, 603.0, 613.0, 621.0, 635.0, 651.0, 668.0, 688.0, 704.0, 719.0, 726.0, 727.0, 727.0, 727.0, 727.0, 727.0, 727.0, 727.0, 727.0, 727.0, 727.0, 727.0, 727.0, 727.0, 727.0, 727.0, 727.0, 727.0, 727.0, 727.0, 727.0, 727.0, 727.0, 727.0, 727.0, 727.0, 727.0, 661.0, 495.0, 257.0, -20.0, -320.0, -671.0, -749.0, -861.0, -911.0, -923.0, -923.0, -924.0, -924.0, -924.0, -924.0]	[-490.0, -490.0, -490.0, -490.0, -490.0, -490.0, -490.0, -490.0, -490.0, -490.0, -490.0, -490.0, -490.0, -490.0, -490.0, -490.0, -490.0, -490.0, -481.0, -460.0, -443.0, -429.0, -401.0, -390.0, -374.0, -364.0, -338.0, -317.0, -200.0, -117.0, -21.0, 72.0, 154.0, 213.0, 256.0, 280.0, 297.0, 311.0, 319.0, 324.0, 344.0, 354.0, 364.0, 369.0, 376.0, 386.0, 396.0, 406.0, 413.0, 417.0, 417.0, 417.0, 417.0, 417.0, 417.0, 417.0, 417.0, 417.0, 417.0, 417.0, 417.0, 417.0, 417.0, 417.0, 417.0, 417.0, 417.0, 417.0, 417.0, 417.0, 417.0, 417.0, 417.0, 417.0, 417.0, 417.0, 418.0, 425.0, 436.0, 440.0, 440.0, 436.0, 388.0, 371.0, 351.0, 347.0, 347.0, 347.0, 348.0, 348.0, 348.0, 348.0]	[0.007677669782424346, 0.012653621146455407, 0.017510788689833134, 0.032587805355433375, 0.04872978074126877, 0.06425906351068988, 0.08204728757846169, 0.0990507872775197, 0.11387385224225, 0.13212560644024052, 0.14874135190621018, 0.16427712002769113, 0.1821902719384525, 0.19911219307687134, 0.21415814841748215, 0.2323651880142279, 0.24865598455653526, 0.26425421657040715, 0.28219501647981815, 0.29907017498044297, 0.3138010800466873, 0.33217434876132756, 0.3489457420655526, 0.3642739797651302, 0.38200247057829984, 0.39900119160301983, 0.41406660294160247, 0.432197866612114, 0.4488402360584587, 0.46424493231461383, 0.48207548167556524, 0.4989755575079471, 0.513829001080012, 0.5320940672536381, 0.5488958391943015, 0.5642489941965323, 0.5820891008770559, 0.5989529953803867, 0.6140225027338602, 0.6322083796549123, 0.6488026211736724, 0.6642533973790705, 0.6820590294373687, 0.6990164491871838, 0.714001305954298, 0.7322547668009065, 0.7487773284083232, 0.764241416589357, 0.7820450006693136, 0.7989590711076744, 0.814053495763801, 0.8321519914607052, 0.848751352954423, 0.8642625451029744, 0.8821453184064012, 0.8991276554588694, 0.9141248002124485, 0.9322420692187734, 0.9488557667064015, 0.9642785536125302, 0.9821128576586489, 0.9989494455221575, 1.0140718594775535, 1.0321662591886707, 1.0488775778794661, 1.064268620830262, 1.081847266497789, 1.0989466807222925, 1.1140284760622308, 1.1322078676603269, 1.1488396557979286, 1.16426517337095, 1.1820489601232111, 1.1989602999237832, 1.2140714498527814, 1.2322508414799813, 1.2488348429906182, 1.2642306646157522, 1.2821666858508252, 1.2990141963819042, 1.3138102960365359, 1.3320821888919454, 1.3487508409598377, 1.364249062462477, 1.3820936064585112, 1.3989568183314987, 1.413785685930634, 1.4320237868232653, 1.4488743693509605, 1.464241518988274, 1.4820775296830107, 1.4991076533333398]
29	黑狗	True	animate	inanimate	left	1.195	[0.0, 2.0, 3.0, 3.0, 5.0, 8.0, 13.0, 26.0, 30.0, 35.0, 38.0, 38.0, 38.0, 38.0, 38.0, 38.0, 38.0, 38.0, 38.0, 38.0, 38.0, 32.0, 20.0, 3.0, -4.0, -17.0, -24.0, -31.0, -33.0, -17.0, 7.0, 52.0, 109.0, 163.0, 201.0, 287.0, 318.0, 398.0, 421.0, 426.0, 426.0, 413.0, 338.0, 229.0, 91.0, -60.0, -232.0, -470.0, -529.0, -604.0, -616.0, -621.0, -621.0, -621.0, -621.0, -621.0, -621.0, -621.0, -621.0, -621.0, -621.0, -621.0, -621.0, -621.0, -621.0, -621.0, -628.0, -663.0, -691.0, -704.0, -704.0, -704.0]	[-490.0, -488.0, -488.0, -488.0, -487.0, -486.0, -483.0, -474.0, -472.0, -470.0, -469.0, -469.0, -469.0, -469.0, -469.0, -469.0, -469.0, -469.0, -469.0, -469.0, -469.0, -458.0, -396.0, -346.0, -314.0, -252.0, -228.0, -202.0, -172.0, -128.0, -79.0, -16.0, 47.0, 109.0, 150.0, 217.0, 230.0, 258.0, 269.0, 274.0, 279.0, 290.0, 312.0, 332.0, 353.0, 370.0, 387.0, 392.0, 392.0, 392.0, 392.0, 393.0, 393.0, 393.0, 393.0, 393.0, 393.0, 393.0, 393.0, 393.0, 393.0, 393.0, 393.0, 393.0, 393.0, 393.0, 393.0, 390.0, 386.0, 384.0, 383.0, 383.0]	[0.012886410200735554, 0.017428868770366535, 0.024026151571888477, 0.042121575272176415, 0.05915272294078022, 0.07388772399281152, 0.09239035789505579, 0.10886274353833869, 0.12435038370313123, 0.14220346105867065, 0.15913493948755786, 0.17399282040423714, 0.19226266525220126, 0.20886407475336455, 0.22436263755662367, 0.24220854690065607, 0.2591058920661453, 0.2740173622441944, 0.29243124957429245, 0.30896780581679195, 0.3243868380668573, 0.3424139952112455, 0.35917480717762373, 0.37425250650267117, 0.3924243887886405, 0.408950363722397, 0.42434857465559617, 0.44223510261508636, 0.4591034344630316, 0.4739510754006915, 0.49233082943828776, 0.5088588523503859, 0.5243239645496942, 0.5422251698328182, 0.5590126057795715, 0.5740845024411101, 0.5924113498767838, 0.6088339009147603, 0.6243491890490986, 0.6422094343870413, 0.6591183848504443, 0.6738800098828506, 0.6922454279265366, 0.7089557226281613, 0.7243395975965541, 0.7422063282574527, 0.7589978601899929, 0.7741110581264365, 0.7923092230630573, 0.8086181102553383, 0.8243419528007507, 0.8423428272944875, 0.8590968126081862, 0.8742820317856967, 0.8924986287020147, 0.9088686144677922, 0.9243572786508594, 0.9422407346137334, 0.959095071797492, 0.974138296500314, 0.9922688775113784, 1.0089190976286773, 1.0243493938469328, 1.0422191965044476, 1.0591462376178242, 1.0739832972176373, 1.0925036804401316, 1.1087443010183051, 1.124358575703809, 1.1422102877113502, 1.1590519955789205, 1.174181236186996]
30	黑狗	True	inanimate	animate	right	0.948	[0.0, 0.0, 0.0, 0.0, 0.0, 0.0, 0.0, 0.0, 0.0, 0.0, 0.0, 0.0, 0.0, 0.0, 0.0, 0.0, 0.0, 0.0, 1.0, 8.0, 43.0, 60.0, 109.0, 157.0, 198.0, 259.0, 322.0, 376.0, 418.0, 441.0, 444.0, 442.0, 427.0, 393.0, 264.0, 144.0, 4.0, -142.0, -282.0, -386.0, -454.0, -476.0, -480.0, -480.0, -480.0, -481.0, -481.0, -473.0, -395.0, -228.0, -4.0, 217.0, 449.0, 648.0, 786.0, 846.0, 855.0, 855.0]	[-490.0, -490.0, -490.0, -490.0, -490.0, -490.0, -490.0, -490.0, -490.0, -490.0, -490.0, -490.0, -490.0, -490.0, -490.0, -490.0, -490.0, -481.0, -462.0, -416.0, -312.0, -278.0, -183.0, -98.0, -21.0, 63.0, 146.0, 217.0, 266.0, 301.0, 326.0, 343.0, 355.0, 368.0, 388.0, 406.0, 427.0, 446.0, 461.0, 468.0, 475.0, 477.0, 478.0, 478.0, 478.0, 478.0, 478.0, 478.0, 478.0, 478.0, 478.0, 478.0, 478.0, 478.0, 477.0, 477.0, 477.0, 477.0]	[0.011856608762172982, 0.017106650513596833, 0.021638527745380998, 0.040094057709211484, 0.05667225655633956, 0.07181753980694339, 0.09028330974979326, 0.10685570596251637, 0.12224743157275952, 0.1401377141883131, 0.15707533661043271, 0.17174104708828963, 0.19015322776976973, 0.20677853058441542, 0.22219619748648256, 0.23992810162599199, 0.2569326253142208, 0.2720963405445218, 0.29018562025157735, 0.30684198436210863, 0.3221306274353992, 0.3400690380076412, 0.35689402057323605, 0.3719464612659067, 0.3901347275241278, 0.4067016624030657, 0.4222285558353178, 0.44001029460923746, 0.4568731651233975, 0.4719768057402689, 0.4901022667763755, 0.506614588375669, 0.5222008737619035, 0.5399242445710115, 0.5569000963005237, 0.5720112462295219, 0.5902005365060177, 0.606664388848003, 0.6222312182362657, 0.6398433145368472, 0.6568683182122186, 0.6717855910537764, 0.6902100596926175, 0.7064513629593421, 0.7222035361337475, 0.7399211043084506, 0.7569925292627886, 0.7719685113697778, 0.790113087015925, 0.8067035738495179, 0.8221959926886484, 0.8398381262668408, 0.8568945325678214, 0.8719688185665291, 0.8902676767029334, 0.9067294810374733, 0.9222167798725422, 0.9400766838516574]
31	骑兵	True	inanimate	animate	right	0.967	[0.0, 0.0, 0.0, 0.0, 0.0, 0.0, 0.0, 0.0, 0.0, 0.0, 0.0, 0.0, 0.0, 0.0, 0.0, 0.0, 0.0, 0.0, 0.0, 0.0, -1.0, -2.0, -2.0, -3.0, -5.0, -17.0, -25.0, -31.0, -36.0, -40.0, -37.0, -15.0, 26.0, 64.0, 114.0, 199.0, 237.0, 356.0, 438.0, 510.0, 566.0, 611.0, 645.0, 680.0, 687.0, 699.0, 704.0, 708.0, 711.0, 722.0, 724.0, 726.0, 726.0, 726.0, 726.0, 726.0, 726.0, 726.0, 726.0]	[-490.0, -490.0, -490.0, -490.0, -490.0, -490.0, -490.0, -490.0, -490.0, -490.0, -490.0, -490.0, -490.0, -490.0, -490.0, -490.0, -490.0, -490.0, -490.0, -491.0, -492.0, -493.0, -493.0, -493.0, -493.0, -477.0, -459.0, -418.0, -367.0, -327.0, -298.0, -256.0, -196.0, -137.0, -59.0, 30.0, 57.0, 132.0, 180.0, 220.0, 252.0, 277.0, 297.0, 317.0, 323.0, 334.0, 341.0, 348.0, 355.0, 376.0, 385.0, 388.0, 388.0, 388.0, 388.0, 388.0, 388.0, 388.0, 388.0]	[0.01537643390474841, 0.020569131680531427, 0.02887444442603737, 0.0471920759009663, 0.06394742653355934, 0.07905925915110856, 0.09733456530375406, 0.11383801227202639, 0.12924202586873434, 0.1472009163990151, 0.16398903503431939, 0.17899915043381043, 0.1972939125553239, 0.21381647416274063, 0.229191815800732, 0.24717630629311316, 0.2639821742195636, 0.2788598524639383, 0.29730889707570896, 0.31383282400202006, 0.32919826699071564, 0.3472185974533204, 0.36403265738044865, 0.3790287781157531, 0.3972750709799584, 0.4138474671926815, 0.4291893581976183, 0.44707315549021587, 0.46411454313783906, 0.4787819602934178, 0.497544348530937, 0.513853235723218, 0.5292214093497023, 0.5471314892929513, 0.5639155119133648, 0.5790027685579844, 0.5971900108270347, 0.6137975643214304, 0.6292507298639975, 0.646879892796278, 0.6640294829849154, 0.6788836092164274, 0.6972220619791187, 0.7135486984916497, 0.7292087117675692, 0.7470843170885928, 0.7638471770624164, 0.7789825616346207, 0.7971766305854544, 0.8136790535354521, 0.829205264308257, 0.8470767736143898, 0.8639478361292277, 0.8789927675097715, 0.8972199457348324, 0.9137053020240273, 0.9292284408293199, 0.9470292942132801, 0.9639573593158275]
32	筷子	False	inanimate	animate	left	1.264	[0.0, 0.0, 0.0, 0.0, 0.0, 0.0, 0.0, 0.0, 0.0, 0.0, 0.0, 0.0, 0.0, 0.0, 0.0, 0.0, 0.0, 0.0, 0.0, 0.0, -12.0, -20.0, -42.0, -53.0, -61.0, -71.0, -77.0, -79.0, -80.0, -80.0, -80.0, -68.0, 18.0, 67.0, 193.0, 274.0, 361.0, 438.0, 506.0, 567.0, 615.0, 645.0, 661.0, 671.0, 689.0, 697.0, 716.0, 727.0, 733.0, 735.0, 735.0, 735.0, 735.0, 735.0, 735.0, 735.0, 735.0, 735.0, 735.0, 735.0, 735.0, 735.0, 683.0, 524.0, 166.0, 34.0, -228.0, -546.0, -702.0, -760.0, -856.0, -888.0, -896.0, -896.0, -896.0, -896.0, -896.0]	[-490.0, -490.0, -490.0, -490.0, -490.0, -490.0, -490.0, -490.0, -490.0, -490.0, -490.0, -490.0, -490.0, -490.0, -490.0, -490.0, -490.0, -490.0, -490.0, -490.0, -475.0, -465.0, -440.0, -423.0, -403.0, -380.0, -357.0, -333.0, -308.0, -279.0, -256.0, -231.0, -162.0, -128.0, -37.0, 21.0, 82.0, 138.0, 188.0, 230.0, 270.0, 299.0, 327.0, 352.0, 383.0, 391.0, 412.0, 423.0, 431.0, 435.0, 438.0, 438.0, 438.0, 438.0, 438.0, 438.0, 438.0, 438.0, 438.0, 438.0, 438.0, 438.0, 438.0, 438.0, 438.0, 438.0, 438.0, 438.0, 438.0, 440.0, 453.0, 461.0, 464.0, 464.0, 464.0, 464.0, 464.0]	[0.011441889277193695, 0.016336944769136608, 0.020588587678503245, 0.03948887443402782, 0.05583052957081236, 0.07120109253446572, 0.08919582303497009, 0.10601158963982016, 0.12102750767371617, 0.13927994456025772, 0.155870090064127, 0.17259267275221646, 0.18925108484108932, 0.20606992341345176, 0.22096432695980184, 0.2393754836230073, 0.25581783198867925, 0.2712641708785668, 0.2891599148279056, 0.30596202809829265, 0.3209847728139721, 0.339258030988276, 0.3558427151583601, 0.37119621149031445, 0.38916500069899485, 0.40600978056318127, 0.42087005081702955, 0.43920713823172264, 0.45574096380732954, 0.4712149506667629, 0.4891386839153711, 0.5058831119094975, 0.520956715248758, 0.5392313387419563, 0.5557463910081424, 0.5711623512615915, 0.5891212417918723, 0.6059516856912524, 0.6207430067006499, 0.6391548460233025, 0.6555132264911663, 0.6711862104421016, 0.6890263171226252, 0.7058806543063838, 0.7208573191019241, 0.7392056705139112, 0.7557237947767135, 0.7712411308893934, 0.7891819307988044, 0.8060028173786122, 0.8209927941206843, 0.8391721857478842, 0.8557469712686725, 0.8711902381619439, 0.8890733527950943, 0.9059799139213283, 0.9210050479741767, 0.939240759529639, 0.9556950545520522, 0.9712294573255349, 0.9890886786452029, 1.005967591801891, 1.0207558408146724, 1.039160512154922, 1.0556567911116872, 1.0711799299169797, 1.0891285804682411, 1.1058409231773112, 1.1209865477285348, 1.1391935873252805, 1.1557588155264966, 1.1712242690555286, 1.1890978263691068, 1.2059214435867034, 1.2210189402394462, 1.2392351957969368, 1.2557396667543799]
33	蝌蚪	True	animate	inanimate	left	1.456	[0.0, 0.0, 0.0, 0.0, 0.0, 0.0, 0.0, 0.0, 0.0, -1.0, -3.0, -4.0, -4.0, -4.0, -4.0, -8.0, -21.0, -33.0, -39.0, -55.0, -63.0, -71.0, -81.0, -86.0, -86.0, -59.0, -44.0, -9.0, 47.0, 94.0, 124.0, 222.0, 294.0, 352.0, 401.0, 444.0, 479.0, 504.0, 527.0, 543.0, 560.0, 571.0, 580.0, 603.0, 621.0, 647.0, 671.0, 692.0, 708.0, 710.0, 710.0, 710.0, 710.0, 689.0, 645.0, 389.0, 152.0, -116.0, -382.0, -620.0, -807.0, -929.0, -960.0, -960.0, -960.0, -960.0, -960.0, -960.0, -960.0, -960.0, -960.0, -960.0, -960.0, -960.0, -960.0, -960.0, -960.0, -960.0, -960.0, -958.0, -936.0, -908.0, -881.0, -858.0, -838.0, -825.0, -824.0, -824.0]	[-490.0, -490.0, -490.0, -490.0, -490.0, -490.0, -490.0, -489.0, -489.0, -488.0, -488.0, -488.0, -488.0, -488.0, -488.0, -486.0, -467.0, -451.0, -444.0, -425.0, -415.0, -405.0, -396.0, -387.0, -382.0, -348.0, -326.0, -274.0, -183.0, -122.0, -88.0, -3.0, 54.0, 102.0, 143.0, 180.0, 211.0, 240.0, 271.0, 296.0, 319.0, 333.0, 343.0, 364.0, 375.0, 387.0, 397.0, 406.0, 414.0, 414.0, 414.0, 414.0, 414.0, 419.0, 425.0, 462.0, 494.0, 518.0, 539.0, 540.0, 540.0, 540.0, 540.0, 538.0, 538.0, 538.0, 538.0, 538.0, 538.0, 538.0, 538.0, 538.0, 538.0, 538.0, 538.0, 538.0, 538.0, 538.0, 538.0, 537.0, 531.0, 526.0, 522.0, 520.0, 515.0, 511.0, 511.0, 511.0]	[0.013659529300639406, 0.018377091648289934, 0.025386704597622156, 0.04379888527910225, 0.060522150626638904, 0.07561316192732193, 0.09389461210230365, 0.1102410459134262, 0.12581948062870651, 0.1438114804623183, 0.16060744973947294, 0.1754520186514128, 0.1937747701012995, 0.2104925741441548, 0.22577677987283096, 0.2439452488324605, 0.26066749019082636, 0.2756373283045832, 0.2939484744274523, 0.3102508762967773, 0.325818388373591, 0.3435970551217906, 0.3606630187423434, 0.3754836943699047, 0.39384638174669817, 0.4102675674657803, 0.4258582901675254, 0.44374174615950324, 0.4604868568130769, 0.4756287267082371, 0.49381323833949864, 0.5103825625265017, 0.5257920374569949, 0.5434908323222771, 0.5605841025535483, 0.5754802127776202, 0.5938394868280739, 0.6104112003813498, 0.6257998539949767, 0.6437816138204653, 0.6605001005227678, 0.6755597091978416, 0.6937674314540345, 0.710299891710747, 0.7258670624287333, 0.7436931744741742, 0.7606642475293484, 0.7754470352083445, 0.7938810611958615, 0.8103353561891709, 0.8258270923397504, 0.8435726498137228, 0.8605003735865466, 0.875630638183793, 0.89383187511703, 0.9100837596924976, 0.92578985291766, 0.9437238261743914, 0.960659059259342, 0.9756562040129211, 0.9939038622251246, 1.010148578818189, 1.025794256129302, 1.0437504159926903, 1.0605262466415297, 1.0755899513023905, 1.0937348682782613, 1.110121579375118, 1.1258164086320903, 1.1437217099010013, 1.1606402176839765, 1.1755260878999252, 1.1939365619036835, 1.2100744413037319, 1.2258255904889666, 1.2437670730578247, 1.26053198100999, 1.2756151416688226, 1.2937849759764504, 1.3103382575209253, 1.325802345701959, 1.3437199349864386, 1.3606469760998152, 1.3755171449738555, 1.3939436616492458, 1.410479535232298, 1.4258009462500922, 1.4434229411999695]
34	邮票	False	animate	inanimate	right	0.867	[0.0, 0.0, 0.0, 0.0, 0.0, 0.0, 3.0, 3.0, 3.0, 3.0, 3.0, -2.0, -4.0, -10.0, -11.0, -12.0, -12.0, -12.0, -12.0, -12.0, -14.0, -16.0, -23.0, -30.0, -45.0, -55.0, -57.0, -59.0, -62.0, -64.0, -67.0, -69.0, -34.0, 0.0, 87.0, 179.0, 273.0, 412.0, 500.0, 571.0, 651.0, 720.0, 768.0, 787.0, 795.0, 796.0, 796.0, 796.0, 798.0, 803.0, 803.0, 803.0, 803.0]	[-490.0, -490.0, -490.0, -490.0, -490.0, -490.0, -488.0, -484.0, -481.0, -481.0, -479.0, -478.0, -477.0, -476.0, -476.0, -476.0, -476.0, -476.0, -476.0, -476.0, -474.0, -473.0, -466.0, -460.0, -450.0, -437.0, -426.0, -410.0, -394.0, -374.0, -352.0, -332.0, -272.0, -238.0, -153.0, -69.0, 10.0, 111.0, 185.0, 253.0, 313.0, 355.0, 382.0, 397.0, 411.0, 415.0, 416.0, 418.0, 421.0, 429.0, 429.0, 429.0, 429.0]	[0.01396433959598653, 0.019646508822916076, 0.025999397214036435, 0.044773049477953464, 0.061295269726542756, 0.07658220612211153, 0.09454997134162113, 0.11135652192751877, 0.1263942852965556, 0.14463989550131373, 0.1612744142767042, 0.17656271602027118, 0.19451102524180897, 0.2113527331093792, 0.22618228339706548, 0.24461801606230438, 0.26130987878423184, 0.2766568897641264, 0.2945266924216412, 0.311414821568178, 0.3263802223664243, 0.3446207125671208, 0.3612374820513651, 0.37657083975500427, 0.39452802363666706, 0.4112983929226175, 0.42621873776079156, 0.44469269970431924, 0.46125451457919553, 0.4767172374413349, 0.49422932317247614, 0.5113072334497701, 0.5263890287606046, 0.5445749057107605, 0.5611804111977108, 0.5766922860057093, 0.5944706114241853, 0.6112969593377784, 0.6261241202882957, 0.6444864663353655, 0.661128153122263, 0.6765905346546788, 0.6943094681482762, 0.7112552825710736, 0.7262326300260611, 0.7446175040386152, 0.7611547429696657, 0.7765703618642874, 0.7944357272062916, 0.8112719737400766, 0.8264090649900027, 0.8446068885968998, 0.8611202342144679]
35	小鸡	True	inanimate	animate	right	0.901	[0.0, 0.0, 0.0, 0.0, 0.0, 0.0, 0.0, 0.0, 0.0, 0.0, 0.0, 0.0, 0.0, 0.0, 0.0, 0.0, 0.0, 0.0, 0.0, 0.0, -10.0, -16.0, -33.0, -44.0, -57.0, -66.0, -72.0, -76.0, -80.0, -80.0, -58.0, 44.0, 128.0, 172.0, 315.0, 408.0, 504.0, 586.0, 665.0, 723.0, 775.0, 785.0, 798.0, 808.0, 813.0, 814.0, 816.0, 819.0, 821.0, 821.0, 821.0, 821.0, 821.0, 821.0]	[-490.0, -490.0, -490.0, -490.0, -490.0, -490.0, -490.0, -490.0, -490.0, -490.0, -490.0, -490.0, -490.0, -490.0, -490.0, -490.0, -490.0, -490.0, -490.0, -490.0, -483.0, -479.0, -455.0, -434.0, -413.0, -398.0, -387.0, -379.0, -368.0, -362.0, -326.0, -204.0, -107.0, -60.0, 61.0, 134.0, 205.0, 270.0, 326.0, 366.0, 403.0, 410.0, 422.0, 433.0, 444.0, 447.0, 458.0, 464.0, 468.0, 468.0, 468.0, 468.0, 468.0, 468.0]	[0.003159377578413114, 0.00794998518540524, 0.021193702705204487, 0.039911717671202496, 0.05627931412891485, 0.07170756233972497, 0.08962173826876096, 0.10640712623717263, 0.12145239891833626, 0.13973453175276518, 0.15612192550906911, 0.17163789630285464, 0.18959849351085722, 0.20649856931413524, 0.2214663594495505, 0.2397512229217682, 0.2562434058927465, 0.2716088488814421, 0.28950391014222987, 0.3064347059407737, 0.32139532806468196, 0.3396750715619419, 0.35626316905836575, 0.37158526276471093, 0.3896380198711995, 0.4064916743955109, 0.4213495553121902, 0.4397989412827883, 0.4563290122023318, 0.4715667966520414, 0.48955401784041896, 0.5063025418203324, 0.5214314410695806, 0.5395906940393616, 0.5561610422446392, 0.5715828051615972, 0.5894717224582564, 0.606462592841126, 0.6214109269785695, 0.6397964836796746, 0.6562111840758007, 0.6716404563048854, 0.6894665683212224, 0.7062543455976993, 0.7212013144162484, 0.7394708179344889, 0.75619852062664, 0.7715752275835257, 0.7892630997812375, 0.8063416927179787, 0.8213815040653571, 0.8395342717121821, 0.8561233932268806, 0.8716257107153069]
36	蝴蝶	True	inanimate	animate	right	0.866	[0.0, 0.0, 0.0, 0.0, 0.0, 0.0, 0.0, 0.0, 0.0, 0.0, 0.0, 0.0, 0.0, 0.0, 0.0, 0.0, 0.0, 0.0, 0.0, -1.0, -4.0, -7.0, -12.0, -14.0, -17.0, -18.0, -18.0, -18.0, -17.0, -6.0, 8.0, 82.0, 152.0, 235.0, 330.0, 420.0, 483.0, 548.0, 606.0, 649.0, 681.0, 689.0, 692.0, 693.0, 693.0, 696.0, 696.0, 696.0, 699.0, 701.0, 703.0, 703.0, 703.0]	[-490.0, -490.0, -490.0, -490.0, -490.0, -490.0, -490.0, -490.0, -490.0, -490.0, -490.0, -490.0, -490.0, -490.0, -490.0, -490.0, -490.0, -490.0, -490.0, -487.0, -483.0, -477.0, -471.0, -470.0, -466.0, -465.0, -464.0, -460.0, -437.0, -412.0, -390.0, -289.0, -224.0, -159.0, -93.0, -22.0, 48.0, 145.0, 237.0, 302.0, 341.0, 353.0, 358.0, 362.0, 368.0, 373.0, 377.0, 382.0, 389.0, 400.0, 405.0, 405.0, 405.0]	[0.013801182445604354, 0.019201752002118155, 0.02588675735751167, 0.04437232459895313, 0.060665510478429496, 0.07624633453087881, 0.0941512944700662, 0.11096262373030186, 0.1260010697587859, 0.1442876399087254, 0.1607791401911527, 0.17623537773033604, 0.19414989498909563, 0.2109847762330901, 0.22601707826834172, 0.24430228309938684, 0.26081767669529654, 0.2762018929643091, 0.29417170616216026, 0.3109639207832515, 0.32605083609814756, 0.34430975827854127, 0.3607678079570178, 0.37617113889427856, 0.3942023919953499, 0.410868654755177, 0.4259879967139568, 0.4442264389072079, 0.46059949666960165, 0.4761670087464154, 0.49410883264499716, 0.5110252924496308, 0.5259685065830126, 0.5442704367160331, 0.5606830891047139, 0.5761413746513426, 0.5939336947340053, 0.6108576638507657, 0.6259650591237005, 0.6441202161076944, 0.6606379990407731, 0.6761836658115499, 0.6938298953755293, 0.7108917630102951, 0.7259377183509059, 0.7442273604974616, 0.7606212395767216, 0.7761686130252201, 0.7939834610733669, 0.8110333820222877, 0.8260441801103298, 0.8441402864700649, 0.860478186950786]
37	钉子	False	inanimate	animate	left	0.904	[0.0, 0.0, 0.0, 0.0, 0.0, 0.0, 0.0, 0.0, 0.0, 0.0, 0.0, -1.0, -1.0, -2.0, -3.0, -3.0, -4.0, -4.0, -4.0, -4.0, -4.0, -6.0, -9.0, -9.0, -9.0, -21.0, -28.0, -25.0, 12.0, 69.0, 130.0, 249.0, 335.0, 412.0, 469.0, 512.0, 533.0, 538.0, 538.0, 524.0, 495.0, 431.0, 325.0, 186.0, -73.0, -152.0, -360.0, -473.0, -571.0, -655.0, -698.0, -718.0, -723.0, -723.0, -723.0]	[-490.0, -490.0, -490.0, -490.0, -490.0, -490.0, -490.0, -490.0, -490.0, -490.0, -488.0, -484.0, -480.0, -477.0, -475.0, -474.0, -473.0, -472.0, -470.0, -462.0, -453.0, -438.0, -415.0, -380.0, -328.0, -239.0, -151.0, -66.0, 13.0, 99.0, 172.0, 271.0, 322.0, 363.0, 388.0, 408.0, 420.0, 426.0, 430.0, 440.0, 444.0, 449.0, 451.0, 455.0, 460.0, 460.0, 460.0, 460.0, 460.0, 460.0, 460.0, 460.0, 459.0, 459.0, 459.0]	[0.00033710041316226125, 0.005058076116256416, 0.01567284742486663, 0.03385906570474617, 0.05067756294738501, 0.06570099032251164, 0.08399370446568355, 0.1003128316369839, 0.11589502103743143, 0.133877463551471, 0.15069596079410985, 0.16565863089635968, 0.1839629503665492, 0.20036843477282673, 0.21598236812860705, 0.2336610243364703, 0.2506505293713417, 0.26568795141065493, 0.28388236166210845, 0.30056022974895313, 0.3158502381411381, 0.3338118593674153, 0.35063103926950134, 0.36568279727362096, 0.3839365994790569, 0.4004465317411814, 0.41588263065204956, 0.43383503585937433, 0.45076139431330375, 0.4658025710086804, 0.48387239474686794, 0.5001932285958901, 0.5159351617621724, 0.5338728896749672, 0.5506142456724774, 0.5656858010042924, 0.5838757739402354, 0.6003235836396925, 0.615863106388133, 0.633735981042264, 0.6505244409781881, 0.6654393245116808, 0.6837508119642735, 0.7004064933862537, 0.7158664855815005, 0.7334881392016541, 0.7506902946624905, 0.7657249860349111, 0.783986980211921, 0.8002224808151368, 0.8159251607139595, 0.8338622059673071, 0.8505748900061008, 0.8656983279215638, 0.8839616874465719]
38	沙发	False	inanimate	animate	left	1.233	[0.0, 0.0, 0.0, 0.0, 0.0, 0.0, 0.0, 0.0, 0.0, 0.0, 0.0, 0.0, 0.0, 0.0, 0.0, 0.0, 0.0, 0.0, 0.0, 0.0, 1.0, 1.0, 4.0, 9.0, 16.0, 36.0, 59.0, 91.0, 140.0, 211.0, 287.0, 363.0, 440.0, 511.0, 585.0, 676.0, 705.0, 777.0, 812.0, 826.0, 827.0, 827.0, 810.0, 631.0, 534.0, 302.0, 35.0, -375.0, -507.0, -860.0, -960.0, -960.0, -960.0, -960.0, -960.0, -960.0, -960.0, -960.0, -960.0, -960.0, -960.0, -960.0, -960.0, -960.0, -960.0, -952.0, -931.0, -913.0, -887.0, -854.0, -786.0, -764.0, -759.0, -759.0, -759.0]	[-490.0, -490.0, -490.0, -490.0, -490.0, -490.0, -490.0, -490.0, -490.0, -490.0, -490.0, -490.0, -490.0, -490.0, -490.0, -490.0, -490.0, -490.0, -490.0, -490.0, -483.0, -466.0, -428.0, -391.0, -362.0, -266.0, -207.0, -147.0, -71.0, 10.0, 84.0, 150.0, 216.0, 264.0, 317.0, 371.0, 389.0, 422.0, 443.0, 455.0, 456.0, 456.0, 459.0, 459.0, 463.0, 470.0, 470.0, 470.0, 470.0, 470.0, 470.0, 470.0, 470.0, 470.0, 470.0, 470.0, 470.0, 470.0, 470.0, 470.0, 470.0, 470.0, 470.0, 470.0, 470.0, 469.0, 465.0, 464.0, 457.0, 447.0, 422.0, 412.0, 409.0, 408.0, 408.0]	[0.015921883925329894, 0.02128456550417468, 0.030072864348767325, 0.04814610141329467, 0.06511239582323469, 0.08014128453214653, 0.0985285478818696, 0.11495485360501334, 0.1303742271848023, 0.14826143780373968, 0.1651976949069649, 0.18015353838563897, 0.19843532986124046, 0.2147943929885514, 0.23037760637816973, 0.2483078249497339, 0.26517752214567736, 0.2801787628850434, 0.2984489490627311, 0.3150732278591022, 0.3303526549425442, 0.3484170173469465, 0.3651512053620536, 0.38013913412578404, 0.39842843494261615, 0.4147376634646207, 0.4303652501257602, 0.44819750616443343, 0.46514195523923263, 0.48015241196844727, 0.4983731048705522, 0.5148349092050921, 0.5303573653509375, 0.5482060053327587, 0.5649872972862795, 0.5801813911530189, 0.5984843452752102, 0.6148908536706585, 0.6303668885375373, 0.6482271338463761, 0.6650534817599691, 0.6798983920307364, 0.6983607486181427, 0.71490549686132, 0.7304252223111689, 0.7482253930647857, 0.7650271649763454, 0.7801850775431376, 0.7984061117749661, 0.8147894095454831, 0.8303702335979324, 0.848228089598706, 0.865077306778403, 0.880238632671535, 0.8984258749405853, 0.9148317006765865, 0.9303517674852628, 0.9481690048705786, 0.965180355211487, 0.9801105986989569, 0.998393414192833, 1.014833373221336, 1.030353781330632, 1.0481816000537947, 1.065087819850305, 1.0802689430420287, 1.0984462866617832, 1.1148596217099112, 1.130358184542274, 1.148164157930296, 1.1652198815427255, 1.1801392023917288, 1.1983776446140837, 1.214867438247893, 1.2303683903883211]
39	药品	False	animate	inanimate	right	0.901	[0.0, 0.0, 0.0, 0.0, 0.0, 0.0, 0.0, 0.0, 0.0, 0.0, 0.0, 0.0, 0.0, 0.0, -2.0, -5.0, -11.0, -21.0, -36.0, -50.0, -57.0, -70.0, -94.0, -118.0, -136.0, -150.0, -157.0, -156.0, -138.0, -108.0, -79.0, -55.0, -20.0, 21.0, 72.0, 84.0, 84.0, 73.0, 56.0, 26.0, -1.0, -9.0, -9.0, 11.0, 96.0, 204.0, 388.0, 514.0, 565.0, 684.0, 714.0, 720.0, 720.0, 720.0]	[-490.0, -490.0, -490.0, -490.0, -490.0, -490.0, -490.0, -490.0, -490.0, -490.0, -490.0, -490.0, -490.0, -490.0, -490.0, -490.0, -492.0, -494.0, -494.0, -494.0, -492.0, -479.0, -437.0, -388.0, -342.0, -298.0, -254.0, -225.0, -182.0, -138.0, -80.0, -26.0, 33.0, 85.0, 148.0, 170.0, 179.0, 211.0, 229.0, 241.0, 247.0, 251.0, 253.0, 268.0, 303.0, 333.0, 384.0, 413.0, 427.0, 460.0, 468.0, 470.0, 470.0, 470.0]	[0.0017360875208396465, 0.006680977618088946, 0.018078766675898805, 0.036666392465122044, 0.053162330092163756, 0.06860013565164991, 0.08652250355225988, 0.10329833420109935, 0.11838149483082816, 0.1366226677200757, 0.15309334671474062, 0.16868953075027093, 0.18641221889993176, 0.203252220118884, 0.21811658635851927, 0.23663594556273893, 0.2530434779764619, 0.2685700300789904, 0.28652448329376057, 0.303275396610843, 0.31836435993318446, 0.33671817267895676, 0.35318816898507066, 0.3686188065621536, 0.3864790518709924, 0.40325931983534247, 0.4183561337995343, 0.4365717066975776, 0.4530884656414855, 0.4685559671779629, 0.4863633058848791, 0.5031968217808753, 0.5182680357829668, 0.5364982860046439, 0.553059418220073, 0.5685791436699219, 0.5864561143098399, 0.6031735769938678, 0.618353334866697, 0.6365931424079463, 0.6530232027871534, 0.6685453175741713, 0.6862096378172282, 0.7031871961953584, 0.7183621753938496, 0.736496852390701, 0.7530897285614628, 0.7685568887682166, 0.7863690061494708, 0.8032230020035058, 0.8183167439710815, 0.8364889676158782, 0.8530862811021507, 0.8685657292953692]
40	记者	True	animate	inanimate	left	1.504	[0.0, 0.0, 0.0, 0.0, 0.0, 0.0, 0.0, 0.0, 0.0, 0.0, 0.0, 0.0, 0.0, 0.0, 0.0, 0.0, 0.0, 0.0, 0.0, 0.0, 0.0, 0.0, 0.0, 0.0, 0.0, 0.0, 0.0, -1.0, 20.0, 38.0, 58.0, 126.0, 179.0, 252.0, 326.0, 390.0, 440.0, 479.0, 514.0, 560.0, 629.0, 662.0, 668.0, 677.0, 678.0, 678.0, 678.0, 681.0, 681.0, 681.0, 681.0, 681.0, 679.0, 662.0, 608.0, 491.0, 295.0, 49.0, -216.0, -447.0, -618.0, -751.0, -859.0, -937.0, -960.0, -960.0, -960.0, -960.0, -960.0, -960.0, -960.0, -960.0, -960.0, -960.0, -960.0, -960.0, -960.0, -960.0, -960.0, -960.0, -960.0, -950.0, -941.0, -934.0, -932.0, -929.0, -929.0, -928.0, -928.0, -928.0, -928.0]	[-490.0, -490.0, -490.0, -490.0, -490.0, -490.0, -490.0, -490.0, -490.0, -490.0, -490.0, -490.0, -490.0, -490.0, -490.0, -490.0, -490.0, -490.0, -490.0, -490.0, -490.0, -490.0, -490.0, -490.0, -490.0, -490.0, -490.0, -487.0, -461.0, -437.0, -412.0, -328.0, -264.0, -188.0, -109.0, -22.0, 44.0, 92.0, 130.0, 180.0, 268.0, 317.0, 328.0, 351.0, 357.0, 363.0, 370.0, 388.0, 404.0, 417.0, 422.0, 423.0, 425.0, 427.0, 428.0, 428.0, 428.0, 428.0, 417.0, 397.0, 386.0, 384.0, 384.0, 390.0, 397.0, 397.0, 397.0, 397.0, 397.0, 397.0, 397.0, 397.0, 397.0, 397.0, 397.0, 397.0, 397.0, 397.0, 397.0, 397.0, 397.0, 397.0, 395.0, 395.0, 395.0, 395.0, 395.0, 395.0, 395.0, 395.0, 395.0]	[0.00033798787626437843, 0.004797161207534373, 0.015490780438994989, 0.03391149442177266, 0.0503077628382016, 0.06576297638821416, 0.08369763227528892, 0.10051886018482037, 0.115535802236991, 0.1338131563970819, 0.15042173390975222, 0.1657697689079214, 0.18349245705758221, 0.20051507139578462, 0.21549788015545346, 0.2337298370548524, 0.25033636653097346, 0.2657741720904596, 0.283712241332978, 0.30053073857561685, 0.3155582619656343, 0.3338666774216108, 0.3503308710642159, 0.36587960983160883, 0.3836063939961605, 0.4004955471609719, 0.41556778515223414, 0.43376629138947465, 0.45042538616689853, 0.4657372398651205, 0.4836705304333009, 0.5004166651051491, 0.5155718470050488, 0.5338526144914795, 0.550327730801655, 0.5658034243388101, 0.5835257711587474, 0.6004234576248564, 0.6155690822051838, 0.6337474498141091, 0.6502635260985699, 0.6657303449464962, 0.6837121048010886, 0.7004264954885002, 0.7155482267553452, 0.7337648236716632, 0.7502901159168687, 0.7657262148277368, 0.783588508144021, 0.8003940347407479, 0.8155754992621951, 0.8337641068792436, 0.8502723324927501, 0.8657592899689917, 0.8833952795830555, 0.9003909286111593, 0.9155505478265695, 0.9337528087489773, 0.9503306662663817, 0.9657462851901073, 0.9833481415116694, 1.0003960144531447, 1.0154146631830372, 1.033728539972799, 1.050221746932948, 1.065750347042922, 1.083634485694347, 1.1004673189017922, 1.115564815554535, 1.133848655037582, 1.1502203474810813, 1.1658219928503968, 1.183563795639202, 1.2005218980484642, 1.2155326961074024, 1.2338165356195532, 1.250205636024475, 1.2657444761425722, 1.283581169496756, 1.3004064933920745, 1.3155510939541273, 1.3337680322001688, 1.3500755540444516, 1.3658202179067302, 1.3835896686650813, 1.400389733928023, 1.415557545144111, 1.4336645742005203, 1.4502659837016836, 1.4659007383452263, 1.4835933892172761]
41	和尚	True	animate	inanimate	left	0.995	[0.0, 0.0, 0.0, 0.0, 0.0, 0.0, 0.0, 0.0, 0.0, 0.0, 0.0, 0.0, 0.0, 0.0, 0.0, 0.0, 0.0, 0.0, 0.0, 0.0, 0.0, 0.0, 0.0, 0.0, 0.0, 0.0, 0.0, 2.0, 7.0, 17.0, 40.0, 71.0, 117.0, 129.0, 151.0, 152.0, 146.0, 122.0, 78.0, 32.0, 16.0, 16.0, 59.0, 125.0, 202.0, 216.0, 221.0, 199.0, 164.0, 85.0, -28.0, -190.0, -361.0, -514.0, -633.0, -704.0, -728.0, -728.0, -731.0, -731.0, -731.0]	[-490.0, -490.0, -490.0, -490.0, -490.0, -490.0, -490.0, -490.0, -490.0, -490.0, -490.0, -490.0, -490.0, -490.0, -490.0, -490.0, -490.0, -490.0, -490.0, -490.0, -490.0, -490.0, -490.0, -490.0, -490.0, -490.0, -487.0, -481.0, -470.0, -453.0, -421.0, -372.0, -285.0, -257.0, -176.0, -137.0, -114.0, -89.0, -67.0, -47.0, -37.0, -21.0, 29.0, 95.0, 183.0, 207.0, 241.0, 257.0, 266.0, 278.0, 292.0, 316.0, 342.0, 360.0, 376.0, 386.0, 397.0, 399.0, 406.0, 407.0, 407.0]	[0.008741945843212306, 0.013520265463739634, 0.017979780124733225, 0.034552858996903524, 0.050832732871640474, 0.06620431985356845, 0.08413829311029986, 0.10103973423247226, 0.11597031907876953, 0.13426200920366682, 0.1506220963492524, 0.1662315923604183, 0.1840372244187165, 0.20092944958014414, 0.21596311693429016, 0.23440362824476324, 0.25084665926988237, 0.26619367027888075, 0.2841156968497671, 0.30097788470447995, 0.31572824576869607, 0.3341783143696375, 0.35067971333046444, 0.36625336940051056, 0.38415252667618915, 0.4009874078910798, 0.4161159658397082, 0.4342250428744592, 0.45078344442299567, 0.4663209191930946, 0.4841367912304122, 0.5009610911365598, 0.5161224170296919, 0.5341970194131136, 0.5507513249758631, 0.5661662612401415, 0.5840985278191511, 0.6009224863664713, 0.6159305537876207, 0.6341324733803049, 0.650710672227433, 0.6661686164443381, 0.6840240831079427, 0.7008364363573492, 0.716007660899777, 0.7341720338445157, 0.750666606152663, 0.7662426515307743, 0.7839609023649246, 0.8009865886997432, 0.8161929705238435, 0.8342853222566191, 0.8507297186006326, 0.8661538708547596, 0.8840834067668766, 0.9008493387373164, 0.9160362645925488, 0.9341552402765956, 0.9507170551514719, 0.96620332999737, 0.9840232980204746]
42	核桃	False	animate	inanimate	right	1.083	[0.0, 0.0, 0.0, 0.0, 0.0, 0.0, 0.0, 0.0, 0.0, 0.0, 0.0, 0.0, 0.0, 0.0, 0.0, 0.0, 0.0, 0.0, 0.0, 0.0, 0.0, 0.0, 0.0, 0.0, 0.0, 0.0, 0.0, 0.0, 0.0, 0.0, 1.0, 8.0, 34.0, 91.0, 172.0, 256.0, 329.0, 378.0, 383.0, 383.0, 373.0, 350.0, 306.0, 249.0, 152.0, 20.0, -139.0, -281.0, -390.0, -442.0, -444.0, -444.0, -444.0, -437.0, -430.0, -404.0, -320.0, -193.0, -22.0, 205.0, 428.0, 695.0, 817.0, 854.0, 881.0, 881.0]	[-490.0, -490.0, -490.0, -490.0, -490.0, -490.0, -490.0, -490.0, -490.0, -490.0, -490.0, -490.0, -490.0, -490.0, -490.0, -490.0, -490.0, -490.0, -490.0, -490.0, -490.0, -490.0, -490.0, -490.0, -490.0, -490.0, -490.0, -490.0, -490.0, -490.0, -479.0, -447.0, -398.0, -311.0, -210.0, -113.0, -37.0, 29.0, 51.0, 75.0, 97.0, 120.0, 138.0, 156.0, 181.0, 217.0, 258.0, 290.0, 308.0, 316.0, 317.0, 319.0, 337.0, 351.0, 358.0, 368.0, 388.0, 407.0, 418.0, 418.0, 418.0, 439.0, 458.0, 463.0, 467.0, 467.0]	[0.014875698485411704, 0.019979308388428763, 0.027806413709186018, 0.04626296766218729, 0.0631821581046097, 0.07805778834153898, 0.09637712643598206, 0.11289115471299738, 0.12830711496644653, 0.14616736030438915, 0.16309679072583094, 0.17794955166755244, 0.19633271903148852, 0.21270236346754245, 0.22840538472519256, 0.24611066488432698, 0.263034975330811, 0.27809560802415945, 0.29632585824583657, 0.31290917709702626, 0.3283340120106004, 0.3462304386193864, 0.36304449854651466, 0.3780771419114899, 0.3964114986592904, 0.4129070949566085, 0.42834182851947844, 0.44624235114315525, 0.4630584590486251, 0.4781242117169313, 0.49644628050737083, 0.5128210449474864, 0.5282892291143071, 0.5462682583020069, 0.5629532943712547, 0.5780535216617864, 0.5961984386667609, 0.6127780028618872, 0.6282588163448963, 0.6461194030125625, 0.6629488229227718, 0.6780739675159566, 0.6962769110978115, 0.7128301926422864, 0.7282840408734046, 0.7461651074991096, 0.7629306981398258, 0.7780872453586198, 0.796203490375774, 0.8128369851910975, 0.8282665987499058, 0.8459568602847867, 0.8629364666703623, 0.8780837978993077, 0.8962717228278052, 0.9129069242917467, 0.9282566659676377, 0.9459773061098531, 0.9629203898948617, 0.9778011401067488, 0.9963259606447536, 1.0128188262751792, 1.0282323971914593, 1.0461667117488105, 1.0630217316211201, 1.0779837190930266]
