trialIndex	left_option	right_option	response	response_time	xTrajectory	yTrajectory	tTrajectory
0	images/0253.jpg	images/0562.jpg	right	1.247	[0.0, 0.0, 0.0, 0.0, 0.0, 0.0, 0.0, 0.0, 0.0, 0.0, 0.0, 0.0, 0.0, 0.0, 0.0, 0.0, 0.0, -1.0, -5.0, -14.0, -28.0, -52.0, -90.0, -138.0, -177.0, -210.0, -277.0, -302.0, -364.0, -409.0, -457.0, -514.0, -566.0, -606.0, -624.0, -632.0, -633.0, -633.0, -633.0, -633.0, -617.0, -579.0, -510.0, -407.0, -266.0, -90.0, 63.0, 207.0, 224.0, 242.0, 243.0, 243.0, 243.0, 243.0, 244.0, 238.0, 232.0, 227.0, 224.0, 224.0, 225.0, 237.0, 281.0, 378.0, 541.0, 634.0, 716.0, 765.0, 790.0, 800.0, 800.0, 800.0, 800.0, 800.0]	[-490.0, -490.0, -490.0, -490.0, -490.0, -490.0, -490.0, -490.0, -490.0, -490.0, -490.0, -490.0, -490.0, -490.0, -490.0, -490.0, -490.0, -490.0, -484.0, -472.0, -453.0, -424.0, -374.0, -309.0, -256.0, -218.0, -139.0, -111.0, -28.0, 35.0, 94.0, 145.0, 182.0, 204.0, 215.0, 219.0, 220.0, 220.0, 220.0, 222.0, 224.0, 229.0, 232.0, 232.0, 231.0, 202.0, 181.0, 179.0, 179.0, 179.0, 179.0, 179.0, 179.0, 179.0, 180.0, 190.0, 197.0, 202.0, 207.0, 210.0, 218.0, 232.0, 258.0, 304.0, 354.0, 369.0, 382.0, 389.0, 395.0, 398.0, 398.0, 398.0, 398.0, 398.0]	[0.014554504217812791, 0.021071232433314435, 0.029127372152288444, 0.04649097807123326, 0.06223598326323554, 0.07928419756353833, 0.09554871145519428, 0.11257166712312028, 0.12891605292679742, 0.1459823578770738, 0.16240934624511283, 0.17936744865437504, 0.19596237283258233, 0.2126088382792659, 0.22911638123332523, 0.24601031304337084, 0.26246392539178487, 0.27938413983793, 0.2958391175197903, 0.31257671884668525, 0.32919963232416194, 0.3457829511753516, 0.36218945958535187, 0.37936191906919703, 0.395541441073874, 0.4125667860644171, 0.4287937533517834, 0.44589999424351845, 0.4621529028227087, 0.4792919116880512, 0.49550215364433825, 0.5126234131894307, 0.5288780284463428, 0.545866850821767, 0.5621132740780013, 0.5792519415990682, 0.5954570635658456, 0.6125373631657567, 0.6288353276904672, 0.645828587395954, 0.6621937945164973, 0.6797577628603904, 0.6954423521237914, 0.7125557610124815, 0.7289469094248489, 0.7459568944468629, 0.7650083916814765, 0.779293515952304, 0.7974531102518085, 0.8125577748724027, 0.8309494755667401, 0.845934673663578, 0.8641256706032436, 0.8796003401075723, 0.8973598922311794, 0.9127386471955106, 0.930155159716378, 0.945778309047455, 0.9630094777967315, 0.9792961783387, 0.9957818759867223, 1.0122354883205844, 1.0287932072096737, 1.045502136577852, 1.0622172099538147, 1.0791527843830409, 1.0956647646526108, 1.1121395396476146, 1.1303619391983375, 1.145698368884041, 1.163610838149907, 1.1790175824135076, 1.1965081641828874, 1.2121217561943922]
1	images/0262.jpg	images/0118.jpg	right	0.947	[0.0, 0.0, 0.0, 0.0, 0.0, 0.0, 0.0, 0.0, 0.0, 0.0, 0.0, 0.0, 0.0, 0.0, 0.0, 0.0, 0.0, 0.0, 0.0, 0.0, -2.0, -2.0, -3.0, -5.0, -9.0, -9.0, -10.0, -10.0, -1.0, 11.0, 26.0, 41.0, 65.0, 92.0, 122.0, 156.0, 206.0, 251.0, 282.0, 300.0, 318.0, 378.0, 409.0, 497.0, 537.0, 578.0, 620.0, 667.0, 696.0, 707.0, 712.0, 716.0, 716.0, 716.0, 716.0, 716.0, 716.0]	[-490.0, -490.0, -490.0, -490.0, -490.0, -490.0, -490.0, -490.0, -490.0, -490.0, -490.0, -490.0, -490.0, -490.0, -490.0, -490.0, -490.0, -490.0, -490.0, -488.0, -484.0, -479.0, -470.0, -456.0, -443.0, -437.0, -431.0, -426.0, -418.0, -408.0, -396.0, -381.0, -357.0, -326.0, -299.0, -272.0, -233.0, -200.0, -177.0, -167.0, -157.0, -113.0, -88.0, -9.0, 27.0, 65.0, 113.0, 169.0, 202.0, 224.0, 239.0, 256.0, 262.0, 262.0, 262.0, 262.0, 262.0]	[0.005482352906255983, 0.013288636910147034, 0.0259456031199079, 0.04308904931531288, 0.059093808857141994, 0.07931198203004897, 0.09248060631216504, 0.10972440437762998, 0.1257028812833596, 0.1427200342877768, 0.1592391825543018, 0.1761839729733765, 0.19265635863121133, 0.2097165195737034, 0.2259233482182026, 0.2428609706548741, 0.25927396437327843, 0.27625493609230034, 0.2926109272229951, 0.3094946190394694, 0.3259680287010269, 0.34277389662747737, 0.35946780734229833, 0.3760152862378163, 0.39247128792339936, 0.40983352850889787, 0.4256826402415754, 0.4427506518550217, 0.45909606164786965, 0.47615758793835994, 0.49230912064376753, 0.5094512014911743, 0.525800707298913, 0.5427560790412826, 0.5591438141273102, 0.5761360498290742, 0.592450739670312, 0.6095679032296175, 0.6257450358971255, 0.6427727702248376, 0.6591110120352823, 0.6760769651009468, 0.6935928055027034, 0.709420071929344, 0.7276404235017253, 0.7427491841226583, 0.7613374925713288, 0.7760844402946532, 0.7942716825637035, 0.8094463204324711, 0.8273601550317835, 0.842731400669436, 0.8605069954355713, 0.8762728219298879, 0.8929575166694121, 0.9092780091741588, 0.9258538186986698]
2	images/0398.jpg	images/0581.jpg	left	0.804	[0.0, 0.0, 0.0, 0.0, 0.0, 0.0, 0.0, 0.0, 0.0, 0.0, 0.0, 0.0, 0.0, 0.0, 0.0, 0.0, 0.0, 0.0, 0.0, 0.0, 0.0, -11.0, -30.0, -51.0, -77.0, -94.0, -99.0, -99.0, -94.0, -88.0, -102.0, -135.0, -165.0, -218.0, -287.0, -362.0, -438.0, -520.0, -608.0, -698.0, -762.0, -799.0, -808.0, -818.0, -823.0, -824.0, -824.0, -824.0]	[-490.0, -490.0, -490.0, -490.0, -490.0, -490.0, -490.0, -490.0, -490.0, -490.0, -490.0, -490.0, -490.0, -490.0, -490.0, -490.0, -490.0, -490.0, -490.0, -490.0, -490.0, -480.0, -472.0, -464.0, -455.0, -446.0, -435.0, -404.0, -308.0, -193.0, -111.0, -64.0, -37.0, -5.0, 33.0, 64.0, 97.0, 127.0, 156.0, 187.0, 212.0, 231.0, 239.0, 246.0, 252.0, 255.0, 255.0, 255.0]	[0.004939633567119017, 0.009554454722092487, 0.026195117505267262, 0.04309109732275829, 0.05943957912677433, 0.07654820935567841, 0.09270895803638268, 0.10985411089495756, 0.1261592434166232, 0.14311461515899282, 0.162392074795207, 0.17654271388892084, 0.19455587636912242, 0.2098530527582625, 0.22787952722865157, 0.24317329029145185, 0.2608058665500721, 0.2764730478374986, 0.2938260724477004, 0.30975096007750835, 0.3270230887865182, 0.3430374056479195, 0.36034844629466534, 0.3766051095444709, 0.39289897808339447, 0.40952189156087115, 0.42606937045638915, 0.4427100332395639, 0.4594237412675284, 0.47606338006153237, 0.4929235199233517, 0.5095891000091797, 0.526300418714527, 0.5428752042498672, 0.5596530828624964, 0.5762596123531694, 0.5926637314260006, 0.6093900687847054, 0.6270472210162552, 0.6427509249188006, 0.6603725785389543, 0.6760554611391854, 0.6930500861635664, 0.7095757197530475, 0.7265491821453907, 0.7427246081497287, 0.7599817182053812, 0.7764998424681835]
3	images/0282.jpg	images/0045.jpg	right	0.907	[0.0, 0.0, 0.0, 0.0, 0.0, 0.0, 0.0, 0.0, 0.0, 0.0, 0.0, 0.0, 0.0, 0.0, 0.0, 0.0, 0.0, 0.0, 0.0, 0.0, 0.0, 0.0, 0.0, 0.0, 0.0, 20.0, 58.0, 91.0, 119.0, 143.0, 178.0, 264.0, 376.0, 481.0, 563.0, 646.0, 682.0, 701.0, 711.0, 715.0, 718.0, 722.0, 723.0, 724.0, 724.0, 724.0, 724.0, 724.0, 724.0, 724.0, 724.0, 724.0, 724.0, 724.0]	[-490.0, -490.0, -490.0, -490.0, -490.0, -490.0, -490.0, -490.0, -490.0, -490.0, -490.0, -490.0, -490.0, -490.0, -490.0, -490.0, -490.0, -490.0, -490.0, -490.0, -490.0, -490.0, -490.0, -490.0, -476.0, -414.0, -327.0, -252.0, -202.0, -155.0, -104.0, -14.0, 82.0, 172.0, 230.0, 281.0, 298.0, 309.0, 317.0, 323.0, 328.0, 337.0, 343.0, 345.0, 345.0, 345.0, 345.0, 345.0, 345.0, 345.0, 345.0, 345.0, 345.0, 345.0]	[0.004585671340464614, 0.009399830916663632, 0.027772075627581216, 0.04246099674492143, 0.06016764226660598, 0.07590752745454665, 0.0931629308470292, 0.10905709852522705, 0.1266719254781492, 0.14249475457472727, 0.15954774753481615, 0.17572692820976954, 0.19269253994571045, 0.20889595524931792, 0.22539359953952953, 0.24221789944567718, 0.25888416220550425, 0.2756289315293543, 0.2922771036392078, 0.3086873667052714, 0.32552019992726855, 0.3421970439958386, 0.35870458694989793, 0.375346615066519, 0.39297373000590596, 0.40866753525915556, 0.425941711946507, 0.44228951109107584, 0.4594172559591243, 0.47578758306917734, 0.4924326831824146, 0.5088470422488172, 0.5256993314396823, 0.5421921970701078, 0.5590472169424174, 0.5754322213615524, 0.5923718917911174, 0.6086019310750999, 0.625743670592783, 0.6420341257908149, 0.6589669695677003, 0.675298726055189, 0.6924319322570227, 0.708612819595146, 0.7256910711876117, 0.7420016650285106, 0.7590253033558838, 0.7752925479289843, 0.7923530502157519, 0.8086445294175064, 0.8257773942896165, 0.842057609494077, 0.859032095890143, 0.8753604390512919]
4	images/0435.jpg	images/0504.jpg	left	1.103	[0.0, 0.0, 0.0, 0.0, 0.0, 0.0, 0.0, 0.0, 0.0, 0.0, 0.0, 0.0, 0.0, 0.0, 0.0, 0.0, 0.0, 0.0, 0.0, 0.0, 0.0, 0.0, 0.0, -24.0, -51.0, -75.0, -100.0, -124.0, -160.0, -194.0, -229.0, -272.0, -285.0, -312.0, -330.0, -349.0, -361.0, -365.0, -365.0, -365.0, -370.0, -375.0, -379.0, -383.0, -384.0, -385.0, -393.0, -408.0, -429.0, -457.0, -499.0, -550.0, -592.0, -618.0, -623.0, -623.0, -623.0, -623.0, -623.0, -623.0, -623.0, -623.0, -623.0, -623.0, -623.0, -623.0, -623.0]	[-490.0, -490.0, -490.0, -490.0, -490.0, -490.0, -490.0, -490.0, -490.0, -490.0, -490.0, -490.0, -490.0, -490.0, -490.0, -490.0, -490.0, -490.0, -490.0, -490.0, -490.0, -490.0, -490.0, -474.0, -444.0, -394.0, -340.0, -286.0, -222.0, -166.0, -114.0, -56.0, -39.0, 2.0, 27.0, 54.0, 78.0, 101.0, 127.0, 152.0, 173.0, 193.0, 207.0, 219.0, 226.0, 235.0, 245.0, 255.0, 260.0, 263.0, 270.0, 270.0, 272.0, 276.0, 277.0, 277.0, 277.0, 277.0, 277.0, 277.0, 277.0, 277.0, 277.0, 277.0, 277.0, 277.0, 277.0]	[0.006557210304890759, 0.010945045069092885, 0.014422886248212308, 0.02990199308260344, 0.046399637387366965, 0.06314304137777071, 0.07971031758643221, 0.09657830810465384, 0.11301007513247896, 0.1298903536371654, 0.14658221635909285, 0.16301637272408698, 0.1794440437661251, 0.19659465794393327, 0.21275813730608206, 0.22980157294659875, 0.24601522824377753, 0.2631020131666446, 0.27934331641881727, 0.29648130128043704, 0.3126949565776158, 0.3298059761436889, 0.34613636729773134, 0.36309242169954814, 0.3793265569838695, 0.39652188576292247, 0.41278571700968314, 0.42975952073174994, 0.4464844927424565, 0.46314358750532847, 0.48200598631228786, 0.4964870356780011, 0.5147326458827592, 0.5297844039014308, 0.547603006605641, 0.5631667640118394, 0.5808488335605944, 0.596582233425579, 0.6141055831540143, 0.629666609907872, 0.6474285513540963, 0.6629837754298933, 0.6799524591624504, 0.6964094848372042, 0.7126664894167334, 0.729354938812321, 0.7476903195783962, 0.762905234732898, 0.7813419913727557, 0.7960343258164357, 0.8151144950243179, 0.829480856526061, 0.8476315761799924, 0.8629564005386783, 0.8803415104339365, 0.8963029206934152, 0.913344649670762, 0.9295900489232736, 0.9465597566595534, 0.9628112999052973, 0.9798042182665085, 0.9961625987343723, 1.0130387812387198, 1.0293841910461197, 1.0465528958593495, 1.06291878563934, 1.079755032202229]
5	images/0115.jpg	images/0520.jpg	left	0.807	[0.0, 0.0, 0.0, 0.0, 0.0, 0.0, 0.0, 0.0, 0.0, 0.0, 0.0, 0.0, 0.0, 0.0, 0.0, 0.0, 0.0, -7.0, -19.0, -31.0, -44.0, -66.0, -84.0, -99.0, -119.0, -145.0, -188.0, -216.0, -247.0, -274.0, -314.0, -376.0, -460.0, -533.0, -586.0, -622.0, -653.0, -673.0, -686.0, -689.0, -689.0, -689.0, -690.0, -690.0, -690.0, -690.0, -690.0, -690.0, -690.0]	[-490.0, -490.0, -490.0, -490.0, -490.0, -490.0, -490.0, -490.0, -490.0, -490.0, -490.0, -490.0, -490.0, -490.0, -490.0, -490.0, -480.0, -460.0, -435.0, -408.0, -376.0, -337.0, -303.0, -251.0, -178.0, -96.0, 0.0, 37.0, 61.0, 80.0, 102.0, 129.0, 155.0, 175.0, 192.0, 212.0, 233.0, 250.0, 262.0, 266.0, 267.0, 270.0, 272.0, 273.0, 273.0, 273.0, 273.0, 273.0, 273.0]	[0.006312815909041092, 0.010744341285317205, 0.01477684847486671, 0.029905065064667724, 0.045961365874973126, 0.06221700512105599, 0.07890852652781177, 0.09833480730594601, 0.11226119067578111, 0.13213393493788317, 0.14559269219171256, 0.16457319217443, 0.17911158547212835, 0.19707252402440645, 0.2124683456349885, 0.23062316127470694, 0.24578516982728615, 0.2635283379640896, 0.2790221221221145, 0.29627172285108827, 0.3121440452086972, 0.3292950007307809, 0.3456690824968973, 0.36246914775983896, 0.37898897868581116, 0.39569517740164883, 0.41215595773246605, 0.42911508414545096, 0.44568167768011335, 0.4624899349291809, 0.4789647099241847, 0.4959542149590561, 0.5120634223712841, 0.5291106126824161, 0.545646827595192, 0.5624503061844734, 0.5790138277225196, 0.5958364209654974, 0.6122777453274466, 0.6291040932264877, 0.6453727031184826, 0.6625028373237001, 0.6787137619539862, 0.6958148828562116, 0.7120544794597663, 0.7291794936609222, 0.745378471649019, 0.7625536617997568, 0.7787144104804611]
6	images/0496.jpg	images/0013.jpg	right	1.019	[0.0, 0.0, 0.0, 0.0, 0.0, 0.0, 0.0, 0.0, 0.0, 0.0, 0.0, 0.0, -6.0, -22.0, -45.0, -73.0, -101.0, -133.0, -173.0, -220.0, -273.0, -338.0, -404.0, -476.0, -535.0, -546.0, -554.0, -566.0, -586.0, -601.0, -603.0, -597.0, -567.0, -518.0, -451.0, -363.0, -161.0, 11.0, 180.0, 350.0, 515.0, 639.0, 739.0, 796.0, 836.0, 851.0, 854.0, 854.0, 854.0, 854.0, 854.0, 855.0, 855.0, 853.0, 842.0, 823.0, 793.0, 773.0, 764.0, 763.0, 763.0, 763.0]	[-490.0, -490.0, -490.0, -490.0, -490.0, -490.0, -490.0, -490.0, -490.0, -490.0, -490.0, -490.0, -488.0, -483.0, -477.0, -468.0, -455.0, -424.0, -376.0, -328.0, -289.0, -248.0, -212.0, -181.0, -149.0, -125.0, -73.0, -12.0, 46.0, 93.0, 124.0, 166.0, 212.0, 266.0, 322.0, 371.0, 421.0, 436.0, 456.0, 475.0, 497.0, 513.0, 529.0, 537.0, 540.0, 540.0, 540.0, 540.0, 540.0, 540.0, 540.0, 540.0, 538.0, 525.0, 504.0, 479.0, 442.0, 413.0, 400.0, 399.0, 399.0, 399.0]	[0.005518534206203185, 0.009636374627007172, 0.014681957924040034, 0.028634623929974623, 0.044234903951291926, 0.0617780509928707, 0.07760668275295757, 0.09452450787648559, 0.11092794427531771, 0.12777408948750235, 0.1440406513866037, 0.1611735162587138, 0.1775912886369042, 0.19443879918253515, 0.21068965976883192, 0.22784266326925717, 0.2442290330218384, 0.2612233167310478, 0.2773106788372388, 0.29445719702926, 0.3108882813976379, 0.3277839198708534, 0.34424913753173314, 0.3611287333769724, 0.3775133964663837, 0.394458528215182, 0.4110087377775926, 0.42782962435740046, 0.44403372233500704, 0.46105292333231773, 0.4773812664934667, 0.4943898861674825, 0.5106492800841806, 0.5277312863327097, 0.5439432349667186, 0.5610846331546782, 0.5773057977785356, 0.5943949720240198, 0.610645491280593, 0.6277602655027295, 0.6441159153037006, 0.6611446736205835, 0.6774040675227297, 0.6943522712826962, 0.7110011260519968, 0.7277923166693654, 0.7465485609282041, 0.761111530198832, 0.779614505416248, 0.794392514435458, 0.8121530905482359, 0.8277482505800435, 0.8456187358970055, 0.86118727196299, 0.8788918694772292, 0.8944068162818439, 0.9120161819155328, 0.9277622110967059, 0.9454592992988182, 0.9610954192758072, 0.9786655316274846, 0.9943835715093883]
7	images/0317.jpg	images/0072.jpg	left	0.951	[0.0, 0.0, 0.0, 0.0, 0.0, 0.0, 0.0, 0.0, 0.0, 0.0, 0.0, 0.0, -10.0, -27.0, -44.0, -60.0, -82.0, -112.0, -157.0, -194.0, -233.0, -275.0, -295.0, -314.0, -336.0, -352.0, -374.0, -408.0, -441.0, -486.0, -509.0, -523.0, -531.0, -539.0, -547.0, -560.0, -574.0, -590.0, -604.0, -614.0, -617.0, -621.0, -626.0, -630.0, -631.0, -631.0, -631.0, -631.0, -631.0, -631.0, -631.0, -631.0, -631.0, -631.0, -631.0, -631.0, -631.0]	[-490.0, -490.0, -490.0, -490.0, -490.0, -490.0, -490.0, -490.0, -490.0, -490.0, -490.0, -490.0, -488.0, -485.0, -480.0, -469.0, -450.0, -428.0, -395.0, -367.0, -337.0, -306.0, -278.0, -250.0, -213.0, -171.0, -122.0, -56.0, 7.0, 99.0, 140.0, 162.0, 172.0, 183.0, 195.0, 213.0, 229.0, 243.0, 252.0, 261.0, 264.0, 267.0, 277.0, 284.0, 285.0, 286.0, 286.0, 286.0, 286.0, 286.0, 286.0, 286.0, 286.0, 286.0, 286.0, 286.0, 286.0]	[0.0048269936960423365, 0.013130599778378382, 0.026141528229345568, 0.043589102060650475, 0.05933444858237635, 0.07635399090941064, 0.09253931557759643, 0.1100694919587113, 0.12609507281740662, 0.14297603398154024, 0.15951736889837775, 0.1762996848410694, 0.19276387851277832, 0.20964313301374204, 0.22618685723864473, 0.2428763306379551, 0.2595296227373183, 0.27625015743251424, 0.2929235881892964, 0.3096028215950355, 0.3261506418202771, 0.3430814375897171, 0.3595452899317024, 0.37632316854433157, 0.3927900928683812, 0.4096143927745288, 0.42600281053455546, 0.4428967423446011, 0.4592844774306286, 0.4762934384489199, 0.49263202160364017, 0.5097713717841543, 0.5259375818131957, 0.5430479187052697, 0.5592373393592425, 0.5763077402953058, 0.5925312942563323, 0.609662111120997, 0.6260341448942199, 0.6429686953342753, 0.6593144464713987, 0.6763206768227974, 0.6926534572994569, 0.7097177142568398, 0.7259754014958162, 0.7429898238333408, 0.7594533348310506, 0.776324738675612, 0.7955728436791105, 0.8098016480216756, 0.8282619566307403, 0.8429815977142425, 0.8616371487587458, 0.8763366511993809, 0.8945628054207191, 0.9096773687051609, 0.928075896052178]
8	images/0063.jpg	images/0015.jpg	right	0.827	[0.0, 0.0, 0.0, 0.0, 0.0, 0.0, 0.0, 0.0, 0.0, 0.0, 0.0, 0.0, 0.0, 0.0, 0.0, 0.0, 0.0, 0.0, 0.0, 0.0, 0.0, 4.0, 32.0, 80.0, 139.0, 252.0, 293.0, 392.0, 420.0, 489.0, 524.0, 542.0, 566.0, 597.0, 629.0, 659.0, 682.0, 694.0, 698.0, 698.0, 698.0, 698.0, 698.0, 698.0, 698.0, 698.0, 698.0, 698.0, 698.0, 698.0]	[-490.0, -490.0, -490.0, -490.0, -490.0, -490.0, -490.0, -490.0, -490.0, -490.0, -490.0, -490.0, -490.0, -490.0, -490.0, -490.0, -490.0, -490.0, -490.0, -490.0, -488.0, -462.0, -395.0, -312.0, -216.0, -75.0, -28.0, 100.0, 132.0, 213.0, 249.0, 270.0, 291.0, 320.0, 348.0, 373.0, 394.0, 404.0, 407.0, 407.0, 407.0, 407.0, 407.0, 407.0, 407.0, 407.0, 407.0, 407.0, 407.0, 407.0]	[0.006439791759476066, 0.010019691486377269, 0.013714279077248648, 0.02995660633314401, 0.04609824038925581, 0.06322359592013527, 0.07945568319701124, 0.09669060660235118, 0.11278274738288019, 0.12987840696587227, 0.14617364082369022, 0.1632723724032985, 0.17951538233319297, 0.19660762857529335, 0.21307728356623556, 0.2298527728562476, 0.24626679057837464, 0.26320577834849246, 0.2795610868051881, 0.2966420690645464, 0.31282739373273216, 0.32984215739998035, 0.34629952440445777, 0.363185605572653, 0.3819295618450269, 0.39652052041492425, 0.414992093006731, 0.4297858033387456, 0.4467855483671883, 0.46317464878666215, 0.48094478221901227, 0.49660513683920726, 0.5138752175407717, 0.5296956573147327, 0.5464004906825721, 0.5629513829189818, 0.5793623286444927, 0.5960965166450478, 0.6148162382887676, 0.6294246048346395, 0.6476442737330217, 0.6630595513124717, 0.6810348258441081, 0.696146999791381, 0.7134160564892227, 0.7294798666407587, 0.7468711205292493, 0.7629168400162598, 0.7800097689323593, 0.7960984963865485]
9	images/0096.jpg	images/0472.jpg	right	1.167	[0.0, 0.0, 0.0, 0.0, 0.0, 0.0, 0.0, 0.0, 2.0, 4.0, 4.0, 5.0, 5.0, 6.0, 6.0, 6.0, 6.0, 6.0, 7.0, 10.0, 17.0, 26.0, 39.0, 54.0, 65.0, 71.0, 75.0, 75.0, 75.0, 57.0, 31.0, -6.0, -31.0, -52.0, -77.0, -96.0, -100.0, -93.0, -63.0, -7.0, -7.0, -7.0, -7.0, -7.0, -7.0, -7.0, -7.0, -7.0, 1.0, 24.0, 29.0, 43.0, 43.0, 41.0, 41.0, 58.0, 94.0, 155.0, 225.0, 318.0, 421.0, 526.0, 610.0, 673.0, 724.0, 756.0, 771.0, 771.0, 771.0, 771.0]	[-490.0, -490.0, -490.0, -490.0, -490.0, -490.0, -490.0, -490.0, -490.0, -492.0, -496.0, -499.0, -501.0, -502.0, -502.0, -502.0, -502.0, -502.0, -502.0, -502.0, -500.0, -491.0, -477.0, -446.0, -412.0, -385.0, -353.0, -299.0, -236.0, -171.0, -112.0, -56.0, -23.0, 4.0, 29.0, 46.0, 60.0, 70.0, 72.0, 72.0, 72.0, 72.0, 72.0, 72.0, 72.0, 72.0, 72.0, 72.0, 75.0, 77.0, 77.0, 79.0, 83.0, 90.0, 99.0, 119.0, 160.0, 193.0, 223.0, 256.0, 286.0, 316.0, 338.0, 359.0, 371.0, 381.0, 386.0, 386.0, 386.0, 386.0]	[0.0069265325291780755, 0.013906449516071007, 0.03033036590204574, 0.047008575304062106, 0.06321403861511499, 0.08042131405090913, 0.09678959316806868, 0.11379036218568217, 0.12994189489108976, 0.14691228528681677, 0.16347102816507686, 0.1803584746667184, 0.19651854068797547, 0.21348108042730018, 0.23009580190409906, 0.2469753977493383, 0.2634870366891846, 0.2804116884653922, 0.29679430356191006, 0.3136148487974424, 0.3302032876526937, 0.34700062224874273, 0.3632552374911029, 0.38038264102942776, 0.39651198709907476, 0.4136458759603556, 0.429967392468825, 0.4469657721638214, 0.4634091445186641, 0.4803041003324324, 0.49678706729901023, 0.5136475484905532, 0.5301926380634541, 0.5469954339932883, 0.563416961042094, 0.5803706261212938, 0.5964897321973694, 0.6135471624875208, 0.6301318466721568, 0.6470046158501646, 0.6631909645075211, 0.6801289282739162, 0.6965146153670503, 0.7134768137620995, 0.7299014128075214, 0.7470025337097468, 0.7634383967379108, 0.7804511124268174, 0.7965094612300163, 0.8136051208130084, 0.8300409838411724, 0.8469523236417444, 0.8634342666191515, 0.8803210304467939, 0.8968022907502018, 0.9137023665680317, 0.929926944518229, 0.9469881294644438, 0.9634222858294379, 0.9803609322552802, 0.9965206569613656, 1.0135483912745258, 1.0302757526224013, 1.0469457700528437, 1.0632007266249275, 1.0802625942451414, 1.0967575078684604, 1.1136353970359778, 1.1300620440888451, 1.1470017145184102]
10	images/0429.jpg	images/0229.jpg	right	0.701	[0.0, 0.0, 0.0, 0.0, 0.0, 0.0, 0.0, 0.0, 0.0, 0.0, 0.0, 0.0, 0.0, 0.0, 0.0, 0.0, 2.0, 40.0, 93.0, 168.0, 230.0, 331.0, 401.0, 456.0, 510.0, 557.0, 591.0, 628.0, 660.0, 682.0, 693.0, 701.0, 704.0, 705.0, 705.0, 705.0, 706.0, 706.0, 706.0, 706.0, 706.0, 706.0]	[-490.0, -490.0, -490.0, -490.0, -490.0, -490.0, -490.0, -490.0, -490.0, -490.0, -490.0, -486.0, -485.0, -484.0, -483.0, -481.0, -472.0, -447.0, -415.0, -370.0, -319.0, -167.0, -19.0, 113.0, 211.0, 272.0, 306.0, 339.0, 364.0, 383.0, 397.0, 409.0, 415.0, 416.0, 416.0, 416.0, 417.0, 417.0, 417.0, 417.0, 417.0, 417.0]	[0.005280625162413344, 0.009974294225685298, 0.027122860396048054, 0.04386831239389721, 0.06034274604462553, 0.07736604304227512, 0.09379781008465216, 0.1105828566942364, 0.12702145038929302, 0.14390002221625764, 0.16033554391469806, 0.17734006760292687, 0.1937004960636841, 0.21060193720040843, 0.22717672273574863, 0.24392149205959868, 0.260332779129385, 0.27715742035070434, 0.29366120863414835, 0.3105619671114255, 0.32677016108937096, 0.34384943668555934, 0.36031875034677796, 0.37734648465993814, 0.39346559073601384, 0.41043086114223115, 0.42706606260617264, 0.4438661278691143, 0.4603719641454518, 0.477209576027235, 0.4937369162798859, 0.5105141122476198, 0.5270277991803596, 0.5439869255787926, 0.5602261808526237, 0.5772655204928014, 0.5936259489535587, 0.6105707393726334, 0.6267881493258756, 0.6438558196095983, 0.6603544879035326, 0.6773194169654744]
11	images/0201.jpg	images/0378.jpg	left	0.8	[0.0, 0.0, 0.0, 0.0, 0.0, 0.0, 0.0, 0.0, 0.0, 0.0, 0.0, 0.0, 0.0, 0.0, 2.0, 17.0, 43.0, 85.0, 148.0, 213.0, 279.0, 360.0, 443.0, 511.0, 571.0, 594.0, 612.0, 624.0, 628.0, 628.0, 618.0, 587.0, 509.0, 392.0, 230.0, 59.0, -113.0, -332.0, -446.0, -554.0, -644.0, -723.0, -788.0, -843.0, -863.0, -864.0, -864.0, -864.0]	[-490.0, -489.0, -489.0, -489.0, -489.0, -489.0, -489.0, -489.0, -489.0, -489.0, -489.0, -489.0, -486.0, -482.0, -474.0, -456.0, -425.0, -383.0, -296.0, -201.0, -106.0, 13.0, 135.0, 235.0, 317.0, 342.0, 364.0, 383.0, 395.0, 399.0, 402.0, 402.0, 392.0, 372.0, 350.0, 343.0, 343.0, 343.0, 343.0, 358.0, 373.0, 384.0, 392.0, 400.0, 405.0, 405.0, 405.0, 405.0]	[0.0045901086559752, 0.008511341307894327, 0.025788589991861954, 0.04270436712249648, 0.05892826239869464, 0.07601095133577473, 0.09234919314621948, 0.10940594076237176, 0.12567420933919493, 0.14270262632635422, 0.15900366284768097, 0.17600238387240097, 0.19225563379586674, 0.2093758693372365, 0.22562638859380968, 0.24267392022011336, 0.25922959111630917, 0.2760996296274243, 0.2922453596693231, 0.30934340857493225, 0.32585675417794846, 0.3426783234172035, 0.359125109098386, 0.37605488087865524, 0.39252248787670396, 0.4093720464152284, 0.4258256587490905, 0.44269672126392834, 0.45911381098267157, 0.47615895328635816, 0.49221593677066267, 0.5093249083292903, 0.5258157259668224, 0.542678937810706, 0.5592482620268129, 0.5759821086976444, 0.5924787289841333, 0.6093299941858277, 0.625605430745054, 0.6426382850622758, 0.6591328573558712, 0.6760704797925428, 0.6923012017359724, 0.7093268880562391, 0.7258535456494428, 0.742741333480808, 0.7589904874039348, 0.7761107229453046]
12	images/0296.jpg	images/0334.jpg	left	1.235	[0.0, 0.0, 0.0, 0.0, 0.0, 0.0, 0.0, 0.0, 0.0, 0.0, 0.0, 0.0, 0.0, -1.0, -1.0, -1.0, -2.0, -7.0, -15.0, -30.0, -56.0, -92.0, -136.0, -180.0, -231.0, -251.0, -270.0, -288.0, -314.0, -342.0, -362.0, -380.0, -390.0, -395.0, -396.0, -396.0, -363.0, -206.0, 30.0, 289.0, 529.0, 723.0, 869.0, 959.0, 959.0, 959.0, 959.0, 959.0, 959.0, 959.0, 959.0, 959.0, 959.0, 959.0, 959.0, 952.0, 917.0, 860.0, 789.0, 699.0, 498.0, 309.0, 82.0, -120.0, -298.0, -482.0, -638.0, -736.0, -793.0, -814.0, -816.0, -816.0, -816.0, -816.0, -816.0]	[-490.0, -490.0, -490.0, -490.0, -490.0, -490.0, -490.0, -490.0, -490.0, -490.0, -490.0, -490.0, -490.0, -488.0, -480.0, -469.0, -451.0, -422.0, -375.0, -306.0, -244.0, -178.0, -93.0, -25.0, 42.0, 66.0, 87.0, 107.0, 133.0, 158.0, 176.0, 190.0, 196.0, 200.0, 200.0, 200.0, 206.0, 225.0, 248.0, 248.0, 248.0, 250.0, 250.0, 250.0, 255.0, 256.0, 256.0, 256.0, 256.0, 256.0, 256.0, 256.0, 256.0, 256.0, 256.0, 255.0, 259.0, 267.0, 276.0, 291.0, 320.0, 347.0, 381.0, 410.0, 434.0, 437.0, 437.0, 437.0, 437.0, 437.0, 437.0, 437.0, 437.0, 437.0, 437.0]	[0.006587247611605562, 0.011069631582358852, 0.014376464969245717, 0.029919059728854336, 0.04643479466903955, 0.06344819301739335, 0.07977175750420429, 0.09659366808773484, 0.11299198449705727, 0.13002859347034246, 0.14652930975717027, 0.1633297163498355, 0.17966727550083306, 0.19666155919549055, 0.2129837583634071, 0.22991694347001612, 0.24641527043422684, 0.2634723593801027, 0.27955938017112203, 0.29653181855974253, 0.31306564413534943, 0.32987219472124707, 0.34642069762048777, 0.3632467041898053, 0.37970850852434523, 0.39656660037871916, 0.41303523136593867, 0.4298984432243742, 0.4463899435213534, 0.46329821132530924, 0.479494117302238, 0.496510587647208, 0.5130553358758334, 0.5299106970778666, 0.5463506561063696, 0.5632404919306282, 0.5796947869384894, 0.5965170388371916, 0.6128412859980017, 0.629909297611448, 0.6464431231870549, 0.6633247670251876, 0.6795025823666947, 0.6965627433237387, 0.7131535715016071, 0.7299638767435681, 0.7464273877412779, 0.7633660341816721, 0.7795482868386898, 0.796436074670055, 0.8131019960856065, 0.8299624772771494, 0.8464259882748593, 0.8634032053378178, 0.8795144607574912, 0.8964674431626918, 0.9130528100213269, 0.9298368326271884, 0.9463590528903296, 0.9674769796692999, 0.9796659784333315, 0.9965360169444466, 1.013146983765182, 1.0299477317021228, 1.0463484374340624, 1.0633847050921759, 1.0794526112294989, 1.0964567935734522, 1.1129240592417773, 1.1299487215728732, 1.146144627549802, 1.1631590498873265, 1.1797232540993718, 1.1966141139273532, 1.2130783075845102]
13	images/0541.jpg	images/0055.jpg	left	1.049	[0.0, 0.0, 0.0, 0.0, 0.0, -1.0, -2.0, -3.0, -4.0, -5.0, -8.0, -14.0, -17.0, -19.0, -22.0, -22.0, -22.0, -23.0, -26.0, -34.0, -44.0, -58.0, -80.0, -115.0, -169.0, -250.0, -353.0, -452.0, -554.0, -665.0, -754.0, -791.0, -809.0, -823.0, -834.0, -839.0, -839.0, -839.0, -838.0, -837.0, -836.0, -832.0, -830.0, -826.0, -821.0, -816.0, -812.0, -810.0, -809.0, -809.0, -809.0, -809.0, -809.0, -809.0, -809.0, -809.0, -809.0, -809.0, -809.0, -809.0, -809.0, -809.0, -809.0]	[-490.0, -490.0, -490.0, -490.0, -490.0, -490.0, -490.0, -490.0, -490.0, -490.0, -490.0, -489.0, -488.0, -487.0, -487.0, -486.0, -486.0, -483.0, -478.0, -467.0, -455.0, -440.0, -419.0, -374.0, -296.0, -211.0, -132.0, -76.0, -32.0, 1.0, 64.0, 158.0, 220.0, 272.0, 317.0, 346.0, 357.0, 362.0, 366.0, 370.0, 371.0, 377.0, 379.0, 380.0, 382.0, 383.0, 385.0, 385.0, 386.0, 386.0, 386.0, 386.0, 386.0, 386.0, 386.0, 386.0, 386.0, 386.0, 386.0, 386.0, 386.0, 386.0, 386.0]	[0.003950109414290637, 0.008599063861765899, 0.02468506063451059, 0.04114106230554171, 0.058235015225363895, 0.07448485180793796, 0.09149039949988946, 0.10780372400768101, 0.12479630103916861, 0.141334563944838, 0.15827798904501833, 0.17438651379779913, 0.19141493078495841, 0.2079760630003875, 0.22483961618854664, 0.24132599649601616, 0.2582018376706401, 0.2746749059879221, 0.2915954617637908, 0.30793370358878747, 0.32492081928648986, 0.3412556477705948, 0.3582154568430269, 0.3744646107661538, 0.39156914499471895, 0.4078247842408018, 0.42480848662671633, 0.4411566271010088, 0.45822566270362586, 0.4744782299530925, 0.49143155370256864, 0.507972205945407, 0.5248709164152388, 0.541067163736443, 0.5581133300293004, 0.5744232412253041, 0.5914110395970056, 0.607739041413879, 0.6248265089961933, 0.6412999186577508, 0.658169957168866, 0.674700369418133, 0.6915820132562658, 0.7079298123862827, 0.7248776748019736, 0.7413934097421588, 0.7582880242262036, 0.7746699566632742, 0.7915044965484412, 0.8077983650728129, 0.8248564780369634, 0.8413687996362569, 0.8582142621889943, 0.8746972291555721, 0.8915297210478457, 0.9080038133688504, 0.9249062785092974, 0.9413179068942554, 0.9582009160658345, 0.9746787630429026, 0.9915583588735899, 1.0079648672835901, 1.0249338923458708]
14	images/0525.jpg	images/0238.jpg	left	1.885	[0.0, 0.0, 0.0, 0.0, 0.0, 0.0, 0.0, 0.0, 0.0, 0.0, 0.0, 0.0, 0.0, 0.0, 0.0, 0.0, 0.0, 0.0, 0.0, -2.0, -7.0, -15.0, -25.0, -46.0, -90.0, -123.0, -150.0, -174.0, -199.0, -233.0, -283.0, -346.0, -417.0, -468.0, -490.0, -498.0, -503.0, -503.0, -503.0, -503.0, -503.0, -503.0, -449.0, -320.0, -194.0, -86.0, 11.0, 119.0, 322.0, 430.0, 509.0, 563.0, 602.0, 635.0, 664.0, 693.0, 722.0, 745.0, 751.0, 751.0, 751.0, 751.0, 751.0, 750.0, 714.0, 624.0, 527.0, 435.0, 377.0, 357.0, 356.0, 356.0, 356.0, 356.0, 356.0, 356.0, 356.0, 349.0, 326.0, 268.0, 157.0, -21.0, -266.0, -525.0, -826.0, -948.0, -960.0, -960.0, -960.0, -960.0, -960.0, -960.0, -960.0, -960.0, -960.0, -960.0, -960.0, -960.0, -960.0, -960.0, -960.0, -960.0, -960.0, -949.0, -925.0, -896.0, -866.0, -835.0, -806.0, -799.0, -798.0, -798.0, -798.0]	[-490.0, -490.0, -490.0, -490.0, -490.0, -490.0, -490.0, -490.0, -490.0, -490.0, -490.0, -490.0, -490.0, -490.0, -490.0, -490.0, -490.0, -490.0, -490.0, -484.0, -459.0, -394.0, -331.0, -263.0, -176.0, -130.0, -80.0, -31.0, 29.0, 85.0, 144.0, 189.0, 224.0, 243.0, 254.0, 259.0, 265.0, 265.0, 266.0, 266.0, 266.0, 270.0, 308.0, 360.0, 392.0, 403.0, 403.0, 403.0, 403.0, 403.0, 403.0, 403.0, 403.0, 403.0, 403.0, 403.0, 403.0, 403.0, 403.0, 403.0, 403.0, 403.0, 403.0, 404.0, 404.0, 404.0, 404.0, 404.0, 404.0, 404.0, 404.0, 404.0, 404.0, 404.0, 404.0, 404.0, 404.0, 404.0, 404.0, 402.0, 402.0, 402.0, 402.0, 402.0, 379.0, 363.0, 356.0, 355.0, 355.0, 355.0, 355.0, 355.0, 355.0, 355.0, 355.0, 355.0, 355.0, 355.0, 355.0, 355.0, 355.0, 355.0, 355.0, 350.0, 347.0, 347.0, 347.0, 347.0, 347.0, 347.0, 347.0, 347.0, 347.0]	[0.006005957635352388, 0.011107860875199549, 0.028378965580486692, 0.04522613478184212, 0.06132680887822062, 0.07856821762106847, 0.09502080596575979, 0.11180994857568294, 0.12824512894439977, 0.14514657008112408, 0.1615749237826094, 0.17849377290986013, 0.19491393462521955, 0.21184165839804336, 0.2282249561685603, 0.24511581598198973, 0.26157932697969954, 0.27857258668518625, 0.29472650871321093, 0.31176038703415543, 0.32827646330406424, 0.34516493379487656, 0.3616062581568258, 0.3785657258849824, 0.3949500476446701, 0.41184329679526854, 0.4282419545488665, 0.4451471503416542, 0.46141917357454076, 0.4786370303336298, 0.49467489917878993, 0.5116756681964034, 0.528100608571549, 0.5451652068586554, 0.5614239181013545, 0.5784120578027796, 0.5948325608624145, 0.6117971485946327, 0.6281009157828521, 0.6452423139708117, 0.6614112546521937, 0.6785533354996005, 0.6947188628546428, 0.711790970468428, 0.728294758751872, 0.745052498721634, 0.7616248949343571, 0.7785249707376352, 0.7949724390928168, 0.8117861576756695, 0.8281220101489453, 0.8450883045443334, 0.8613579384400509, 0.8786406484723557, 0.894648480010801, 0.9117362889228389, 0.9282923011487583, 0.9451258170447545, 0.9615787467191694, 0.9785416277882177, 0.9950423440750455, 1.0117526387766702, 1.0282280964311212, 1.0451838095032144, 1.0613363662123447, 1.0785084843519144, 1.0946545557380887, 1.1117604553001001, 1.1281966596579878, 1.145132916761213, 1.1615732171194395, 1.1784681729332078, 1.1947818387852749, 1.2118498503987212, 1.2282771800964838, 1.245195687894011, 1.261307284643408, 1.2785845333273755, 1.2946466368157417, 1.311758339041262, 1.3282907992834225, 1.345204187076888, 1.3615946528298082, 1.3785445632529445, 1.394984863611171, 1.4118009715166409, 1.4282969091436826, 1.4452099556074245, 1.4613741176290205, 1.4785233664733823, 1.494769448399893, 1.5117749960772926, 1.5280838832695736, 1.5453218786715297, 1.5613979767949786, 1.5784110338136088, 1.5948817127937218, 1.6118623431830201, 1.628260318248067, 1.6452627939434024, 1.661591478434275, 1.678548898169538, 1.6946546922699781, 1.711697103906772, 1.728263356111711, 1.7450463547284016, 1.7615839349746238, 1.778432810853701, 1.795015105701168, 1.8117349577369168, 1.828147268795874, 1.845108784531476, 1.86154294089647]
15	images/0318.jpg	images/0548.jpg	left	0.931	[0.0, 0.0, 0.0, 0.0, 0.0, 0.0, 0.0, 0.0, 0.0, 0.0, 0.0, 0.0, 0.0, 0.0, 0.0, 0.0, 0.0, 0.0, 2.0, 13.0, 25.0, 49.0, 115.0, 172.0, 242.0, 309.0, 379.0, 443.0, 487.0, 528.0, 569.0, 598.0, 617.0, 632.0, 642.0, 645.0, 645.0, 645.0, 645.0, 645.0, 631.0, 582.0, 475.0, 318.0, 103.0, -132.0, -361.0, -618.0, -738.0, -814.0, -843.0, -854.0, -854.0, -854.0, -854.0, -854.0]	[-490.0, -490.0, -490.0, -490.0, -490.0, -490.0, -490.0, -490.0, -490.0, -490.0, -490.0, -490.0, -490.0, -490.0, -490.0, -490.0, -490.0, -484.0, -476.0, -458.0, -437.0, -391.0, -237.0, -110.0, -10.0, 66.0, 140.0, 205.0, 256.0, 296.0, 330.0, 354.0, 372.0, 385.0, 399.0, 403.0, 403.0, 403.0, 403.0, 403.0, 403.0, 383.0, 343.0, 299.0, 270.0, 265.0, 265.0, 265.0, 259.0, 247.0, 243.0, 242.0, 242.0, 242.0, 242.0, 242.0]	[0.0044522101525217295, 0.011680958850774914, 0.02520798268960789, 0.042223429030855186, 0.058243207226041704, 0.07530814684287179, 0.0918658657319611, 0.1088301121344557, 0.12512329799938016, 0.14208652039815206, 0.158504634120618, 0.1754101712576812, 0.19183442895882763, 0.20878604604513384, 0.22520825576793868, 0.2421004809148144, 0.2582113950047642, 0.27543061709729955, 0.29185760546533857, 0.3086822467012098, 0.32510138442739844, 0.34213014274428133, 0.3584632645652164, 0.3753653883759398, 0.3918377740337746, 0.40870166855165735, 0.4250436650181655, 0.4421280606184155, 0.4582147400651593, 0.47529777031741105, 0.49180121727113146, 0.5086067438678583, 0.5251760680694133, 0.5419498506962555, 0.558499377584667, 0.5753745360998437, 0.5917233592335833, 0.6087507522170199, 0.6251125460112235, 0.6421194590220693, 0.6582566557481186, 0.6752642514329636, 0.6918482529436005, 0.708662995530176, 0.7252077437588014, 0.7420218036713777, 0.7584853146690875, 0.7753454545309069, 0.7918622134602629, 0.8087336173048243, 0.8252008829731494, 0.8420337161951466, 0.8585146351688309, 0.8753583910438465, 0.8918410166952526, 0.9086994498793501]
16	images/0376.jpg	images/0066.jpg	right	0.785	[0.0, 0.0, 0.0, 0.0, 0.0, 0.0, 0.0, 0.0, 0.0, 0.0, 0.0, 0.0, 0.0, 0.0, 0.0, 0.0, -1.0, -5.0, -13.0, -34.0, -73.0, -124.0, -227.0, -310.0, -390.0, -462.0, -529.0, -581.0, -618.0, -633.0, -633.0, -612.0, -502.0, -316.0, 17.0, 200.0, 373.0, 508.0, 606.0, 654.0, 673.0, 681.0, 682.0, 683.0, 683.0, 683.0, 683.0, 683.0]	[-490.0, -490.0, -490.0, -490.0, -490.0, -490.0, -490.0, -490.0, -490.0, -490.0, -490.0, -490.0, -489.0, -487.0, -484.0, -479.0, -467.0, -446.0, -418.0, -370.0, -288.0, -177.0, -1.0, 98.0, 178.0, 235.0, 279.0, 314.0, 335.0, 347.0, 349.0, 363.0, 385.0, 389.0, 379.0, 354.0, 328.0, 311.0, 296.0, 293.0, 293.0, 293.0, 293.0, 293.0, 294.0, 295.0, 295.0, 295.0]	[0.006371866518747993, 0.010704746673582122, 0.01413411858084146, 0.029563049480202608, 0.046184256294509396, 0.06334920645167585, 0.07928399274533149, 0.09653018014796544, 0.1128103953669779, 0.12968930853821803, 0.14619889947061893, 0.16300715673423838, 0.17956282761588227, 0.1964055595017271, 0.21279158792458475, 0.22976368498348165, 0.24595208163373172, 0.262952167991898, 0.279552212159615, 0.29630653881758917, 0.31282227374322247, 0.3297438535373658, 0.3462213591847103, 0.36302688576688524, 0.37954262070707045, 0.3963519019598607, 0.41256453325331677, 0.42970217678521294, 0.4459526960417861, 0.4629439077398274, 0.47921661363216117, 0.49627950524154585, 0.5128198161546607, 0.5297000946593471, 0.5461564376601018, 0.5629766415659105, 0.5795480137749109, 0.5963293057138799, 0.6128388966608327, 0.6297635484515922, 0.6459434117859928, 0.6630032313987613, 0.6794865397096146, 0.6963009409519145, 0.7127804946067045, 0.7296798877505353, 0.7461826520302566, 0.7630342585616745]
17	images/0561.jpg	images/0109.jpg	left	1.138	[0.0, 0.0, 0.0, 0.0, 0.0, 0.0, 0.0, 0.0, 0.0, 0.0, 0.0, 0.0, 0.0, 0.0, 0.0, 0.0, 0.0, 1.0, 8.0, 24.0, 42.0, 61.0, 72.0, 75.0, 73.0, 60.0, 38.0, 4.0, -74.0, -173.0, -268.0, -307.0, -319.0, -319.0, -316.0, -310.0, -306.0, -305.0, -305.0, -312.0, -316.0, -318.0, -318.0, -318.0, -265.0, -145.0, 129.0, 353.0, 539.0, 679.0, 766.0, 791.0, 791.0, 791.0, 768.0, 633.0, 431.0, 76.0, -169.0, -366.0, -529.0, -635.0, -669.0, -672.0, -672.0, -672.0, -672.0, -672.0, -672.0]	[-490.0, -490.0, -490.0, -490.0, -490.0, -490.0, -490.0, -490.0, -490.0, -490.0, -490.0, -490.0, -490.0, -490.0, -490.0, -490.0, -490.0, -489.0, -463.0, -408.0, -350.0, -270.0, -189.0, -128.0, -70.0, -28.0, 9.0, 34.0, 66.0, 104.0, 133.0, 145.0, 149.0, 158.0, 180.0, 195.0, 205.0, 211.0, 215.0, 223.0, 225.0, 227.0, 227.0, 229.0, 241.0, 259.0, 272.0, 272.0, 272.0, 272.0, 272.0, 273.0, 273.0, 273.0, 273.0, 273.0, 293.0, 351.0, 388.0, 417.0, 426.0, 426.0, 426.0, 427.0, 427.0, 427.0, 427.0, 427.0, 427.0]	[0.007527278459747322, 0.01176322007086128, 0.016526862382306717, 0.03219711566634942, 0.048311101738363504, 0.06480874602857511, 0.08170233652344905, 0.09813922355533578, 0.1149771767668426, 0.13126626664598007, 0.14826259833353106, 0.16476502128352877, 0.1816650971013587, 0.19794531232037116, 0.21489488139923196, 0.23141880832554307, 0.2482680255343439, 0.26453629409661517, 0.28160771903640125, 0.29807771535706706, 0.3149675511813257, 0.3314645127975382, 0.3483516179549042, 0.36468439844611567, 0.38167834081104957, 0.3981404864753131, 0.4150555809319485, 0.4312217909609899, 0.4482587412785506, 0.4647557028947631, 0.4815933147765463, 0.49809232440020423, 0.5149579255958088, 0.5315091591473902, 0.548305811083992, 0.5647075408196542, 0.5817154778342228, 0.5980588396487292, 0.6149903180776164, 0.6312002187187318, 0.6482713023287943, 0.6647662159521133, 0.6816451291233534, 0.6981042027910007, 0.7149844812956871, 0.731445602956228, 0.7483234921237454, 0.7647351205232553, 0.7816409989900421, 0.7978382703149691, 0.8149469005293213, 0.8312486197246471, 0.8483330153103452, 0.8648815182095859, 0.8816314075374976, 0.898101745187887, 0.9209959685103968, 0.9314469000237295, 0.9483606291469187, 0.9648371108050924, 0.9817549359286204, 0.9978303513780702, 1.0150092961994233, 1.0314608605403919, 1.048296083099558, 1.0645093970524613, 1.0816173446219182, 1.0981166955752997, 1.115003459402942]
18	images/0420.jpg	images/0110.jpg	left	1.0	[0.0, 0.0, 0.0, 0.0, 0.0, 0.0, 0.0, 0.0, 0.0, 0.0, 0.0, 0.0, -3.0, -12.0, -21.0, -29.0, -34.0, -39.0, -54.0, -79.0, -97.0, -111.0, -122.0, -127.0, -128.0, -128.0, -128.0, -123.0, -104.0, -77.0, -33.0, -30.0, -29.0, -41.0, -78.0, -152.0, -247.0, -422.0, -544.0, -644.0, -717.0, -755.0, -765.0, -765.0, -765.0, -765.0, -765.0, -765.0, -765.0, -765.0, -765.0, -765.0, -765.0, -765.0, -765.0, -765.0, -765.0, -765.0, -765.0, -765.0]	[-490.0, -490.0, -490.0, -490.0, -490.0, -490.0, -490.0, -490.0, -490.0, -490.0, -490.0, -490.0, -478.0, -456.0, -436.0, -422.0, -416.0, -408.0, -393.0, -378.0, -366.0, -354.0, -336.0, -310.0, -200.0, -78.0, 36.0, 106.0, 147.0, 173.0, 206.0, 211.0, 220.0, 232.0, 248.0, 260.0, 276.0, 286.0, 286.0, 286.0, 286.0, 286.0, 286.0, 286.0, 286.0, 286.0, 286.0, 286.0, 286.0, 286.0, 286.0, 286.0, 286.0, 286.0, 286.0, 286.0, 286.0, 286.0, 286.0, 286.0]	[0.005832901821122505, 0.011252244672505185, 0.028089173894841224, 0.04493327111413237, 0.06102745988755487, 0.07804597821086645, 0.09458321712736506, 0.111452572979033, 0.1279570439219242, 0.14482981309993193, 0.16113255628442857, 0.17812718132336158, 0.19462892159936018, 0.21144502951938193, 0.22778190599638037, 0.24492978950729594, 0.26135097522637807, 0.2781861977855442, 0.29447494632040616, 0.3113709261378972, 0.3279583409894258, 0.3447822995512979, 0.36123966655577533, 0.37811653173412196, 0.39460393603076227, 0.4114282359369099, 0.4280282801046269, 0.44472458015661687, 0.46126284306228627, 0.4840577385039069, 0.49448989670781884, 0.5113886071776506, 0.5278582621685928, 0.5447907646157546, 0.5612785102421185, 0.578119876794517, 0.5946144490881125, 0.6114175863476703, 0.6279698439029744, 0.6447978984651854, 0.6610067751025781, 0.6781225733284373, 0.6943901592312614, 0.7113895629154285, 0.7279923377500381, 0.7447961576690432, 0.7612460153468419, 0.7781802244571736, 0.7946017515059793, 0.8115240139595699, 0.8276772533281473, 0.8448329874954652, 0.861250418543932, 0.8781201157253236, 0.8945238934684312, 0.9114567372307647, 0.9279714481672272, 0.9448353426851099, 0.9614254882035311, 0.9783306840108708]
19	images/0570.jpg	images/0316.jpg	left	1.237	[0.0, 0.0, 0.0, 0.0, 0.0, 0.0, 0.0, 0.0, 0.0, 0.0, 0.0, 0.0, 0.0, 2.0, 6.0, 10.0, 16.0, 16.0, 16.0, 15.0, -15.0, -69.0, -150.0, -240.0, -384.0, -474.0, -558.0, -611.0, -648.0, -672.0, -686.0, -690.0, -690.0, -690.0, -687.0, -657.0, -602.0, -470.0, -322.0, -111.0, 110.0, 309.0, 468.0, 598.0, 682.0, 731.0, 747.0, 749.0, 749.0, 749.0, 749.0, 749.0, 749.0, 749.0, 749.0, 749.0, 749.0, 749.0, 749.0, 749.0, 734.0, 639.0, 493.0, 313.0, 102.0, -111.0, -313.0, -475.0, -588.0, -632.0, -643.0, -644.0, -644.0, -644.0, -644.0]	[-490.0, -490.0, -490.0, -490.0, -490.0, -490.0, -490.0, -490.0, -490.0, -490.0, -490.0, -490.0, -490.0, -487.0, -480.0, -463.0, -442.0, -406.0, -333.0, -224.0, -106.0, 10.0, 114.0, 202.0, 297.0, 348.0, 387.0, 418.0, 438.0, 453.0, 461.0, 464.0, 464.0, 464.0, 464.0, 459.0, 451.0, 428.0, 409.0, 378.0, 343.0, 321.0, 306.0, 304.0, 304.0, 304.0, 304.0, 304.0, 304.0, 304.0, 304.0, 304.0, 304.0, 304.0, 304.0, 304.0, 304.0, 304.0, 304.0, 304.0, 304.0, 304.0, 304.0, 304.0, 304.0, 304.0, 304.0, 304.0, 304.0, 304.0, 304.0, 304.0, 304.0, 304.0, 304.0]	[0.007767235510982573, 0.012083049019565806, 0.016378382555558346, 0.03229678487696219, 0.04877565585775301, 0.0657624302257318, 0.08200885348196607, 0.0989181452896446, 0.1153994055930525, 0.13227558809740003, 0.14876435772748664, 0.1656064069538843, 0.1820446593046654, 0.19891299115261063, 0.21539117947395425, 0.23225473266211338, 0.24850627590785734, 0.26554800488520414, 0.2819275479851058, 0.298846055768081, 0.3153600840450963, 0.33218950394075364, 0.34863219362159725, 0.36559132003458217, 0.3820674603484804, 0.3989313548663631, 0.4154262684896821, 0.432218824440497, 0.4486990607401822, 0.4657022190949647, 0.48186467445339076, 0.49892347007698845, 0.5153402184660081, 0.532176465014345, 0.5487061946041649, 0.5655690651183249, 0.5819687468610937, 0.5988387853722088, 0.6153118537040427, 0.6322870227595558, 0.6486710031749681, 0.6656512922199909, 0.6818461742077488, 0.6988861965219257, 0.7152804169309093, 0.7322470526705729, 0.7486914490145864, 0.7655973274959251, 0.7820205612079008, 0.7988998157088645, 0.8154206706385594, 0.8322920744831208, 0.8484835431299871, 0.8653911282744957, 0.8820150657411432, 0.8988468749739695, 0.9153813832090236, 0.9322401577373967, 0.9485388049361063, 0.9655675632529892, 0.9818723544449313, 0.9989185207523406, 1.01522058127739, 1.0321817556832684, 1.0485029308474623, 1.0655170118552633, 1.0817484164581401, 1.09874884414603, 1.1151802698586835, 1.1321827455394669, 1.1485233766870806, 1.1655838789738482, 1.182091080583632, 1.1989235724759055, 1.2153560221777298]
20	images/0405.jpg	images/0116.jpg	right	0.77	[0.0, 0.0, 0.0, 0.0, 0.0, 0.0, 0.0, 0.0, 0.0, 0.0, 0.0, 0.0, 0.0, 0.0, -5.0, -14.0, -29.0, -52.0, -84.0, -129.0, -193.0, -256.0, -340.0, -391.0, -431.0, -461.0, -479.0, -487.0, -492.0, -493.0, -493.0, -465.0, -348.0, -174.0, 163.0, 373.0, 527.0, 617.0, 699.0, 711.0, 725.0, 730.0, 733.0, 733.0, 733.0, 733.0, 733.0]	[-490.0, -490.0, -490.0, -490.0, -490.0, -490.0, -490.0, -490.0, -490.0, -490.0, -490.0, -488.0, -483.0, -476.0, -461.0, -427.0, -363.0, -294.0, -227.0, -164.0, -84.0, -4.0, 102.0, 154.0, 188.0, 209.0, 224.0, 232.0, 242.0, 252.0, 258.0, 267.0, 287.0, 300.0, 300.0, 300.0, 300.0, 300.0, 309.0, 313.0, 315.0, 318.0, 321.0, 322.0, 322.0, 322.0, 322.0]	[0.0062814132834319025, 0.009939136914908886, 0.013272935597342439, 0.029300564448931254, 0.045795819416525774, 0.06278225245478097, 0.07903584370797034, 0.09593250618490856, 0.11242468914133497, 0.12924625838059, 0.14566061744699255, 0.16268630376725923, 0.17907847618334927, 0.1959597786917584, 0.21222702325030696, 0.22926670423476025, 0.24572270590579137, 0.2626634003245272, 0.27886647431296296, 0.29585427268466447, 0.3122399597632466, 0.3292840780777624, 0.34554449598363135, 0.3626490302121965, 0.3789172987744678, 0.3958651612047106, 0.4122447042900603, 0.4292601506313076, 0.4454690272687003, 0.4624783296167152, 0.47876434749923646, 0.49584942574438173, 0.5124105579598108, 0.529177855263697, 0.5454611424793256, 0.5625445140758529, 0.5790817529777996, 0.6016230380482739, 0.6124569451058051, 0.6292897783278022, 0.645678878747276, 0.6625721279124264, 0.6790690895286389, 0.6959592666826211, 0.7123002391599584, 0.7291398990491871, 0.7457467698695837]
21	images/0534.jpg	images/0233.jpg	left	1.122	[0.0, 0.0, 0.0, 0.0, 0.0, 0.0, 0.0, 0.0, 0.0, 0.0, 0.0, -11.0, -32.0, -46.0, -52.0, -58.0, -66.0, -68.0, -68.0, -75.0, -91.0, -114.0, -138.0, -166.0, -200.0, -247.0, -300.0, -323.0, -313.0, -274.0, -198.0, -182.0, -179.0, -178.0, -178.0, -185.0, -213.0, -268.0, -330.0, -375.0, -399.0, -409.0, -422.0, -436.0, -452.0, -467.0, -482.0, -495.0, -503.0, -506.0, -506.0, -506.0, -506.0, -506.0, -507.0, -512.0, -517.0, -520.0, -526.0, -541.0, -568.0, -598.0, -621.0, -628.0, -629.0, -629.0, -629.0]	[-490.0, -490.0, -490.0, -490.0, -490.0, -490.0, -490.0, -490.0, -490.0, -490.0, -490.0, -490.0, -490.0, -490.0, -488.0, -486.0, -482.0, -480.0, -480.0, -478.0, -462.0, -436.0, -403.0, -357.0, -310.0, -217.0, -78.0, 42.0, 100.0, 155.0, 266.0, 297.0, 305.0, 307.0, 309.0, 317.0, 325.0, 333.0, 342.0, 343.0, 343.0, 343.0, 343.0, 346.0, 348.0, 350.0, 350.0, 350.0, 350.0, 350.0, 350.0, 350.0, 350.0, 350.0, 350.0, 350.0, 350.0, 350.0, 350.0, 353.0, 358.0, 362.0, 367.0, 368.0, 368.0, 368.0, 368.0]	[0.005126684016431682, 0.009589612018316984, 0.02681736742670182, 0.043442670241347514, 0.060191876895260066, 0.07719264591287356, 0.0935459063766757, 0.11119008796231356, 0.1266541761578992, 0.14384916362178046, 0.16025157601688989, 0.1771939771133475, 0.19343493905034848, 0.21041283875820227, 0.2268814697599737, 0.24399931597872637, 0.26024096057517454, 0.27719599097326864, 0.293583043399849, 0.3103868633334059, 0.3269104489154415, 0.34374498881516047, 0.3600726493023103, 0.3771727462153649, 0.39346047074650414, 0.41036839722073637, 0.4268162069056416, 0.4436725920968456, 0.46006169251631945, 0.47699078162258957, 0.4934822819195688, 0.51032467247569, 0.5268332394189201, 0.543658221984515, 0.5600906716863392, 0.5771054353535874, 0.5932344400935108, 0.6103444356413092, 0.6267256854043808, 0.6436930038034916, 0.6601606108015403, 0.6770542012818623, 0.69350815496, 0.7103959427913651, 0.7266314433945809, 0.7437168629840016, 0.7601906139607308, 0.7771579323598417, 0.7933668089972343, 0.8103303727257298, 0.8267379051249009, 0.8436441249359632, 0.8601414278818993, 0.8770428690331755, 0.8934917027072515, 0.9103535492322408, 0.9268286655569682, 0.9437010933907004, 0.9600765405048151, 0.9770960828318493, 0.9933817593700951, 1.0102978778304532, 1.026792108794325, 1.0436915019381559, 1.0601761755824555, 1.0770567954168655, 1.0934854904480744]
22	images/0432.jpg	images/0035.jpg	left	0.617	[0.0, 0.0, 0.0, 0.0, 0.0, 0.0, 0.0, 0.0, 0.0, 0.0, 0.0, 0.0, -1.0, -8.0, -18.0, -31.0, -53.0, -65.0, -78.0, -81.0, -84.0, -97.0, -122.0, -155.0, -197.0, -266.0, -348.0, -431.0, -532.0, -707.0, -768.0, -902.0, -924.0, -925.0, -925.0, -925.0, -925.0, -925.0]	[-490.0, -490.0, -490.0, -490.0, -490.0, -490.0, -490.0, -490.0, -490.0, -490.0, -490.0, -490.0, -488.0, -477.0, -454.0, -403.0, -319.0, -253.0, -167.0, -109.0, -59.0, 3.0, 72.0, 130.0, 170.0, 210.0, 252.0, 284.0, 322.0, 363.0, 373.0, 391.0, 396.0, 396.0, 396.0, 396.0, 396.0, 396.0]	[0.006795460678404197, 0.011355327238561586, 0.015836345875868574, 0.02983816381311044, 0.04682050086557865, 0.06317273732565809, 0.0801373250578763, 0.09631650573282968, 0.11344663993804716, 0.12990025227190927, 0.1467641468043439, 0.16308498063881416, 0.18008916298276745, 0.19624718101113103, 0.2134080351825105, 0.22960871981922537, 0.24670540340594016, 0.2631631117401412, 0.2800041369482642, 0.296550933184335, 0.31331720648449846, 0.3296018590335734, 0.3467790971772047, 0.3629050299205119, 0.38001878013892565, 0.39646863781672437, 0.4133424309984548, 0.4298062833258882, 0.44665174586407375, 0.46309511821891647, 0.48010783389327116, 0.4964720170100918, 0.5133499061776092, 0.5298195611685514, 0.5467093969928101, 0.5630930360930506, 0.5800361198489554, 0.5965187454858096]
23	images/0137.jpg	images/0117.jpg	right	0.984	[0.0, 0.0, 0.0, 0.0, 0.0, 0.0, 0.0, 0.0, 0.0, 0.0, 0.0, 0.0, 0.0, 0.0, 0.0, 0.0, -1.0, -9.0, -14.0, -19.0, -35.0, -50.0, -78.0, -119.0, -186.0, -267.0, -339.0, -396.0, -438.0, -478.0, -512.0, -538.0, -558.0, -567.0, -578.0, -591.0, -606.0, -625.0, -637.0, -646.0, -651.0, -653.0, -653.0, -653.0, -653.0, -653.0, -653.0, -622.0, -468.0, -233.0, 23.0, 273.0, 492.0, 651.0, 762.0, 820.0, 846.0, 846.0, 846.0, 846.0]	[-490.0, -490.0, -490.0, -490.0, -490.0, -490.0, -490.0, -490.0, -490.0, -490.0, -490.0, -490.0, -490.0, -490.0, -490.0, -490.0, -486.0, -481.0, -477.0, -469.0, -448.0, -429.0, -403.0, -367.0, -309.0, -236.0, -148.0, -61.0, 18.0, 90.0, 153.0, 199.0, 233.0, 248.0, 262.0, 280.0, 297.0, 314.0, 323.0, 330.0, 333.0, 335.0, 335.0, 335.0, 335.0, 335.0, 335.0, 335.0, 335.0, 335.0, 335.0, 335.0, 335.0, 335.0, 339.0, 343.0, 343.0, 343.0, 343.0, 343.0]	[0.0055861181317595765, 0.009390273582539521, 0.014050492012756877, 0.027865942174685188, 0.04436563447234221, 0.06143364607123658, 0.07774048525607213, 0.09481737152964342, 0.11087810967001133, 0.12779593479353935, 0.14433863502927125, 0.16141688662173692, 0.17781247237871867, 0.19474429215188138, 0.21109516327851452, 0.22798056177271064, 0.2442672623146791, 0.2612646180059528, 0.27757725985429715, 0.29468281808658503, 0.31110161446849816, 0.3279818929731846, 0.3444989932468161, 0.3613744930771645, 0.37772024421428796, 0.39468175994988997, 0.4110578897234518, 0.42791222692176234, 0.44439519390289206, 0.4612331471143989, 0.477632487527444, 0.49455133664014284, 0.5110216743050842, 0.5279108274553437, 0.544424855732359, 0.5612358436483191, 0.5777406559209339, 0.5946752063609893, 0.6110100348450942, 0.6278896306757815, 0.6443896643031621, 0.6612306895112852, 0.6777228724822635, 0.6945963243197184, 0.7111649658618262, 0.7279814151115716, 0.7444138648133958, 0.7611862821067916, 0.7776409184443764, 0.7947270207077963, 0.8110106492531486, 0.8279213063797215, 0.8443960813601734, 0.8612456398986978, 0.8777600095054368, 0.8946262933604885, 0.9111157456500223, 0.9278902109508635, 0.9444069698802195, 0.9613305976672564]
24	images/0421.jpg	images/0410.jpg	left	0.72	[0.0, 0.0, 0.0, 0.0, 0.0, 0.0, 0.0, 0.0, 0.0, 0.0, 2.0, 5.0, 11.0, 16.0, 21.0, 29.0, 49.0, 72.0, 85.0, 94.0, 95.0, 90.0, 78.0, 54.0, -22.0, -129.0, -186.0, -239.0, -299.0, -363.0, -444.0, -549.0, -640.0, -705.0, -742.0, -760.0, -770.0, -770.0, -770.0, -770.0, -770.0, -771.0, -771.0, -771.0]	[-490.0, -490.0, -490.0, -490.0, -490.0, -490.0, -490.0, -490.0, -490.0, -490.0, -482.0, -472.0, -448.0, -433.0, -416.0, -398.0, -376.0, -354.0, -338.0, -325.0, -320.0, -310.0, -299.0, -271.0, -218.0, -153.0, -106.0, -59.0, -4.0, 44.0, 103.0, 162.0, 218.0, 249.0, 269.0, 279.0, 284.0, 284.0, 284.0, 284.0, 289.0, 294.0, 294.0, 294.0]	[0.006741871417034417, 0.011305492633255199, 0.01456010207766667, 0.030229331357986666, 0.046742335631279275, 0.06369975538109429, 0.08002639186452143, 0.09686639308347367, 0.11337154670036398, 0.13017229462275282, 0.14669553888961673, 0.16352768945216667, 0.1799894937867066, 0.19683939365495462, 0.2134100831899559, 0.23017738049384207, 0.24668697142624296, 0.26366999113815837, 0.2800410009222105, 0.29689704478369094, 0.3131421027064789, 0.3301558423845563, 0.3467166332702618, 0.36354878381825984, 0.38002594813588075, 0.3969482105894713, 0.4134103562537348, 0.43012577094486915, 0.44662034323846456, 0.46366889888304286, 0.4800166980130598, 0.49681642194627784, 0.513125991798006, 0.5301564567780588, 0.5464332586707314, 0.5635289182391716, 0.5799958425777731, 0.5969153743644711, 0.613206512236502, 0.6302550678665284, 0.6468226854049135, 0.6636104626813903, 0.6799773764651036, 0.6969221668841783]
25	images/0323.jpg	images/0403.jpg	left	1.442	[0.0, 1.0, 1.0, 1.0, 1.0, 1.0, 1.0, 1.0, 1.0, 0.0, -12.0, -28.0, -39.0, -48.0, -57.0, -66.0, -72.0, -80.0, -89.0, -95.0, -100.0, -100.0, -95.0, -64.0, -23.0, -9.0, -20.0, -45.0, -70.0, -101.0, -109.0, -147.0, -189.0, -241.0, -308.0, -386.0, -462.0, -554.0, -573.0, -605.0, -623.0, -630.0, -630.0, -630.0, -630.0, -630.0, -630.0, -630.0, -630.0, -630.0, -630.0, -630.0, -630.0, -630.0, -630.0, -630.0, -630.0, -631.0, -620.0, -560.0, -417.0, -199.0, 31.0, 216.0, 338.0, 383.0, 395.0, 396.0, 396.0, 396.0, 395.0, 369.0, 309.0, 212.0, 96.0, -58.0, -228.0, -398.0, -614.0, -693.0, -720.0, -726.0, -726.0, -726.0, -726.0, -726.0, -726.0]	[-490.0, -490.0, -490.0, -490.0, -490.0, -490.0, -490.0, -490.0, -490.0, -490.0, -494.0, -502.0, -506.0, -510.0, -514.0, -515.0, -515.0, -510.0, -505.0, -501.0, -497.0, -484.0, -446.0, -368.0, -256.0, -151.0, -72.0, -8.0, 35.0, 72.0, 81.0, 117.0, 148.0, 174.0, 199.0, 219.0, 231.0, 244.0, 250.0, 257.0, 265.0, 267.0, 267.0, 267.0, 267.0, 267.0, 267.0, 267.0, 267.0, 267.0, 267.0, 267.0, 267.0, 267.0, 267.0, 267.0, 267.0, 268.0, 269.0, 269.0, 269.0, 289.0, 301.0, 316.0, 334.0, 341.0, 342.0, 343.0, 343.0, 343.0, 343.0, 347.0, 347.0, 347.0, 347.0, 347.0, 347.0, 347.0, 347.0, 347.0, 347.0, 348.0, 348.0, 348.0, 348.0, 348.0, 348.0]	[0.00865709045319818, 0.013605052547063679, 0.018341729548410513, 0.0336194499686826, 0.0506123683298938, 0.06695436481095385, 0.08391076055704616, 0.10031453828560188, 0.1172108594328165, 0.13362487715494353, 0.15064646748942323, 0.16696832532761618, 0.18377760658040643, 0.20011960304691456, 0.21719921998737846, 0.23365180833206978, 0.2505034148634877, 0.2670140297996113, 0.28385573768173344, 0.30039195259450935, 0.3172322951431852, 0.33359272360394243, 0.3505999779445119, 0.366740587996901, 0.3837843649671413, 0.4003099985566223, 0.41710494383005425, 0.43363774541649036, 0.4505060772644356, 0.4670194228674518, 0.48381402679660823, 0.5005608441279037, 0.5171793202753179, 0.5336496579257073, 0.5505480270803673, 0.566964775454835, 0.5894412072811974, 0.6003222182771424, 0.6170816649246262, 0.6334513093606802, 0.6505159076477867, 0.666780080209719, 0.6838238571945112, 0.7001347923651338, 0.7172690225706901, 0.733705909588025, 0.7506008654163452, 0.7669855285057565, 0.7838163137348602, 0.800255590089364, 0.8172119858354563, 0.833615763564012, 0.8505086713848868, 0.8666933133790735, 0.8836889624217292, 0.900255214626668, 0.9172587143111741, 0.9334986522444524, 0.9505004452657886, 0.9669438176206313, 0.9838496960874181, 1.0002753191365628, 1.0171439923142316, 1.0336259352916386, 1.050494949799031, 1.0669663114531431, 1.0838110913318815, 1.100341162251425, 1.1172142727591563, 1.1336282904812833, 1.1505737635743571, 1.1669358986982843, 1.1837694145797286, 1.200305288162781, 1.217092041450087, 1.233667850974598, 1.2505385721451603, 1.2669662431871984, 1.2838441323692678, 1.3002404007711448, 1.3171735858777538, 1.33363846220891, 1.3506016846076818, 1.3667283000104362, 1.3836014105181675, 1.4003349158592755, 1.4171336157887708]
26	images/0573.jpg	images/0363.jpg	left	1.517	[0.0, 0.0, 0.0, 0.0, 0.0, 0.0, 0.0, 0.0, 0.0, 0.0, 0.0, 0.0, 0.0, -1.0, -1.0, -5.0, -13.0, -40.0, -82.0, -193.0, -236.0, -331.0, -376.0, -418.0, -443.0, -462.0, -467.0, -469.0, -469.0, -469.0, -472.0, -485.0, -503.0, -507.0, -507.0, -493.0, -479.0, -478.0, -478.0, -478.0, -478.0, -478.0, -494.0, -534.0, -541.0, -544.0, -544.0, -544.0, -544.0, -544.0, -544.0, -544.0, -544.0, -544.0, -544.0, -544.0, -544.0, -544.0, -544.0, -544.0, -544.0, -544.0, -544.0, -544.0, -544.0, -544.0, -543.0, -523.0, -464.0, -430.0, -411.0, -403.0, -397.0, -391.0, -379.0, -365.0, -355.0, -349.0, -344.0, -335.0, -331.0, -317.0, -316.0, -325.0, -387.0, -520.0, -662.0, -802.0, -886.0, -913.0, -914.0, -914.0]	[-490.0, -490.0, -490.0, -490.0, -490.0, -490.0, -490.0, -490.0, -490.0, -490.0, -490.0, -490.0, -490.0, -490.0, -483.0, -464.0, -418.0, -328.0, -224.0, -56.0, -6.0, 95.0, 135.0, 165.0, 183.0, 196.0, 201.0, 203.0, 205.0, 205.0, 207.0, 217.0, 239.0, 257.0, 275.0, 296.0, 305.0, 306.0, 306.0, 306.0, 306.0, 306.0, 312.0, 323.0, 324.0, 326.0, 326.0, 326.0, 326.0, 326.0, 326.0, 326.0, 326.0, 326.0, 326.0, 326.0, 326.0, 326.0, 326.0, 326.0, 326.0, 326.0, 326.0, 326.0, 326.0, 326.0, 325.0, 316.0, 291.0, 279.0, 270.0, 268.0, 264.0, 258.0, 244.0, 224.0, 206.0, 194.0, 186.0, 173.0, 166.0, 138.0, 125.0, 120.0, 123.0, 167.0, 228.0, 286.0, 322.0, 340.0, 340.0, 340.0]	[0.007048047045827843, 0.012273171480046585, 0.015929529778077267, 0.030431400446104817, 0.04738096953951754, 0.0636349021224305, 0.08043667404854205, 0.09691725169250276, 0.11387398876831867, 0.13044092363270465, 0.1473072074877564, 0.1638690223771846, 0.18068717827554792, 0.1969820708181942, 0.2138783919654088, 0.2304248468572041, 0.24718122150807176, 0.26379969765548594, 0.2805690429522656, 0.29685847416112665, 0.31393331242725253, 0.33034050349669997, 0.3471979126916267, 0.3636706396791851, 0.3806355687411269, 0.396940359933069, 0.4138575023825979, 0.4303759679896757, 0.44719309989886824, 0.4637692507531028, 0.48055702802957967, 0.4970437496667728, 0.5138646362465806, 0.5301503127848264, 0.5470735992421396, 0.563646678099758, 0.5806580284406664, 0.5970921848056605, 0.6139024900621735, 0.6303335744305514, 0.6471657249931013, 0.6636654172762064, 0.680594847726752, 0.6970102307823254, 0.7138505733310012, 0.7301437591959257, 0.747236005438026, 0.7636906417901628, 0.7805787709366996, 0.7967954982304946, 0.8139136857789708, 0.830105154440389, 0.8472120780061232, 0.8636250717245275, 0.8806108221033355, 0.8970644344517495, 0.9138788356940495, 0.9303293760458473, 0.9472328651754651, 0.9636076296155807, 0.9804899561131606, 0.996971557760844, 1.0138617349148262, 1.0303904405009234, 1.0472451190289576, 1.0637977179285372, 1.0807281723682536, 1.0968479611037765, 1.1138722821051488, 1.1303497877524933, 1.1471331276989076, 1.1634655668458436, 1.1805888743983814, 1.1969469135219697, 1.213778040080797, 1.2303077696706168, 1.2471225122426404, 1.263618449869682, 1.2806693948368775, 1.2967850875866134, 1.3137855152745033, 1.3303422101598699, 1.3472480886266567, 1.3636713223386323, 1.3806321554147871, 1.3969342159398366, 1.4138807130220812, 1.4301882348809158, 1.4471248333138647, 1.463446349807782, 1.4805051454313798, 1.4968143739388324]
27	images/0593.jpg	images/0444.jpg	left	0.818	[0.0, 0.0, 0.0, 0.0, 0.0, 0.0, 0.0, 0.0, 0.0, 0.0, 0.0, 0.0, -5.0, -11.0, -20.0, -34.0, -54.0, -86.0, -131.0, -159.0, -178.0, -194.0, -222.0, -268.0, -366.0, -460.0, -551.0, -643.0, -716.0, -790.0, -817.0, -826.0, -828.0, -828.0, -828.0, -828.0, -828.0, -828.0, -828.0, -828.0, -828.0, -824.0, -794.0, -751.0, -702.0, -665.0, -650.0, -647.0, -647.0, -647.0]	[-490.0, -490.0, -490.0, -490.0, -490.0, -490.0, -490.0, -490.0, -490.0, -490.0, -490.0, -490.0, -489.0, -481.0, -468.0, -453.0, -429.0, -404.0, -369.0, -337.0, -293.0, -241.0, -177.0, -111.0, -4.0, 56.0, 91.0, 106.0, 115.0, 128.0, 131.0, 134.0, 135.0, 135.0, 135.0, 135.0, 135.0, 135.0, 135.0, 135.0, 135.0, 147.0, 207.0, 282.0, 350.0, 388.0, 403.0, 405.0, 405.0, 405.0]	[0.007874072718550451, 0.0121366382954875, 0.016535054382984526, 0.033087994597735815, 0.04884562910592649, 0.06595972066861577, 0.08240991967613809, 0.09921271560597233, 0.11554549609718379, 0.13254216911445837, 0.14882272566319443, 0.16586240664764773, 0.18227574171032757, 0.19924476677260827, 0.2156669764808612, 0.23254145232203882, 0.24898653134005144, 0.26594053774897475, 0.2823866407707101, 0.29914301542157773, 0.3154314226267161, 0.33250933288945816, 0.3489673825679347, 0.3658435650722822, 0.38229717740614433, 0.3991330826393096, 0.4156146842724411, 0.4325011067703599, 0.44891444183303975, 0.46586708290851675, 0.48228792728332337, 0.4991781044518575, 0.5155870021699229, 0.5326048378483392, 0.5488987063727109, 0.5658704621018842, 0.5822865278314566, 0.599236438240041, 0.615604376027477, 0.6325539451063378, 0.6489140322228195, 0.665919579914771, 0.6822735230380204, 0.6990708576340694, 0.7155705499317264, 0.7324948603782104, 0.7489075127668912, 0.7658229485678021, 0.7822564222587971, 0.7992288606474176]
28	images/0226.jpg	images/0132.jpg	right	0.918	[0.0, 0.0, 0.0, 0.0, 0.0, 0.0, 0.0, 0.0, 0.0, 0.0, 0.0, 0.0, 0.0, 0.0, 0.0, 0.0, -8.0, -27.0, -60.0, -107.0, -160.0, -212.0, -253.0, -277.0, -284.0, -284.0, -283.0, -277.0, -273.0, -268.0, -263.0, -257.0, -255.0, -255.0, -255.0, -273.0, -330.0, -429.0, -534.0, -605.0, -639.0, -639.0, -633.0, -522.0, -331.0, -96.0, 140.0, 372.0, 578.0, 731.0, 829.0, 891.0, 929.0, 933.0, 933.0, 933.0]	[-490.0, -490.0, -490.0, -490.0, -490.0, -490.0, -490.0, -490.0, -490.0, -490.0, -490.0, -490.0, -490.0, -490.0, -490.0, -480.0, -430.0, -350.0, -259.0, -162.0, -81.0, 0.0, 58.0, 102.0, 124.0, 139.0, 153.0, 167.0, 177.0, 198.0, 220.0, 247.0, 264.0, 266.0, 267.0, 268.0, 268.0, 276.0, 285.0, 287.0, 291.0, 291.0, 299.0, 330.0, 384.0, 419.0, 439.0, 444.0, 448.0, 448.0, 448.0, 448.0, 448.0, 448.0, 448.0, 448.0]	[0.007439555920427665, 0.012028777098748833, 0.015384762431494892, 0.031529468469670974, 0.048112445991137065, 0.0649944311589934, 0.0814811527961865, 0.09845427385880612, 0.11476555037370417, 0.1316202289017383, 0.1480967105453601, 0.16499371436657384, 0.18137871878570877, 0.19840952511003707, 0.21486245478445198, 0.23172600797261111, 0.24798096455924679, 0.2649527202738682, 0.2814718685403932, 0.2983879870007513, 0.31468185553967487, 0.33169218187686056, 0.34794406646688003, 0.36486735290964134, 0.38141483180515934, 0.3982282090582885, 0.4146343761240132, 0.43154947058064863, 0.44796041630615946, 0.4649147640593583, 0.4814820402680198, 0.4983469587896252, 0.5147196752222953, 0.5316634416521993, 0.5481750805920456, 0.5649601272016298, 0.5811874358187197, 0.5981977621559054, 0.6148394489428028, 0.631709487453918, 0.648110534530133, 0.6649307384359417, 0.6813976627599914, 0.6983076372271171, 0.7147277989424765, 0.7317842052289052, 0.7480644204479177, 0.7648549283912871, 0.781406503287144, 0.7982468458358198, 0.8147021648474038, 0.8315534300490981, 0.8480599489848828, 0.8649972300918307, 0.881546074320795, 0.8984362514747772]
29	images/0355.jpg	images/0204.jpg	left	1.098	[0.0, 0.0, 0.0, 0.0, 0.0, -1.0, -1.0, -1.0, -1.0, -1.0, -1.0, -1.0, -1.0, -1.0, -1.0, -1.0, -1.0, -2.0, -4.0, -20.0, -45.0, -59.0, -73.0, -84.0, -102.0, -129.0, -184.0, -207.0, -285.0, -340.0, -390.0, -430.0, -466.0, -489.0, -502.0, -511.0, -517.0, -520.0, -525.0, -526.0, -526.0, -526.0, -526.0, -526.0, -527.0, -530.0, -533.0, -537.0, -544.0, -558.0, -572.0, -595.0, -632.0, -648.0, -651.0, -652.0, -652.0, -652.0, -652.0, -652.0, -652.0, -652.0, -652.0, -652.0, -652.0, -652.0]	[-490.0, -490.0, -490.0, -490.0, -490.0, -489.0, -489.0, -489.0, -489.0, -489.0, -489.0, -489.0, -489.0, -489.0, -489.0, -489.0, -489.0, -485.0, -466.0, -407.0, -323.0, -246.0, -179.0, -116.0, -58.0, -6.0, 73.0, 101.0, 160.0, 189.0, 216.0, 242.0, 268.0, 285.0, 296.0, 303.0, 308.0, 309.0, 311.0, 312.0, 312.0, 312.0, 312.0, 312.0, 312.0, 312.0, 312.0, 312.0, 312.0, 312.0, 312.0, 312.0, 311.0, 310.0, 310.0, 310.0, 310.0, 310.0, 310.0, 310.0, 310.0, 310.0, 310.0, 310.0, 310.0, 310.0]	[0.0027363295230316, 0.007618755698786117, 0.02174379481584765, 0.0385585374024231, 0.055014539073454216, 0.07201940409140661, 0.08829757130297367, 0.10522154041973408, 0.12162941414862871, 0.13845371405477636, 0.15496228099800646, 0.17192755140422378, 0.1883279158064397, 0.20520443964051083, 0.22163450001971796, 0.23854788781318348, 0.255066694735433, 0.2718527653487399, 0.2884077535709366, 0.30522386149095837, 0.3216805458214367, 0.3385021150606917, 0.35499463936139364, 0.37186672586540226, 0.3883247755438788, 0.4052736619632924, 0.4216805116884643, 0.43860994213900995, 0.454995629232144, 0.4719561209640233, 0.4883568266959628, 0.5052326678705867, 0.5217060775321443, 0.5385010227910243, 0.5550450883602025, 0.5717628923885059, 0.5880492516007507, 0.6052237590920413, 0.6213565184734762, 0.6384617353760405, 0.6549931716290303, 0.6719430820521666, 0.688251627900172, 0.70528755421401, 0.7214131456130417, 0.7385132425115444, 0.7549784601724241, 0.7718153893947601, 0.7884553695184877, 0.8051868268667022, 0.8216271272249287, 0.8385033097292762, 0.8550111940130591, 0.871855632547522, 0.8882672609470319, 0.9052144407032756, 0.9216216317581711, 0.9385124915861525, 0.9547353628731798, 0.9718456997652538, 0.9883467573818052, 1.0052379585395101, 1.021585757669527, 1.038551369405468, 1.0550080537504982, 1.0718135803326732]
30	images/0230.jpg	images/0254.jpg	left	0.817	[0.0, 0.0, 0.0, 0.0, 0.0, 0.0, 0.0, 0.0, 0.0, 0.0, 0.0, 0.0, 0.0, 0.0, 0.0, 0.0, 0.0, 2.0, 14.0, 27.0, 54.0, 84.0, 123.0, 158.0, 203.0, 235.0, 261.0, 276.0, 291.0, 309.0, 331.0, 355.0, 360.0, 360.0, 358.0, 339.0, 286.0, 170.0, 21.0, -149.0, -319.0, -492.0, -640.0, -785.0, -817.0, -824.0, -824.0, -824.0, -824.0]	[-490.0, -490.0, -490.0, -490.0, -490.0, -490.0, -490.0, -490.0, -490.0, -490.0, -490.0, -490.0, -490.0, -490.0, -490.0, -490.0, -488.0, -480.0, -428.0, -339.0, -254.0, -187.0, -132.0, -89.0, -24.0, 44.0, 106.0, 135.0, 149.0, 156.0, 163.0, 172.0, 176.0, 179.0, 186.0, 198.0, 216.0, 232.0, 256.0, 280.0, 306.0, 328.0, 345.0, 368.0, 371.0, 371.0, 371.0, 371.0, 371.0]	[0.005297350478940643, 0.009834347729338333, 0.02746863065112848, 0.044373485128744505, 0.06073698557156604, 0.07780909318535123, 0.09385993267642334, 0.11086377369065303, 0.12739350328047294, 0.14429357908375096, 0.1606987221603049, 0.1775742219906533, 0.1941722181654768, 0.21101597404049244, 0.22738254649448209, 0.2442628249846166, 0.26069902935705613, 0.27770184638211504, 0.2940387228591135, 0.3108882813976379, 0.3273647630412597, 0.34424265220877714, 0.36073756584664807, 0.3776117003581021, 0.3941267526242882, 0.41089029525755905, 0.4271493478299817, 0.444213263457641, 0.4607225130603183, 0.47756456227216404, 0.49405299057252705, 0.5108554451726377, 0.5271421457146062, 0.5442852505657356, 0.5607163349341135, 0.5776761440065457, 0.5940628551034024, 0.6108376617194153, 0.6274636471935082, 0.6441862298815977, 0.6604695170972263, 0.6774805261084111, 0.694051556973136, 0.7108953128481517, 0.727326055886806, 0.7443114649358904, 0.7604742616240401, 0.7774729826487601, 0.7940522055141628]
31	images/0249.jpg	images/0002.jpg	right	0.753	[0.0, 0.0, 0.0, 0.0, 0.0, 0.0, 0.0, 0.0, -1.0, -2.0, -3.0, -5.0, -8.0, -8.0, -8.0, -8.0, -19.0, -49.0, -84.0, -124.0, -200.0, -262.0, -336.0, -408.0, -462.0, -484.0, -500.0, -514.0, -520.0, -521.0, -521.0, -498.0, -382.0, -204.0, -7.0, 168.0, 332.0, 502.0, 672.0, 824.0, 943.0, 959.0, 959.0, 959.0, 959.0, 959.0]	[-490.0, -490.0, -490.0, -490.0, -490.0, -490.0, -490.0, -490.0, -491.0, -491.0, -489.0, -483.0, -470.0, -444.0, -386.0, -305.0, -208.0, -110.0, -47.0, 8.0, 96.0, 144.0, 187.0, 212.0, 227.0, 238.0, 248.0, 255.0, 256.0, 256.0, 256.0, 258.0, 274.0, 300.0, 322.0, 340.0, 340.0, 340.0, 340.0, 334.0, 318.0, 318.0, 318.0, 318.0, 318.0, 318.0]	[0.006583834270713851, 0.010510186912142672, 0.013707793768844567, 0.030019752943189815, 0.0462160002643941, 0.06343965968699194, 0.07965706964023411, 0.096740782566485, 0.11301178179564886, 0.13007979340909515, 0.14658904301177245, 0.1633225483528804, 0.1798294086329406, 0.1968605562869925, 0.21318787545897067, 0.22996165808581281, 0.24636338782147504, 0.26321840767923277, 0.279749502602499, 0.2965611731779063, 0.313179990669596, 0.33000087723485194, 0.34641967361676507, 0.3632651361549506, 0.3797842844214756, 0.39666865892650094, 0.4130038287403295, 0.4299080005439464, 0.4463541035656817, 0.46322482473624405, 0.47974090100615285, 0.4965686142386403, 0.5128986640629591, 0.529995347635122, 0.5463410987867974, 0.5632544865802629, 0.5798231281078188, 0.5967443665576866, 0.612807835379499, 0.62992226825736, 0.6464400511904387, 0.6632377271307632, 0.6797592647199053, 0.6967020071460865, 0.713096227569622, 0.7301089432439767]
32	images/0555.jpg	images/0160.jpg	left	0.806	[0.0, 0.0, 0.0, 0.0, 0.0, 0.0, 0.0, 0.0, 0.0, 0.0, 0.0, 2.0, 3.0, 4.0, 7.0, 8.0, 14.0, 20.0, 29.0, 47.0, 70.0, 83.0, 89.0, 89.0, 76.0, 58.0, 33.0, -12.0, -70.0, -164.0, -260.0, -368.0, -467.0, -545.0, -609.0, -627.0, -633.0, -633.0, -632.0, -628.0, -624.0, -624.0, -624.0, -621.0, -619.0, -616.0, -615.0, -615.0, -615.0]	[-490.0, -490.0, -490.0, -490.0, -490.0, -490.0, -490.0, -490.0, -490.0, -490.0, -490.0, -490.0, -489.0, -486.0, -483.0, -480.0, -473.0, -464.0, -449.0, -424.0, -391.0, -365.0, -318.0, -303.0, -285.0, -263.0, -245.0, -214.0, -170.0, -105.0, -51.0, -4.0, 31.0, 67.0, 128.0, 164.0, 187.0, 202.0, 210.0, 217.0, 226.0, 230.0, 231.0, 234.0, 240.0, 248.0, 253.0, 253.0, 253.0]	[0.006193349385284819, 0.010123115367605351, 0.014070630641072057, 0.029151060633012094, 0.04576271011319477, 0.0626716605911497, 0.07909591829229612, 0.09608098599710502, 0.11246837975340895, 0.1293493409320945, 0.14554354024585336, 0.16257605323335156, 0.17916517474805005, 0.1959788933309028, 0.21254685219901148, 0.2294701386417728, 0.24581247645255644, 0.2626418963482138, 0.27893542355741374, 0.29594438456115313, 0.31249186347122304, 0.3292646220943425, 0.34589709289139137, 0.3626626835321076, 0.3791729571385076, 0.3959576624183683, 0.4124187840789091, 0.4294400330836652, 0.4458619014621945, 0.46259711346647236, 0.4791398137167562, 0.4959576282853959, 0.5124962325207889, 0.5293075617810246, 0.5457918940810487, 0.5626138046500273, 0.579168792872224, 0.5959719301317818, 0.6125634409836493, 0.6295130100625101, 0.6458256519108545, 0.6626421011460479, 0.6791216548008379, 0.6959469786961563, 0.7124616896326188, 0.7293272908136714, 0.7457372125500115, 0.7626359230198432, 0.7790878287050873]
33	images/0251.jpg	images/0568.jpg	left	0.892	[0.0, 0.0, 0.0, 0.0, 0.0, 0.0, 0.0, 0.0, 0.0, 0.0, 0.0, 0.0, 0.0, 0.0, 0.0, 0.0, 0.0, 0.0, 0.0, 0.0, 0.0, 3.0, 4.0, 6.0, 6.0, 2.0, -25.0, -67.0, -120.0, -178.0, -207.0, -222.0, -248.0, -276.0, -296.0, -315.0, -340.0, -366.0, -377.0, -400.0, -409.0, -426.0, -448.0, -467.0, -482.0, -502.0, -530.0, -563.0, -586.0, -605.0, -608.0, -623.0, -629.0, -629.0]	[-490.0, -490.0, -490.0, -490.0, -490.0, -490.0, -490.0, -490.0, -490.0, -490.0, -490.0, -490.0, -490.0, -490.0, -490.0, -490.0, -490.0, -490.0, -490.0, -489.0, -482.0, -472.0, -453.0, -432.0, -408.0, -382.0, -334.0, -283.0, -228.0, -161.0, -124.0, -101.0, -55.0, -12.0, 14.0, 35.0, 63.0, 93.0, 109.0, 151.0, 161.0, 174.0, 188.0, 203.0, 214.0, 230.0, 251.0, 275.0, 287.0, 296.0, 298.0, 307.0, 311.0, 311.0]	[0.005061148083768785, 0.009089559272979386, 0.01399451341421809, 0.026881879355642013, 0.043529027461772785, 0.060418521956307814, 0.07663388391665649, 0.09374592747190036, 0.11014936387073249, 0.127086986307404, 0.14351363334571943, 0.16042087714595255, 0.17684411085792817, 0.1937807093054289, 0.21015615640499163, 0.22710197082778905, 0.24347844193107449, 0.2604106030339608, 0.2768683113681618, 0.293935640307609, 0.3101346182957059, 0.3270974993647542, 0.3435091277497122, 0.36035971029195935, 0.3766559681535, 0.3936963317974005, 0.40996596569311805, 0.42695717739115935, 0.44354254424979445, 0.46046992669289466, 0.47662214205774944, 0.4939352307119407, 0.5099352115939837, 0.5269796712382231, 0.543487555522006, 0.5603494020324433, 0.5768869822786655, 0.5937245941604488, 0.6102038064709632, 0.627037663696683, 0.6432386896776734, 0.6602790533215739, 0.6768483775231289, 0.6938262772455346, 0.7101235591107979, 0.7270775655197212, 0.7435069432249293, 0.7603008644946385, 0.7768387860705843, 0.7937238432350568, 0.8100579890451627, 0.8269911741517717, 0.8435417250439059, 0.860385822263197]
34	images/0497.jpg	images/0085.jpg	left	0.888	[0.0, 0.0, 0.0, 0.0, 0.0, 0.0, 0.0, 0.0, 0.0, 0.0, 0.0, 0.0, 0.0, 0.0, 0.0, 0.0, 0.0, 0.0, 0.0, 0.0, 0.0, 0.0, 0.0, 2.0, 13.0, 14.0, 14.0, 14.0, 17.0, 23.0, 26.0, 22.0, 2.0, -14.0, -37.0, -73.0, -122.0, -182.0, -248.0, -318.0, -383.0, -454.0, -525.0, -587.0, -660.0, -686.0, -698.0, -702.0, -705.0, -705.0, -705.0, -705.0, -705.0]	[-490.0, -490.0, -490.0, -490.0, -490.0, -490.0, -490.0, -490.0, -490.0, -490.0, -490.0, -490.0, -490.0, -490.0, -490.0, -490.0, -490.0, -490.0, -490.0, -489.0, -472.0, -450.0, -410.0, -357.0, -273.0, -223.0, -187.0, -152.0, -117.0, -68.0, -26.0, 3.0, 35.0, 54.0, 70.0, 100.0, 134.0, 177.0, 213.0, 239.0, 269.0, 292.0, 314.0, 330.0, 343.0, 351.0, 356.0, 358.0, 360.0, 360.0, 360.0, 360.0, 360.0]	[0.004949873560690321, 0.009357164293760434, 0.026379778631962836, 0.04335324100975413, 0.059731418776209466, 0.07660452929849271, 0.09275264866300859, 0.11003331068786792, 0.12611760081199463, 0.14296784200996626, 0.1597672246134607, 0.17652223391633015, 0.1928758357244078, 0.20969569828594103, 0.22652033952181228, 0.24329207415576093, 0.25971223587112036, 0.2765163971344009, 0.29283654829487205, 0.30978065605449956, 0.32644384681771044, 0.34326473338296637, 0.3597702283295803, 0.37651294967508875, 0.3928013568802271, 0.4097816459252499, 0.42614139171200804, 0.44309437413176056, 0.45970773027511314, 0.47659585943620186, 0.4930511784477858, 0.5098082357581006, 0.5263710746366996, 0.5432318971579662, 0.5597104268090334, 0.5764743107865797, 0.5929712724027922, 0.6101058439380722, 0.6261921820550924, 0.6432100177189568, 0.659708003338892, 0.6767691882996587, 0.6928568917355733, 0.7097327329101972, 0.7263477957312716, 0.7432809808378806, 0.7597492704953765, 0.7764612718601711, 0.7930944253312191, 0.8099299892055569, 0.8263402522716206, 0.8430812669394072, 0.859724319059751]
35	images/0308.jpg	images/0354.jpg	right	0.925	[0.0, 0.0, 0.0, 0.0, 0.0, 0.0, 0.0, 0.0, 0.0, 0.0, 0.0, 0.0, 0.0, 0.0, 0.0, 0.0, 0.0, 0.0, -8.0, -24.0, -58.0, -95.0, -137.0, -174.0, -231.0, -300.0, -377.0, -450.0, -527.0, -634.0, -702.0, -756.0, -783.0, -790.0, -790.0, -791.0, -791.0, -791.0, -765.0, -643.0, -602.0, -502.0, -412.0, -284.0, -112.0, 79.0, 268.0, 427.0, 551.0, 643.0, 711.0, 757.0, 769.0, 769.0, 769.0, 769.0]	[-490.0, -490.0, -490.0, -490.0, -490.0, -490.0, -490.0, -490.0, -490.0, -490.0, -490.0, -490.0, -490.0, -489.0, -476.0, -461.0, -444.0, -403.0, -324.0, -264.0, -201.0, -139.0, -77.0, -18.0, 54.0, 125.0, 202.0, 269.0, 329.0, 395.0, 428.0, 449.0, 460.0, 463.0, 463.0, 464.0, 464.0, 464.0, 469.0, 481.0, 481.0, 481.0, 481.0, 472.0, 461.0, 439.0, 410.0, 388.0, 374.0, 374.0, 374.0, 374.0, 374.0, 374.0, 374.0, 374.0]	[0.006655172852333635, 0.010521792224608362, 0.014114662597421557, 0.03026585397310555, 0.046878186127287336, 0.0635775581758935, 0.0800984131055884, 0.0970650488307001, 0.11344049594481476, 0.13035422506800387, 0.14673786416824441, 0.16365159329143353, 0.1798181446356466, 0.19698787346715108, 0.21309196088986937, 0.23024120973423123, 0.2464869503310183, 0.2635341406275984, 0.27984814780938905, 0.2969741860142676, 0.3131700919911964, 0.3302367382711964, 0.34652275615371764, 0.36380273550457787, 0.3797668764309492, 0.39691953861620277, 0.41314206855895463, 0.4302438721351791, 0.44658006595273037, 0.46359380563080776, 0.4798118982434971, 0.4968734245339874, 0.5133058742358116, 0.5302588566555642, 0.5465291732107289, 0.5635743155144155, 0.5800579651549924, 0.5969102543604095, 0.6154944668232929, 0.6302676971681649, 0.6472384288936155, 0.6636142173374537, 0.6815700358856702, 0.6968641402781941, 0.7146277883875882, 0.7302942870010156, 0.7480364311486483, 0.7635609352582833, 0.7807228134333855, 0.796845332835801, 0.8135484595404705, 0.8301652290247148, 0.8466894972807495, 0.8632117175438907, 0.8798639856540831, 0.8965889576793415]
36	images/0193.jpg	images/0554.jpg	right	1.092	[0.0, 0.0, 0.0, 0.0, 0.0, 0.0, 0.0, 0.0, 0.0, 0.0, 0.0, 0.0, 0.0, 0.0, 0.0, 0.0, 0.0, 0.0, 0.0, -3.0, -4.0, -7.0, -9.0, -9.0, -3.0, -3.0, -30.0, -88.0, -177.0, -252.0, -311.0, -362.0, -401.0, -455.0, -472.0, -515.0, -538.0, -552.0, -561.0, -570.0, -577.0, -585.0, -590.0, -591.0, -592.0, -592.0, -592.0, -592.0, -589.0, -586.0, -584.0, -582.0, -575.0, -546.0, -453.0, -275.0, -56.0, 281.0, 475.0, 623.0, 718.0, 765.0, 788.0, 795.0, 796.0, 796.0]	[-490.0, -490.0, -490.0, -490.0, -490.0, -490.0, -490.0, -490.0, -490.0, -490.0, -490.0, -490.0, -490.0, -490.0, -490.0, -490.0, -490.0, -485.0, -469.0, -453.0, -449.0, -438.0, -431.0, -418.0, -384.0, -338.0, -285.0, -244.0, -207.0, -178.0, -153.0, -123.0, -84.0, -14.0, 8.0, 58.0, 83.0, 98.0, 110.0, 124.0, 143.0, 162.0, 177.0, 185.0, 192.0, 198.0, 212.0, 222.0, 234.0, 243.0, 249.0, 254.0, 259.0, 269.0, 283.0, 310.0, 339.0, 344.0, 346.0, 357.0, 360.0, 360.0, 360.0, 360.0, 360.0, 360.0]	[0.008292888232972473, 0.012668776340433396, 0.019224757837946527, 0.03233023551001679, 0.050754021503962576, 0.0658750701113604, 0.08342163047927897, 0.09903727048367728, 0.11631724984908942, 0.13223053216643166, 0.14982112449069973, 0.16565863089635968, 0.18230065901298076, 0.19856653825263493, 0.21777538997412194, 0.23216803411196452, 0.2501794899289962, 0.26556814354262315, 0.2841991186141968, 0.2987743758712895, 0.3167042531131301, 0.331970026876661, 0.35015385581937153, 0.3654936988314148, 0.3829518539714627, 0.39881188835715875, 0.41577203875931446, 0.432190493811504, 0.44896325244917534, 0.46547728071163874, 0.48240944181452505, 0.4988022969046142, 0.5157119300274644, 0.5322331263014348, 0.5490495755366283, 0.5655397105001612, 0.5822196265798993, 0.598605655002757, 0.6157907438027905, 0.6319163352018222, 0.6490242827712791, 0.6654782364494167, 0.6822974163515028, 0.6986100581998471, 0.7156439365207916, 0.7322030207287753, 0.7489443767262856, 0.7652689652313711, 0.7823741821339354, 0.7985950054135174, 0.8157094383059302, 0.8320309547998477, 0.8489798412192613, 0.8652051018434577, 0.8823352360341232, 0.8985977019474376, 0.9155660443357192, 0.9319742594088893, 0.9490095030487282, 0.9651978997135302, 0.9823741138534388, 0.998548515868606, 1.0157346286723623, 1.031924049326335, 1.048917991691269, 1.0652473588561406]
37	images/0064.jpg	images/0399.jpg	right	0.603	[0.0, 0.0, 0.0, 0.0, 0.0, 0.0, 0.0, 0.0, 0.0, 0.0, 0.0, 0.0, 0.0, 0.0, 0.0, 0.0, 0.0, 0.0, -4.0, -13.0, -17.0, -17.0, -9.0, 22.0, 37.0, 122.0, 215.0, 341.0, 495.0, 645.0, 771.0, 871.0, 924.0, 939.0, 939.0, 939.0, 939.0]	[-490.0, -490.0, -490.0, -490.0, -490.0, -490.0, -490.0, -490.0, -490.0, -490.0, -490.0, -490.0, -490.0, -490.0, -490.0, -490.0, -490.0, -490.0, -486.0, -443.0, -363.0, -282.0, -201.0, -82.0, -44.0, 57.0, 111.0, 179.0, 251.0, 317.0, 367.0, 409.0, 439.0, 446.0, 446.0, 446.0, 446.0]	[0.007238510821480304, 0.010891114448895678, 0.017754978252924047, 0.03135607134026941, 0.050516453775344416, 0.06476369009760674, 0.08302534294489305, 0.09807778362301178, 0.11629369786533061, 0.13137549317616504, 0.14910773865994997, 0.16472098934173118, 0.1821115605707746, 0.19792926967784297, 0.21495700399100315, 0.2313307444419479, 0.24794922057481017, 0.2643902036070358, 0.2832273437670665, 0.29762442523497157, 0.3162216083583189, 0.3311317132029217, 0.34994188806740567, 0.36427514028036967, 0.3812086667167023, 0.3977380549622467, 0.41575497211306356, 0.4311825376789784, 0.4489915830636164, 0.4641931862424826, 0.48193840237217955, 0.49755643171374686, 0.5146401446399977, 0.5310934156586882, 0.5483723710058257, 0.5645099090615986, 0.5818683949910337]
38	images/0533.jpg	images/0359.jpg	left	1.868	[0.0, 0.0, 0.0, 0.0, 0.0, 0.0, 0.0, 0.0, 0.0, 0.0, 0.0, 0.0, 0.0, 0.0, 0.0, 0.0, 0.0, 0.0, 13.0, 43.0, 104.0, 189.0, 279.0, 375.0, 457.0, 550.0, 595.0, 626.0, 640.0, 644.0, 645.0, 644.0, 627.0, 607.0, 587.0, 573.0, 545.0, 506.0, 455.0, 412.0, 393.0, 381.0, 361.0, 325.0, 263.0, 176.0, 79.0, -57.0, -323.0, -536.0, -711.0, -833.0, -893.0, -912.0, -917.0, -917.0, -917.0, -900.0, -841.0, -738.0, -608.0, -363.0, -152.0, 56.0, 224.0, 305.0, 315.0, 315.0, 315.0, 275.0, 148.0, -38.0, -252.0, -567.0, -738.0, -878.0, -960.0, -960.0, -960.0, -960.0, -960.0, -960.0, -960.0, -960.0, -960.0, -960.0, -960.0, -960.0, -960.0, -960.0, -960.0, -960.0, -960.0, -960.0, -960.0, -960.0, -960.0, -960.0, -937.0, -926.0, -919.0, -908.0, -896.0, -889.0, -886.0, -886.0, -886.0, -885.0, -884.0, -884.0, -884.0, -884.0, -884.0]	[-490.0, -490.0, -490.0, -490.0, -490.0, -490.0, -490.0, -490.0, -490.0, -490.0, -489.0, -488.0, -487.0, -484.0, -481.0, -475.0, -459.0, -431.0, -373.0, -265.0, -122.0, 17.0, 142.0, 258.0, 352.0, 456.0, 502.0, 525.0, 536.0, 539.0, 540.0, 540.0, 540.0, 535.0, 522.0, 511.0, 494.0, 472.0, 449.0, 423.0, 415.0, 411.0, 404.0, 399.0, 393.0, 393.0, 394.0, 414.0, 452.0, 481.0, 503.0, 503.0, 503.0, 503.0, 503.0, 503.0, 503.0, 498.0, 483.0, 469.0, 451.0, 412.0, 396.0, 394.0, 394.0, 394.0, 394.0, 394.0, 394.0, 394.0, 394.0, 394.0, 389.0, 389.0, 387.0, 387.0, 387.0, 387.0, 387.0, 387.0, 387.0, 387.0, 387.0, 387.0, 387.0, 387.0, 387.0, 387.0, 387.0, 387.0, 387.0, 387.0, 387.0, 387.0, 387.0, 387.0, 387.0, 387.0, 387.0, 387.0, 387.0, 385.0, 385.0, 385.0, 384.0, 384.0, 384.0, 383.0, 382.0, 382.0, 382.0, 382.0, 382.0]	[0.008268312274594791, 0.014892560357111506, 0.01931145640264731, 0.03303918401070405, 0.050013670392218046, 0.06650175736285746, 0.0833465372415958, 0.09977147761674132, 0.11664083346840926, 0.13309000848676078, 0.14988563641963992, 0.16629146215564106, 0.18319665794842876, 0.19974208885105327, 0.21667971128772479, 0.2332009075471433, 0.24991598090855405, 0.266191758797504, 0.2836116846592631, 0.29948298302770127, 0.3166694371611811, 0.332946921713301, 0.3499275521025993, 0.36618558067129925, 0.38324642430234235, 0.3994750982383266, 0.41662776040902827, 0.43282878639001865, 0.44989782200718764, 0.4661609705799492, 0.48335254470293876, 0.49945287746959366, 0.5165696996846236, 0.5328239735972602, 0.5498674092377769, 0.5661605951027013, 0.5832084680732805, 0.5995187205844559, 0.616590145524242, 0.6336356291576521, 0.6498759084352059, 0.6687884831626434, 0.6832992285053479, 0.7013632495800266, 0.7166085433709668, 0.7349053535144776, 0.7499001089308877, 0.7680518525739899, 0.7832841757190181, 0.8009481546177994, 0.8166829198162304, 0.8340134164463961, 0.8498570668452885, 0.8671776648261584, 0.8831817417085404, 0.9000422229000833, 0.9165002725640079, 0.9333232071367092, 0.9498686380393337, 0.9661666025640443, 0.9828721186058829, 0.9997131438285578, 1.0163039720064262, 1.033085263959947, 1.0496849667833885, 1.0664321254444076, 1.0831277428369503, 1.0996741977432976, 1.116306327196071, 1.133054168531089, 1.1497842605313053, 1.166398299363209, 1.183191537958919, 1.1997151235555066, 1.2164404369104886, 1.2331200116459513, 1.2497910530655645, 1.2663214653148316, 1.2830809119623154, 1.2997028014360694, 1.316353362883092, 1.332852372492198, 1.3496251311298693, 1.3663931110932026, 1.3832389149756636, 1.399556335483794, 1.4165362831845414, 1.4331216500431765, 1.449587891707779, 1.4664104849362047, 1.4830381770734675, 1.499727650472778, 1.5165454650414176, 1.533059493318433, 1.5496079962176736, 1.5662981522764312, 1.5828978551144246, 1.5997672109515406, 1.6166857187490677, 1.6331362590863137, 1.6497946711897384, 1.6664326033205725, 1.6833791004028171, 1.6996712622785708, 1.7164931728475494, 1.7330648863717215, 1.7498984022677178, 1.7664492944895755, 1.7832944156980375, 1.799725841410691, 1.8167235384316882, 1.8331228788447333, 1.8499645867268555]
39	images/0112.jpg	images/0170.jpg	left	1.401	[0.0, 0.0, 0.0, 0.0, 0.0, 0.0, 0.0, 0.0, 0.0, 0.0, 0.0, 0.0, 0.0, 0.0, 0.0, 3.0, 8.0, 29.0, 57.0, 91.0, 141.0, 216.0, 304.0, 397.0, 489.0, 584.0, 672.0, 731.0, 758.0, 774.0, 804.0, 820.0, 822.0, 822.0, 822.0, 822.0, 822.0, 822.0, 822.0, 822.0, 822.0, 819.0, 811.0, 785.0, 771.0, 754.0, 729.0, 670.0, 575.0, 451.0, 270.0, 44.0, -226.0, -509.0, -773.0, -960.0, -960.0, -960.0, -960.0, -960.0, -960.0, -960.0, -960.0, -960.0, -960.0, -960.0, -960.0, -960.0, -960.0, -960.0, -960.0, -960.0, -960.0, -960.0, -960.0, -960.0, -958.0, -949.0, -941.0, -932.0, -919.0, -895.0, -874.0, -868.0, -868.0]	[-490.0, -490.0, -490.0, -490.0, -490.0, -490.0, -490.0, -490.0, -490.0, -490.0, -490.0, -484.0, -481.0, -479.0, -475.0, -465.0, -446.0, -376.0, -279.0, -175.0, -70.0, 34.0, 124.0, 195.0, 259.0, 319.0, 368.0, 393.0, 402.0, 406.0, 419.0, 427.0, 429.0, 429.0, 429.0, 429.0, 429.0, 429.0, 429.0, 429.0, 429.0, 429.0, 428.0, 417.0, 413.0, 410.0, 407.0, 401.0, 401.0, 401.0, 398.0, 398.0, 398.0, 398.0, 394.0, 363.0, 353.0, 347.0, 347.0, 347.0, 347.0, 347.0, 347.0, 347.0, 347.0, 347.0, 347.0, 347.0, 347.0, 347.0, 347.0, 347.0, 347.0, 347.0, 347.0, 347.0, 347.0, 347.0, 347.0, 347.0, 347.0, 346.0, 343.0, 343.0, 343.0]	[0.00935852961265482, 0.01307530383928679, 0.018506593361962587, 0.03557323962741066, 0.05199715601338539, 0.06880541326245293, 0.08534879617218394, 0.10225262664607726, 0.1186069110990502, 0.13546978162776213, 0.15189335666946135, 0.16878046182682738, 0.18508832501538564, 0.20209353136306163, 0.21841402386780828, 0.23541445155569818, 0.25174074672395363, 0.26873229975171853, 0.28529172530397773, 0.3020634599379264, 0.3212122370605357, 0.3353939374501351, 0.35414574437891133, 0.3686909643292893, 0.3869225798844127, 0.4020272445050068, 0.4196229568187846, 0.43533587671117857, 0.4530165809264872, 0.4686977568635484, 0.4861303120414959, 0.5019859090971295, 0.5189040755503811, 0.5353085359529359, 0.5519604627188528, 0.5684666403394658, 0.5852301829727367, 0.6017448939091992, 0.6182937381381635, 0.6350030088506173, 0.6538131837151013, 0.6685225848050322, 0.6865674912405666, 0.7016858091810718, 0.7186725835636025, 0.7350197000341723, 0.7531199024087982, 0.7682989776076283, 0.7858100393495988, 0.8019847826944897, 0.8186571894475492, 0.8349568606354296, 0.8520900668372633, 0.8685092045489, 0.8853126831527334, 0.9019779219088377, 0.9186854859435698, 0.9351592369348509, 0.9523846030206187, 0.9685337463888573, 0.9854880941420561, 1.0018304319528397, 1.0187397237459663, 1.034959864366101, 1.0521719184762333, 1.06852313093259, 1.085416721427464, 1.101666558010038, 1.1188673481228761, 1.1352414299035445, 1.1520571964792907, 1.1686138913646573, 1.1853617326851236, 1.201957339522778, 1.2187205408408772, 1.2350226013659267, 1.2520513596828096, 1.268410081465845, 1.2853459972393466, 1.3016135831421707, 1.3186778400850017, 1.3349368926574243, 1.3520431335637113, 1.3682769275037572, 1.3854449496575398]
40	images/0483.jpg	images/0200.jpg	left	1.266	[0.0, 0.0, 0.0, 0.0, 0.0, 0.0, 0.0, 0.0, 0.0, 0.0, 0.0, 0.0, 0.0, 0.0, 0.0, 0.0, 0.0, 0.0, 0.0, 0.0, -2.0, -7.0, -8.0, -8.0, -11.0, -16.0, -31.0, -54.0, -95.0, -144.0, -186.0, -202.0, -220.0, -247.0, -284.0, -351.0, -377.0, -392.0, -402.0, -420.0, -444.0, -461.0, -467.0, -468.0, -468.0, -468.0, -450.0, -417.0, -337.0, -213.0, -53.0, 157.0, 367.0, 564.0, 735.0, 892.0, 959.0, 959.0, 959.0, 959.0, 959.0, 958.0, 891.0, 756.0, 529.0, 252.0, -29.0, -268.0, -430.0, -547.0, -564.0, -582.0, -583.0, -583.0, -583.0, -583.0, -583.0]	[-490.0, -490.0, -490.0, -490.0, -490.0, -490.0, -490.0, -490.0, -490.0, -490.0, -490.0, -490.0, -490.0, -490.0, -489.0, -488.0, -488.0, -488.0, -487.0, -483.0, -478.0, -452.0, -408.0, -337.0, -290.0, -256.0, -220.0, -176.0, -123.0, -77.0, -44.0, -20.0, 23.0, 71.0, 112.0, 174.0, 188.0, 194.0, 201.0, 216.0, 236.0, 248.0, 252.0, 252.0, 252.0, 255.0, 271.0, 284.0, 300.0, 312.0, 314.0, 314.0, 285.0, 259.0, 248.0, 248.0, 248.0, 242.0, 241.0, 241.0, 241.0, 241.0, 247.0, 264.0, 266.0, 266.0, 266.0, 266.0, 266.0, 266.0, 267.0, 270.0, 270.0, 270.0, 270.0, 270.0, 270.0]	[0.006925167195731774, 0.01100819165003486, 0.014528016778058372, 0.030711293438798748, 0.04697751400817651, 0.0640475736145163, 0.08027624756505247, 0.09738794979057275, 0.11360058108402882, 0.1306262674042955, 0.14701980515383184, 0.16405777947511524, 0.1803376533498522, 0.19736743567045778, 0.21368110152252484, 0.23075150245858822, 0.24709827759943437, 0.2640051800699439, 0.2804058858018834, 0.29728002031333745, 0.31377868860727176, 0.33070538837637287, 0.34876633746898733, 0.3640375725663034, 0.3816322608763585, 0.39736361274844967, 0.41526140470523387, 0.43091356733930297, 0.4481256214348832, 0.4639385518821655, 0.48069765718537383, 0.49723557876131963, 0.5136414044973208, 0.5306537788419519, 0.5471848737652181, 0.563666134068626, 0.580564503223286, 0.59730449388735, 0.613860847442993, 0.6307687739026733, 0.6469080186216161, 0.6636398172995541, 0.680355573334964, 0.6970310520846397, 0.7139202052348992, 0.7307076411816524, 0.7470619256346254, 0.7636090632004198, 0.7807989306747913, 0.7972979402984492, 0.8140485122858081, 0.8305294312594924, 0.8473844511172501, 0.8638121221592883, 0.8807418939395575, 0.896974322546157, 0.9140573527984088, 0.9305420264427084, 0.9474332276004134, 0.9637977520469576, 0.9808790756360395, 0.99724496541603, 1.0141068119410193, 1.0305716882721754, 1.0473287455824902, 1.063616811457905, 1.0807670843059896, 1.0972678005928174, 1.113952154002618, 1.130352518404834, 1.1472546422155574, 1.16363350264146, 1.1806687462958507, 1.1969581775047118, 1.2139900078182109, 1.2302678337000543, 1.2473361866432242]
41	images/0263.jpg	images/0360.jpg	left	1.51	[0.0, 0.0, 0.0, 0.0, 0.0, 0.0, 0.0, 0.0, 0.0, -1.0, -1.0, -1.0, -1.0, -2.0, -2.0, -2.0, -5.0, -12.0, -19.0, -32.0, -55.0, -78.0, -109.0, -153.0, -194.0, -253.0, -333.0, -497.0, -618.0, -721.0, -795.0, -836.0, -855.0, -861.0, -862.0, -862.0, -862.0, -862.0, -862.0, -862.0, -862.0, -862.0, -862.0, -844.0, -809.0, -760.0, -702.0, -665.0, -662.0, -662.0, -662.0, -662.0, -662.0, -662.0, -662.0, -662.0, -662.0, -662.0, -662.0, -662.0, -662.0, -662.0, -662.0, -662.0, -662.0, -662.0, -662.0, -662.0, -662.0, -662.0, -662.0, -662.0, -662.0, -662.0, -662.0, -662.0, -662.0, -662.0, -662.0, -662.0, -662.0, -662.0, -662.0, -662.0, -662.0, -662.0, -662.0, -662.0, -662.0, -662.0, -662.0]	[-490.0, -490.0, -490.0, -490.0, -490.0, -490.0, -490.0, -490.0, -490.0, -490.0, -489.0, -489.0, -487.0, -486.0, -480.0, -473.0, -458.0, -433.0, -399.0, -358.0, -306.0, -266.0, -225.0, -167.0, -90.0, 9.0, 123.0, 296.0, 397.0, 467.0, 508.0, 529.0, 538.0, 540.0, 540.0, 540.0, 540.0, 540.0, 540.0, 540.0, 540.0, 540.0, 540.0, 516.0, 478.0, 444.0, 415.0, 402.0, 401.0, 401.0, 401.0, 401.0, 401.0, 401.0, 401.0, 401.0, 401.0, 401.0, 401.0, 401.0, 401.0, 401.0, 401.0, 401.0, 401.0, 401.0, 401.0, 401.0, 401.0, 401.0, 401.0, 401.0, 401.0, 401.0, 401.0, 401.0, 401.0, 401.0, 401.0, 401.0, 401.0, 401.0, 401.0, 401.0, 401.0, 401.0, 401.0, 401.0, 401.0, 401.0, 401.0]	[0.0015003629960119724, 0.006041456232196651, 0.019259573775343597, 0.03601390043331776, 0.05243064882233739, 0.06943380717711989, 0.08567749976646155, 0.10286054057360161, 0.11900695327494759, 0.13607189289177768, 0.15239067873335443, 0.16936345845169853, 0.18582628678996116, 0.20271339194732718, 0.21897517518664245, 0.23604591745242942, 0.2523117966920836, 0.26945114688714966, 0.2858313726464985, 0.30263143790944014, 0.3193669912579935, 0.33608411261229776, 0.35231619988917373, 0.36922549168230034, 0.3856405334081501, 0.4025576758722309, 0.41889728301612195, 0.4361226491018897, 0.45229193111299537, 0.46942820931144524, 0.4857039872003952, 0.5027167028747499, 0.5190334407234332, 0.5359249831963098, 0.5522516196942888, 0.5693151939776726, 0.5855803905433277, 0.602679122122936, 0.6188811720930971, 0.6360119889723137, 0.652440342673799, 0.6694124397326959, 0.6857257642404875, 0.7027098079561256, 0.7192156442324631, 0.7359969361859839, 0.755365873046685, 0.7693622296501417, 0.7879365434637293, 0.8030589574045734, 0.821041399918613, 0.8360395686613629, 0.8530539910134394, 0.8693587821908295, 0.8873668246815214, 0.9027537716319785, 0.9207962887448957, 0.9359647826204309, 0.9535731242503971, 0.96934031607816, 0.9875367743370589, 1.0027062922163168, 1.0208897798293037, 1.0359930791164516, 1.053830796474358, 1.0693710019113496, 1.087302585830912, 1.1027031860867282, 1.1210180868802126, 1.1359892903274158, 1.1540570660727099, 1.169325911832857, 1.1866956617450342, 1.2026410293619847, 1.2196090304350946, 1.2359059709560825, 1.2524988471413963, 1.2690094620775199, 1.2856071169226198, 1.3024631607841002, 1.3192205594241386, 1.3359045714896638, 1.3525022263347637, 1.3690118172817165, 1.3856903680134565, 1.4023177188209957, 1.418871341709746, 1.4355857324117096, 1.4537156307487749, 1.4692462788661942, 1.4865870154753793]
42	images/0143.jpg	images/0585.jpg	right	1.018	[0.0, 0.0, 0.0, 0.0, 0.0, 0.0, 0.0, 0.0, 0.0, 0.0, 0.0, 0.0, 0.0, 0.0, 0.0, 0.0, 0.0, 0.0, 0.0, 0.0, 4.0, 20.0, 52.0, 109.0, 167.0, 276.0, 392.0, 511.0, 601.0, 666.0, 704.0, 719.0, 722.0, 723.0, 723.0, 723.0, 723.0, 720.0, 700.0, 652.0, 554.0, 424.0, 270.0, 110.0, -23.0, -86.0, -96.0, -96.0, -96.0, -81.0, 5.0, 117.0, 251.0, 399.0, 532.0, 641.0, 720.0, 748.0, 751.0, 751.0, 751.0, 751.0]	[-490.0, -490.0, -490.0, -490.0, -490.0, -490.0, -490.0, -490.0, -490.0, -490.0, -490.0, -490.0, -490.0, -490.0, -490.0, -484.0, -462.0, -423.0, -358.0, -296.0, -240.0, -188.0, -120.0, -33.0, 34.0, 111.0, 160.0, 199.0, 228.0, 247.0, 260.0, 268.0, 271.0, 272.0, 272.0, 272.0, 272.0, 279.0, 288.0, 293.0, 295.0, 295.0, 295.0, 301.0, 303.0, 305.0, 306.0, 306.0, 310.0, 324.0, 353.0, 372.0, 385.0, 385.0, 385.0, 389.0, 403.0, 408.0, 408.0, 408.0, 408.0, 408.0]	[0.007694190266192891, 0.012302184768486768, 0.019209739184589125, 0.031687505601439625, 0.04854730413353536, 0.06486711396428291, 0.0819272749213269, 0.09832900465698913, 0.11531100036518183, 0.1315075890161097, 0.1485837926156819, 0.16487424782826565, 0.18182484091084916, 0.1982183786603855, 0.21529936091974378, 0.23150584821996745, 0.24863598242518492, 0.26501381886191666, 0.281954854624928, 0.29811014198639896, 0.3152365215210011, 0.33165224592084996, 0.3485932816838613, 0.36485984358296264, 0.38184730061038863, 0.39842037948255893, 0.41527096202480607, 0.43141191340691876, 0.448641716822749, 0.46490623072895687, 0.48201690895075444, 0.4983247721247608, 0.5152282612689305, 0.5317327322263736, 0.5485577147919685, 0.5650010871468112, 0.5881100088736275, 0.5983121086756, 0.6152900083980057, 0.6317613700521179, 0.6486406245530816, 0.6650583969458239, 0.6819410647731274, 0.6981093227950623, 0.71521829435369, 0.7317026266537141, 0.7486088464647764, 0.7651791946700541, 0.7818174681160599, 0.7983110164204845, 0.8152428361936472, 0.8317415044730296, 0.8485869670257671, 0.8650146380532533, 0.881999023098615, 0.8983915368589805, 0.9151649781415472, 0.9316936837276444, 0.9485671355796512, 0.9650425932195503, 0.9818815704493318, 0.9983560041000601]
43	images/0148.jpg	images/0075.jpg	right	1.019	[0.0, 0.0, 0.0, 0.0, 0.0, 0.0, 0.0, 0.0, 0.0, 0.0, 1.0, 1.0, 2.0, 2.0, 3.0, 5.0, 8.0, 11.0, 16.0, 22.0, 28.0, 30.0, 39.0, 48.0, 72.0, 100.0, 133.0, 164.0, 183.0, 197.0, 207.0, 220.0, 236.0, 256.0, 262.0, 265.0, 266.0, 266.0, 266.0, 235.0, 167.0, 100.0, 40.0, -15.0, -68.0, -95.0, -87.0, 1.0, 147.0, 322.0, 489.0, 638.0, 746.0, 817.0, 844.0, 852.0, 853.0, 854.0, 854.0, 854.0, 854.0, 854.0]	[-490.0, -490.0, -490.0, -490.0, -490.0, -490.0, -490.0, -490.0, -490.0, -487.0, -485.0, -483.0, -479.0, -479.0, -476.0, -472.0, -463.0, -445.0, -410.0, -358.0, -299.0, -244.0, -172.0, -112.0, -38.0, 27.0, 69.0, 94.0, 107.0, 119.0, 133.0, 151.0, 172.0, 192.0, 200.0, 205.0, 207.0, 207.0, 209.0, 210.0, 210.0, 206.0, 206.0, 208.0, 226.0, 246.0, 257.0, 291.0, 329.0, 351.0, 351.0, 351.0, 351.0, 350.0, 350.0, 350.0, 350.0, 350.0, 350.0, 350.0, 350.0, 350.0]	[0.005986160322208889, 0.010358293759054504, 0.014403771594516002, 0.028340394943370484, 0.04520565479469951, 0.06152887796633877, 0.07861224956286605, 0.09473135563894175, 0.1119628657179419, 0.12806422247376759, 0.145012426233734, 0.1615684384451015, 0.17841833832790144, 0.1946927508834051, 0.21175325317017268, 0.22795291381771676, 0.24505301071621943, 0.26145200978498906, 0.278404650875018, 0.2948958098422736, 0.31169485110149253, 0.32821434069774114, 0.34516049645026214, 0.361378930407227, 0.3784114433947252, 0.39485037841950543, 0.41182179281895515, 0.42798458950710483, 0.4450386064709164, 0.4612891257129377, 0.47838615062937606, 0.49490325088845566, 0.511691369509208, 0.5281825284764636, 0.5450447163311765, 0.5615679605834885, 0.5783881644892972, 0.5948445075046038, 0.6117865672567859, 0.6279275186388986, 0.6450183995621046, 0.661504097195575, 0.6783884716860484, 0.6947052095347317, 0.7116913012432633, 0.7282142041658517, 0.7451839118875796, 0.7612770766718313, 0.7783812695706729, 0.7946273514971836, 0.8118691015552031, 0.827969434321858, 0.8450203792890534, 0.8613408717938, 0.8783337901550112, 0.8949259836663259, 0.9117338995856699, 0.9281673732912168, 0.945039801124949, 0.9615278880955884, 0.9784020226070425, 0.9949075175536564]
44	images/0507.jpg	images/0417.jpg	left	0.752	[0.0, 0.0, 0.0, 0.0, 0.0, 0.0, 0.0, 0.0, 0.0, 0.0, 0.0, 0.0, 0.0, 0.0, 0.0, 0.0, 0.0, 0.0, 0.0, 2.0, 21.0, 55.0, 103.0, 151.0, 188.0, 207.0, 211.0, 208.0, 190.0, 133.0, 70.0, -19.0, -125.0, -246.0, -364.0, -456.0, -514.0, -544.0, -569.0, -592.0, -607.0, -613.0, -619.0, -619.0, -619.0]	[-490.0, -490.0, -490.0, -490.0, -490.0, -490.0, -490.0, -490.0, -490.0, -490.0, -490.0, -490.0, -490.0, -490.0, -490.0, -489.0, -488.0, -482.0, -472.0, -449.0, -394.0, -308.0, -213.0, -125.0, -64.0, -16.0, 13.0, 35.0, 54.0, 87.0, 116.0, 155.0, 206.0, 260.0, 312.0, 351.0, 371.0, 380.0, 383.0, 384.0, 384.0, 385.0, 386.0, 386.0, 386.0]	[0.004408860870171338, 0.008623639834695496, 0.02546603039081674, 0.04242993544903584, 0.05887569714104757, 0.0756948770431336, 0.09219593465968501, 0.10920421301852912, 0.12546702024701517, 0.14248792792204767, 0.1588585963618243, 0.17570508290373255, 0.19211978328530677, 0.2090676457155496, 0.22525706636952236, 0.24230596332927234, 0.25881726093939506, 0.2756896887876792, 0.2922395570203662, 0.3091198355105007, 0.32543486669601407, 0.34248103298887145, 0.3589032427116763, 0.375736417263397, 0.39217603496217635, 0.40905426545941737, 0.4253013713750988, 0.4424642735393718, 0.45882026467006654, 0.47573945512704086, 0.4921650781761855, 0.5091399058874231, 0.5252521853108192, 0.5423072262638016, 0.5589076117612422, 0.5756175651331432, 0.592186206675251, 0.6090012905915501, 0.6254869882250205, 0.6424109573417809, 0.6588434070436051, 0.6756823842588346, 0.6922387378144776, 0.7090606483834563, 0.7253586129081668]
