trialIndex	stimulus	left_option	right_option	response	response_time	xTrajectory	yTrajectory	tTrajectory
0	animate/a2.jpg	animate	inanimate	left	2.283	[0.0, 0.0, 0.0, 0.0, 0.0, 0.0, 0.0, 0.0, 0.0, 0.0, 0.0, 0.0, 0.0, 0.0, 0.0, 0.0, 0.0, 3.0, 9.0, 20.0, 31.0, 44.0, 60.0, 76.0, 90.0, 99.0, 106.0, 106.0, 108.0, 111.0, 113.0, 116.0, 116.0, 116.0, 116.0, 116.0, 116.0, 116.0, 116.0, 116.0, 116.0, 116.0, 116.0, 116.0, 116.0, 116.0, 116.0, 116.0, 116.0, 116.0, 116.0, 116.0, 116.0, 116.0, 116.0, 116.0, 116.0, 116.0, 116.0, 116.0, 116.0, 116.0, 116.0, 116.0, 116.0, 116.0, 110.0, 12.0, -123.0, -263.0, -377.0, -413.0, -413.0, -413.0, -413.0, -413.0, -413.0, -413.0, -413.0, -413.0, -413.0, -413.0, -413.0, -413.0, -413.0, -413.0, -413.0, -407.0, -427.0, -458.0, -507.0, -561.0, -621.0, -688.0, -754.0, -792.0, -811.0, -819.0, -825.0, -829.0, -829.0, -833.0, -838.0, -843.0, -845.0, -848.0, -848.0, -848.0, -848.0, -848.0, -848.0, -848.0, -848.0, -848.0, -848.0, -848.0, -848.0, -848.0, -847.0, -845.0, -844.0, -844.0, -844.0, -843.0, -843.0, -843.0, -843.0, -843.0, -843.0, -843.0, -843.0, -843.0, -843.0, -843.0, -843.0, -843.0, -843.0]	[-490.0, -490.0, -490.0, -490.0, -490.0, -490.0, -490.0, -487.0, -486.0, -486.0, -486.0, -484.0, -484.0, -484.0, -484.0, -484.0, -482.0, -478.0, -471.0, -457.0, -429.0, -388.0, -331.0, -279.0, -225.0, -180.0, -125.0, -92.0, -62.0, -42.0, -31.0, -26.0, -26.0, -26.0, -26.0, -26.0, -26.0, -26.0, -26.0, -26.0, -26.0, -26.0, -26.0, -26.0, -26.0, -26.0, -26.0, -26.0, -26.0, -26.0, -26.0, -26.0, -26.0, -26.0, -26.0, -26.0, -26.0, -26.0, -26.0, -26.0, -26.0, -26.0, -26.0, -26.0, -26.0, -26.0, -23.0, -15.0, 4.0, 23.0, 23.0, 21.0, 21.0, 21.0, 21.0, 21.0, 21.0, 21.0, 21.0, 21.0, 21.0, 21.0, 21.0, 21.0, 21.0, 21.0, 21.0, 59.0, 145.0, 260.0, 334.0, 405.0, 473.0, 540.0, 540.0, 540.0, 540.0, 540.0, 540.0, 540.0, 540.0, 532.0, 507.0, 478.0, 453.0, 439.0, 435.0, 434.0, 434.0, 434.0, 434.0, 434.0, 434.0, 434.0, 434.0, 434.0, 437.0, 437.0, 438.0, 440.0, 441.0, 443.0, 444.0, 444.0, 444.0, 444.0, 444.0, 444.0, 444.0, 444.0, 444.0, 444.0, 444.0, 444.0, 444.0, 444.0, 444.0]	[0.012404145149048418, 0.01776307390537113, 0.023438418400473893, 0.03979748714482412, 0.056781195278745145, 0.07373486616415903, 0.09140397107694298, 0.10701381374383345, 0.12393881264142692, 0.1401941161020659, 0.15659346210304648, 0.173707218200434, 0.18992326833540574, 0.20703497639624402, 0.22326194925699383, 0.24026955070439726, 0.2567856326350011, 0.27374920214060694, 0.29011475620791316, 0.30708208039868623, 0.3234100877889432, 0.34042110259179026, 0.35677948861848563, 0.3737587594659999, 0.3901198761886917, 0.40709607501048595, 0.42343159177107736, 0.440381507971324, 0.4568098672898486, 0.47365943156182766, 0.49010792950866744, 0.5071479576290585, 0.5232233785791323, 0.5401306281564757, 0.5573614614550024, 0.5734891063766554, 0.590306585363578, 0.6067892166320235, 0.6236715489067137, 0.6400954708806239, 0.6569815577822737, 0.6734460984007455, 0.6903239933308214, 0.7067632753169164, 0.7236046476173215, 0.7400859135668725, 0.7570385604049079, 0.7735000290558673, 0.7903489106683992, 0.8068400752381422, 0.8236951008439064, 0.8401091241976246, 0.8570569924195297, 0.8734293730813079, 0.890309316047933, 0.9066356167313643, 0.9235298956627958, 0.9399869269691408, 0.9570078404503874, 0.9734324450837448, 0.9902881533489563, 1.006766347330995, 1.0236677942448296, 1.0401193641591817, 1.0570201284135692, 1.0734836450428702, 1.0905673637753353, 1.1067683952860534, 1.1236281995661557, 1.1399551829672419, 1.1571153603726998, 1.1734235704061575, 1.1903120466740802, 1.2066301554441452, 1.2237046582158655, 1.2400869375560433, 1.257039243064355, 1.2732631438993849, 1.2901878014672548, 1.3065069342264906, 1.323722748842556, 1.3400517802219838, 1.3570839577005245, 1.3732709945761599, 1.3902011134196073, 1.406502496858593, 1.4236770102288574, 1.4401903614634648, 1.4570641603786498, 1.4735095863579772, 1.4905823824810795, 1.506574859493412, 1.5235930422786623, 1.5400937641970813, 1.5571225283201784, 1.5731703013298102, 1.5901864361367188, 1.6067639579996467, 1.6238019380834885, 1.6400644095847383, 1.6570252483943477, 1.6734850103966892, 1.6904813478467986, 1.7065977287711576, 1.7236875915550627, 1.7401067348546349, 1.7570979523588903, 1.7734211810748093, 1.7903117053792812, 1.806806965963915, 1.8237623434979469, 1.8400592895923182, 1.8570279791019857, 1.873186002660077, 1.8903977212612517, 1.9068653339054435, 1.9237254795152694, 1.940076356229838, 1.9571105816867203, 1.9734672610647976, 1.990453699894715, 2.006650976720266, 2.0237073888420127, 2.039824452425819, 2.0569238725001924, 2.07344029576052, 2.0902782547054812, 2.1068451952305622, 2.1237992074456997, 2.139999214967247, 2.1571464216685854, 2.1734833036898635, 2.190358126652427, 2.2068124272627756, 2.2236636982415803, 2.2401135615073144, 2.257067573722452]
1	inanimate/n9.jpg	inanimate	animate	left	1.011	[0.0, 0.0, 0.0, 0.0, 0.0, 0.0, 0.0, 0.0, 0.0, 0.0, 0.0, 0.0, 0.0, 0.0, 0.0, 0.0, 0.0, 0.0, 0.0, 0.0, 0.0, 0.0, 0.0, 0.0, 0.0, 0.0, 0.0, 0.0, 0.0, -29.0, -71.0, -110.0, -148.0, -193.0, -237.0, -283.0, -320.0, -351.0, -375.0, -401.0, -440.0, -468.0, -503.0, -546.0, -592.0, -629.0, -652.0, -673.0, -689.0, -697.0, -705.0, -712.0, -724.0, -734.0, -739.0, -743.0, -747.0, -748.0, -750.0, -750.0, -750.0]	[-490.0, -490.0, -490.0, -490.0, -490.0, -490.0, -490.0, -490.0, -490.0, -490.0, -490.0, -490.0, -490.0, -490.0, -490.0, -490.0, -490.0, -490.0, -490.0, -490.0, -490.0, -490.0, -490.0, -490.0, -490.0, -490.0, -490.0, -490.0, -488.0, -406.0, -311.0, -217.0, -134.0, -56.0, 14.0, 82.0, 131.0, 165.0, 184.0, 199.0, 220.0, 232.0, 245.0, 265.0, 285.0, 298.0, 305.0, 308.0, 312.0, 314.0, 319.0, 323.0, 333.0, 343.0, 351.0, 360.0, 368.0, 375.0, 377.0, 377.0, 377.0]	[0.010173226473852992, 0.01672101824078709, 0.02156419277889654, 0.03549433551961556, 0.05190119089093059, 0.06891049904515967, 0.08532691170694306, 0.1023273451719433, 0.11859152332181111, 0.1357871993095614, 0.15198515879455954, 0.16914533614180982, 0.18537094362545758, 0.2023819584865123, 0.21864545391872525, 0.23577968997415155, 0.2519800388254225, 0.26899241894716397, 0.28524465044029057, 0.30236796382814646, 0.3185942539712414, 0.3357793486211449, 0.35225822520442307, 0.36908662685891613, 0.3852269010967575, 0.402429745066911, 0.4189396830042824, 0.43579300196142867, 0.452153094636742, 0.4692644613678567, 0.4854999675299041, 0.5024980116868392, 0.5188666377216578, 0.5358196259476244, 0.5521339799743146, 0.5691774214501493, 0.5855409274809062, 0.6025017663487233, 0.6188280670903623, 0.6358500045607798, 0.6521302253240719, 0.6691064242040738, 0.6853320316877216, 0.7024519317201339, 0.718606200593058, 0.7356629540445283, 0.7518476015538909, 0.7689432670013048, 0.7856252367491834, 0.8025167849846184, 0.818841720407363, 0.8359708364587277, 0.8521500226343051, 0.8690699015278369, 0.8854634449235164, 0.9025649129762314, 0.918922275013756, 0.9358179192640819, 0.9520220227423124, 0.9690207496169023, 0.9853084796923213]
2	inanimate/n79.jpg	inanimate	animate	left	1.085	[0.0, 0.0, 0.0, 0.0, 0.0, 0.0, 0.0, 0.0, 0.0, 0.0, 0.0, 0.0, 0.0, 0.0, 0.0, 0.0, -1.0, -1.0, -1.0, -1.0, 0.0, 2.0, 4.0, 4.0, 4.0, 4.0, 4.0, 4.0, 4.0, -8.0, -43.0, -81.0, -128.0, -177.0, -231.0, -281.0, -329.0, -372.0, -414.0, -436.0, -453.0, -471.0, -488.0, -503.0, -512.0, -521.0, -528.0, -542.0, -560.0, -593.0, -625.0, -642.0, -658.0, -678.0, -701.0, -726.0, -743.0, -758.0, -768.0, -771.0, -772.0, -772.0, -772.0, -772.0, -772.0]	[-490.0, -490.0, -490.0, -490.0, -490.0, -490.0, -490.0, -490.0, -490.0, -490.0, -490.0, -490.0, -490.0, -490.0, -490.0, -490.0, -489.0, -489.0, -489.0, -489.0, -489.0, -489.0, -489.0, -489.0, -489.0, -489.0, -489.0, -489.0, -481.0, -454.0, -393.0, -327.0, -249.0, -176.0, -109.0, -50.0, 2.0, 40.0, 77.0, 94.0, 108.0, 123.0, 137.0, 149.0, 157.0, 166.0, 177.0, 193.0, 213.0, 240.0, 266.0, 279.0, 294.0, 307.0, 324.0, 345.0, 360.0, 373.0, 382.0, 385.0, 385.0, 385.0, 385.0, 385.0, 385.0]	[0.01610491215251386, 0.021602422173600644, 0.03028013207949698, 0.04729114688234404, 0.06376080750487745, 0.08072608371730894, 0.09722066164249554, 0.11415521783055738, 0.13044840923976153, 0.1473860374535434, 0.1637847007950768, 0.1806871717562899, 0.19706979242619127, 0.21404564991826192, 0.2304750332259573, 0.2473007042426616, 0.26379801280563697, 0.2807619236409664, 0.2970742297475226, 0.31406783655984327, 0.33045523590408266, 0.34740856545977294, 0.36355327704222873, 0.38051752920728177, 0.39742238947656006, 0.4137350368546322, 0.4303623933228664, 0.44742153614060953, 0.4639478580211289, 0.48076294764177874, 0.4973131628939882, 0.5139480286743492, 0.5302343934308738, 0.5474239254253916, 0.5638103007804602, 0.5806298278039321, 0.5972722028964199, 0.6139770419686101, 0.6305617318139412, 0.6474498667521402, 0.6637860661721788, 0.6807352997129783, 0.6969219952006824, 0.7139883060008287, 0.7301992361317389, 0.7473464428330772, 0.7635317730600946, 0.7806472357478924, 0.7969025392085314, 0.8139886473072693, 0.8302354174666107, 0.8475358826690353, 0.8635761463083327, 0.8808745635906234, 0.8971128003904596, 0.9139534900314175, 0.9301808041636832, 0.9473669228027575, 0.963525629020296, 0.9806929744081572, 0.9969974298146553, 1.014026535267476, 1.030331673391629, 1.0474358720821328, 1.0637720715021715]
3	animate/a45.jpg	inanimate	animate	right	1.323	[0.0, 0.0, 0.0, 0.0, 0.0, 0.0, 0.0, 0.0, 0.0, 0.0, 0.0, 0.0, 0.0, -2.0, -10.0, -20.0, -32.0, -50.0, -58.0, -86.0, -109.0, -134.0, -158.0, -179.0, -200.0, -219.0, -249.0, -292.0, -344.0, -395.0, -429.0, -453.0, -457.0, -473.0, -484.0, -499.0, -518.0, -540.0, -563.0, -589.0, -616.0, -646.0, -674.0, -706.0, -733.0, -743.0, -749.0, -753.0, -757.0, -759.0, -760.0, -760.0, -760.0, -760.0, -753.0, -735.0, -664.0, -586.0, -486.0, -372.0, -250.0, -115.0, 31.0, 169.0, 310.0, 423.0, 533.0, 619.0, 687.0, 709.0, 717.0, 718.0, 718.0, 719.0, 725.0, 737.0, 742.0, 745.0, 745.0, 745.0]	[-490.0, -490.0, -490.0, -490.0, -490.0, -490.0, -490.0, -490.0, -490.0, -490.0, -490.0, -490.0, -490.0, -488.0, -475.0, -464.0, -455.0, -444.0, -440.0, -424.0, -414.0, -396.0, -377.0, -359.0, -338.0, -312.0, -269.0, -206.0, -135.0, -74.0, -33.0, -4.0, 2.0, 25.0, 46.0, 72.0, 105.0, 138.0, 171.0, 201.0, 231.0, 264.0, 290.0, 317.0, 339.0, 348.0, 357.0, 366.0, 375.0, 381.0, 384.0, 386.0, 387.0, 389.0, 395.0, 400.0, 402.0, 402.0, 402.0, 401.0, 387.0, 387.0, 390.0, 409.0, 430.0, 444.0, 452.0, 463.0, 474.0, 482.0, 486.0, 486.0, 486.0, 486.0, 489.0, 493.0, 494.0, 494.0, 494.0, 494.0]	[0.013238363084383309, 0.01788219914305955, 0.02429038565605879, 0.04192877060268074, 0.057918858306948096, 0.07509644364472479, 0.09129815781489015, 0.10824466065969318, 0.12452658812981099, 0.14162088820012286, 0.15802603686461225, 0.17488413449609652, 0.1912732404889539, 0.20826343400403857, 0.2249501824262552, 0.2416560454876162, 0.2609328290564008, 0.27491997444303706, 0.29409299278631806, 0.30826650600647554, 0.3274992575752549, 0.3416273735347204, 0.3592862384393811, 0.37505275302100927, 0.39222590101417154, 0.4083740258938633, 0.42593458690680563, 0.44172089878702536, 0.45818509807577357, 0.47471619863063097, 0.494583829655312, 0.5079108369536698, 0.5266763036488555, 0.5412631711806171, 0.5584373431629501, 0.5748366891639307, 0.5923119169310667, 0.6079255142831244, 0.6249006891157478, 0.641172717907466, 0.6586564789758995, 0.6745134468073957, 0.6915073949494399, 0.708064436854329, 0.7249061504844576, 0.7411798859247938, 0.7582407353329472, 0.7748049452202395, 0.7916476828395389, 0.8082170127308927, 0.8250136703718454, 0.8414512456511147, 0.8583328952663578, 0.874795387906488, 0.8918091333471239, 0.9081518180901185, 0.9249501824378967, 0.9411856885999441, 0.957979615603108, 0.9747066412819549, 0.991665773501154, 1.0081125647993758, 1.0249952384037897, 1.0414887923398055, 1.0582311780308373, 1.074758182570804, 1.0916777201346122, 1.1080770661355928, 1.1250054783886299, 1.1413607924478129, 1.1585165324504487, 1.174719953269232, 1.191733357438352, 1.2081094927852973, 1.2249498410965316, 1.2414829896297306, 1.258280329988338, 1.2745940014137886, 1.291786605375819, 1.308169226103928]
4	inanimate/n19.jpg	animate	inanimate	right	1.719	[0.0, 0.0, 0.0, 0.0, 0.0, 0.0, 0.0, -1.0, -8.0, -9.0, -14.0, -18.0, -22.0, -28.0, -37.0, -50.0, -65.0, -86.0, -120.0, -154.0, -196.0, -218.0, -245.0, -280.0, -317.0, -391.0, -480.0, -543.0, -564.0, -575.0, -583.0, -591.0, -603.0, -616.0, -625.0, -630.0, -632.0, -633.0, -634.0, -637.0, -642.0, -646.0, -652.0, -656.0, -666.0, -676.0, -689.0, -698.0, -707.0, -715.0, -720.0, -723.0, -723.0, -724.0, -724.0, -724.0, -724.0, -724.0, -722.0, -700.0, -659.0, -588.0, -490.0, -358.0, -207.0, -39.0, 134.0, 389.0, 480.0, 741.0, 889.0, 959.0, 959.0, 959.0, 959.0, 959.0, 959.0, 959.0, 959.0, 959.0, 959.0, 959.0, 959.0, 959.0, 959.0, 959.0, 958.0, 955.0, 954.0, 953.0, 953.0, 952.0, 952.0, 952.0, 952.0, 951.0, 950.0, 947.0, 943.0, 939.0, 935.0, 933.0, 932.0]	[-490.0, -491.0, -491.0, -491.0, -491.0, -491.0, -491.0, -490.0, -480.0, -478.0, -466.0, -458.0, -451.0, -441.0, -430.0, -416.0, -400.0, -378.0, -351.0, -326.0, -289.0, -270.0, -243.0, -202.0, -150.0, -54.0, 48.0, 113.0, 140.0, 156.0, 173.0, 188.0, 215.0, 236.0, 250.0, 257.0, 260.0, 263.0, 269.0, 280.0, 291.0, 304.0, 316.0, 323.0, 339.0, 355.0, 370.0, 378.0, 385.0, 391.0, 394.0, 396.0, 396.0, 396.0, 396.0, 396.0, 396.0, 396.0, 396.0, 396.0, 396.0, 394.0, 394.0, 394.0, 394.0, 392.0, 392.0, 431.0, 446.0, 486.0, 507.0, 521.0, 526.0, 526.0, 526.0, 526.0, 526.0, 526.0, 526.0, 526.0, 526.0, 526.0, 526.0, 526.0, 526.0, 526.0, 522.0, 517.0, 516.0, 514.0, 514.0, 513.0, 513.0, 513.0, 512.0, 511.0, 509.0, 504.0, 499.0, 493.0, 488.0, 485.0, 483.0]	[0.012265939440112561, 0.016811471548862755, 0.02262130123563111, 0.04248790827114135, 0.05605214205570519, 0.07579859986435622, 0.08996699313865975, 0.10653052030829713, 0.1228650130215101, 0.1400047104107216, 0.15628970984835178, 0.17357106041163206, 0.18963521742261946, 0.20671893615508452, 0.2229721916373819, 0.23997501441044733, 0.25628697918727994, 0.2734785591601394, 0.28948195884004235, 0.30669367749942467, 0.32308107684366405, 0.3399214251548983, 0.3562057419330813, 0.37345842050854117, 0.3897987159434706, 0.406644866860006, 0.4230602555326186, 0.4399541931343265, 0.45626445120433345, 0.47335806861519814, 0.48971952666761354, 0.5067465841420926, 0.5230448955553584, 0.5399122091475874, 0.5564190750592388, 0.5733024313230999, 0.5898229505401105, 0.606665346887894, 0.6231117968563922, 0.6400118783931248, 0.6562296352349222, 0.6732696633553132, 0.6895010735024698, 0.7066325788618997, 0.722821322386153, 0.7399712597834878, 0.7561900406144559, 0.7733427086495794, 0.7896427267114632, 0.8066680775373243, 0.8228332690778188, 0.8400009557371959, 0.8561685366439633, 0.8731003621942364, 0.8895137028302997, 0.9066906055086292, 0.9228561383788474, 0.9396456280373968, 0.9566972614848055, 0.9730754448683001, 0.9901380009832792, 1.0065738696139306, 1.0245604142546654, 1.0397053613560274, 1.0568163867574185, 1.073054282227531, 1.090026043704711, 1.1064035444287583, 1.1234783885302022, 1.1397435906110331, 1.1570676078554243, 1.1728013544343412, 1.190364987414796, 1.2062707658624277, 1.2234903351636603, 1.2395732654258609, 1.2569061573012732, 1.2728429970447905, 1.2904499793658033, 1.3062625738675706, 1.323642228380777, 1.3395766787580214, 1.3569583812495694, 1.3729105810052715, 1.390253712888807, 1.4065742109669372, 1.4267046684399247, 1.4397231106413528, 1.45994914136827, 1.4731085541425273, 1.4931953210034408, 1.5065352989477105, 1.5265882738749497, 1.5397401772788726, 1.5586476384778507, 1.573099679488223, 1.5915903730783612, 1.6061342326574959, 1.624608883576002, 1.6397828439367004, 1.6571979970904067, 1.6731344954459928, 1.6900803156895563]
5	inanimate/n20.jpg	inanimate	animate	left	1.058	[0.0, 0.0, 0.0, 0.0, 0.0, 0.0, 0.0, 0.0, 0.0, 0.0, 0.0, 0.0, -1.0, -5.0, -7.0, -11.0, -16.0, -24.0, -38.0, -53.0, -69.0, -83.0, -93.0, -105.0, -114.0, -122.0, -146.0, -163.0, -179.0, -197.0, -223.0, -260.0, -289.0, -303.0, -319.0, -338.0, -379.0, -445.0, -529.0, -644.0, -689.0, -717.0, -741.0, -759.0, -771.0, -785.0, -797.0, -814.0, -816.0, -820.0, -822.0, -822.0, -822.0, -822.0, -822.0, -822.0, -822.0, -822.0, -822.0, -822.0, -822.0, -822.0, -822.0, -822.0]	[-490.0, -490.0, -490.0, -490.0, -490.0, -490.0, -490.0, -490.0, -484.0, -479.0, -475.0, -470.0, -465.0, -459.0, -454.0, -446.0, -438.0, -427.0, -411.0, -394.0, -381.0, -372.0, -364.0, -355.0, -347.0, -337.0, -312.0, -298.0, -287.0, -278.0, -264.0, -242.0, -221.0, -206.0, -189.0, -167.0, -111.0, -23.0, 71.0, 174.0, 214.0, 238.0, 262.0, 282.0, 304.0, 328.0, 351.0, 380.0, 384.0, 391.0, 395.0, 398.0, 403.0, 411.0, 416.0, 417.0, 417.0, 417.0, 417.0, 417.0, 417.0, 417.0, 417.0, 417.0]	[0.013603589439298958, 0.02161911327857524, 0.028216056991368532, 0.04178336274344474, 0.059368158399593085, 0.07495854509761557, 0.09212725580437109, 0.1088279988616705, 0.12543965404620394, 0.14179701608372852, 0.15886503353249282, 0.17565520585048944, 0.192009495862294, 0.2085996470414102, 0.22537241142708808, 0.2422653249814175, 0.25903399335220456, 0.2755760165746324, 0.2945114671019837, 0.308849161490798, 0.3257721124100499, 0.34172601881437004, 0.35887800419004634, 0.37492611847119406, 0.39220576238585636, 0.4090078813605942, 0.425436923338566, 0.4418024774058722, 0.45890531077748165, 0.47507323301397264, 0.4919695599237457, 0.5089983240468428, 0.5279170492431149, 0.5417461574543267, 0.558844894869253, 0.5751350143109448, 0.5920316825504415, 0.608439220522996, 0.6255031419568695, 0.6423868395504542, 0.6619885721593164, 0.6750844970229082, 0.6922084930702113, 0.708287327317521, 0.7254212220432237, 0.7422687383368611, 0.7618066416471265, 0.7750643583713099, 0.792157634452451, 0.8113606900442392, 0.825569360575173, 0.8430551696801558, 0.8589073587791063, 0.8763962398516014, 0.892293143668212, 0.9085849697585218, 0.925212326226756, 0.9450915625784546, 0.9584434871794656, 0.9769379353965633, 0.9918879813048989, 1.0093198597896844, 1.0252519208588637, 1.0421776024159044]
6	inanimate/n56.jpg	inanimate	animate	left	1.141	[0.0, 0.0, 0.0, 0.0, 0.0, 0.0, 0.0, 0.0, 0.0, 0.0, 1.0, 2.0, 5.0, 6.0, 7.0, 7.0, 7.0, 7.0, 12.0, 29.0, 52.0, 76.0, 98.0, 113.0, 123.0, 130.0, 135.0, 137.0, 139.0, 139.0, 118.0, 110.0, 81.0, 64.0, 47.0, 27.0, -11.0, -66.0, -126.0, -186.0, -245.0, -300.0, -400.0, -446.0, -561.0, -622.0, -676.0, -727.0, -763.0, -792.0, -810.0, -818.0, -821.0, -826.0, -827.0, -834.0, -844.0, -844.0, -844.0, -841.0, -838.0, -833.0, -831.0, -829.0, -827.0, -827.0, -827.0, -827.0, -827.0]	[-490.0, -490.0, -490.0, -490.0, -490.0, -490.0, -488.0, -487.0, -487.0, -485.0, -484.0, -484.0, -483.0, -483.0, -483.0, -483.0, -483.0, -483.0, -480.0, -476.0, -470.0, -468.0, -465.0, -463.0, -460.0, -458.0, -454.0, -448.0, -429.0, -403.0, -340.0, -322.0, -270.0, -245.0, -223.0, -204.0, -182.0, -151.0, -124.0, -106.0, -80.0, -52.0, 12.0, 37.0, 91.0, 104.0, 121.0, 140.0, 158.0, 180.0, 195.0, 208.0, 226.0, 262.0, 277.0, 317.0, 365.0, 380.0, 395.0, 406.0, 414.0, 422.0, 424.0, 428.0, 430.0, 430.0, 430.0, 430.0, 430.0]	[0.006620563974138349, 0.015552567027043551, 0.026454403065145016, 0.044733470131177455, 0.059792401269078255, 0.07821141491876915, 0.09309831418795511, 0.11090770701412112, 0.1264506484149024, 0.14354631380410865, 0.1596889773500152, 0.17684232804458588, 0.1932375780888833, 0.21017315826611593, 0.22663360292790458, 0.243521737807896, 0.259846331900917, 0.27685700537404045, 0.2931921807467006, 0.3101093290024437, 0.32666125090327114, 0.343468148552347, 0.35997262509772554, 0.3768320880481042, 0.3932276794221252, 0.41010932897916064, 0.42632537917234004, 0.4433575566508807, 0.4596749827032909, 0.4769416559720412, 0.49337274592835456, 0.5101294676424004, 0.5264127604314126, 0.5435923937475309, 0.5598412118852139, 0.5769426799961366, 0.5930167355691083, 0.6114886558498256, 0.626354051171802, 0.643500916485209, 0.6596971693797968, 0.6768665626877919, 0.6930416529066861, 0.7101557502755895, 0.7264584990334697, 0.7435787404538132, 0.7598620332428254, 0.7769556506536901, 0.793044724909123, 0.8101673556375317, 0.8265649949898943, 0.8435422178008594, 0.8597910359385423, 0.8770641945302486, 0.8931020688614808, 0.9099089665105566, 0.9294492591870949, 0.9434411832480691, 0.9628149053896777, 0.9769225413328968, 0.9932338233920746, 1.0100325290695764, 1.0269053039955907, 1.0435278818476945, 1.0598750038770959, 1.0765047496533953, 1.096304455481004, 1.1097983745858073, 1.1269507012912072]
7	animate/a29.jpg	inanimate	animate	right	1.183	[0.0, 0.0, 0.0, 0.0, 0.0, 0.0, 0.0, 0.0, 0.0, -2.0, -3.0, -3.0, -4.0, -5.0, -9.0, -11.0, -14.0, -22.0, -26.0, -31.0, -45.0, -71.0, -95.0, -115.0, -136.0, -163.0, -207.0, -250.0, -290.0, -334.0, -360.0, -379.0, -396.0, -410.0, -420.0, -428.0, -435.0, -444.0, -453.0, -467.0, -487.0, -523.0, -556.0, -574.0, -588.0, -599.0, -611.0, -622.0, -637.0, -648.0, -649.0, -648.0, -620.0, -506.0, -412.0, -304.0, -175.0, -8.0, 168.0, 336.0, 480.0, 593.0, 718.0, 737.0, 774.0, 774.0, 774.0, 774.0, 774.0, 774.0, 774.0]	[-490.0, -490.0, -490.0, -490.0, -490.0, -490.0, -490.0, -490.0, -490.0, -485.0, -477.0, -471.0, -465.0, -458.0, -449.0, -440.0, -431.0, -417.0, -408.0, -394.0, -364.0, -311.0, -272.0, -243.0, -218.0, -190.0, -147.0, -113.0, -80.0, -49.0, -31.0, -18.0, -4.0, 11.0, 27.0, 41.0, 54.0, 67.0, 85.0, 109.0, 141.0, 185.0, 215.0, 232.0, 244.0, 253.0, 262.0, 272.0, 285.0, 295.0, 298.0, 304.0, 312.0, 330.0, 341.0, 351.0, 368.0, 389.0, 416.0, 424.0, 424.0, 424.0, 424.0, 424.0, 422.0, 422.0, 422.0, 422.0, 422.0, 422.0, 422.0]	[0.0009093795088119805, 0.006320190848782659, 0.017001184402033687, 0.033622738206759095, 0.04996474029030651, 0.06685219256905839, 0.08613648539176211, 0.10022159339860082, 0.1186849803198129, 0.13326775189489126, 0.15104949672240764, 0.16682181390933692, 0.1840188552159816, 0.20019087340915576, 0.2173947414266877, 0.23358348495094106, 0.2503798012621701, 0.2668900805292651, 0.2837775327498093, 0.3002372946939431, 0.31700732838362455, 0.3336749621666968, 0.3505125798401423, 0.3666767473332584, 0.3837420341442339, 0.4002369533991441, 0.41700869373744354, 0.43353911163285375, 0.4504630865412764, 0.4668627738719806, 0.48380722873844206, 0.5000519508612342, 0.5172838081489317, 0.5332599012181163, 0.5504398758639582, 0.5669423044892028, 0.5837116554612294, 0.6000983721460216, 0.617016885720659, 0.6332694585435092, 0.6503811666043475, 0.6666262300568633, 0.6837717301095836, 0.6999242923338898, 0.7171076803351752, 0.7332496612216346, 0.7504641105188057, 0.7666071153944358, 0.7837891380768269, 0.7999447723268531, 0.8170622830512002, 0.8333237305050716, 0.8504473852226511, 0.8666589980130084, 0.8839007539791055, 0.9001792680937797, 0.9171448856359348, 0.9360298188403249, 0.9503798012738116, 0.9696603394695558, 0.9838106420938857, 1.0024504981702194, 1.0169735364615917, 1.0342559110140428, 1.0503917479072697, 1.0670180803863332, 1.0836130102397874, 1.1000307882204652, 1.1167823899304494, 1.134800337255001, 1.150214596069418]
8	inanimate/n75.jpg	animate	inanimate	right	1.407	[0.0, 0.0, 0.0, 0.0, 0.0, 0.0, 0.0, 0.0, 0.0, -3.0, -5.0, -7.0, -9.0, -13.0, -17.0, -24.0, -34.0, -58.0, -84.0, -117.0, -153.0, -205.0, -255.0, -332.0, -355.0, -429.0, -458.0, -481.0, -501.0, -517.0, -530.0, -542.0, -552.0, -566.0, -580.0, -598.0, -614.0, -635.0, -650.0, -664.0, -682.0, -700.0, -722.0, -745.0, -769.0, -787.0, -797.0, -797.0, -797.0, -797.0, -797.0, -797.0, -797.0, -797.0, -797.0, -797.0, -797.0, -797.0, -797.0, -797.0, -789.0, -727.0, -655.0, -558.0, -448.0, -312.0, -172.0, -13.0, 130.0, 268.0, 395.0, 503.0, 595.0, 668.0, 712.0, 753.0, 767.0, 776.0, 781.0, 788.0, 795.0, 797.0, 798.0, 798.0, 798.0]	[-490.0, -490.0, -490.0, -490.0, -490.0, -490.0, -490.0, -490.0, -490.0, -479.0, -473.0, -468.0, -462.0, -453.0, -444.0, -427.0, -409.0, -366.0, -311.0, -255.0, -199.0, -132.0, -82.0, -14.0, 6.0, 70.0, 95.0, 117.0, 137.0, 156.0, 173.0, 191.0, 209.0, 232.0, 253.0, 274.0, 291.0, 310.0, 320.0, 330.0, 341.0, 356.0, 375.0, 394.0, 417.0, 432.0, 440.0, 440.0, 440.0, 440.0, 440.0, 440.0, 440.0, 440.0, 440.0, 440.0, 440.0, 440.0, 440.0, 440.0, 440.0, 425.0, 418.0, 410.0, 410.0, 410.0, 430.0, 443.0, 443.0, 445.0, 445.0, 445.0, 445.0, 445.0, 442.0, 436.0, 435.0, 432.0, 430.0, 428.0, 426.0, 424.0, 423.0, 423.0, 423.0]	[0.0024611136177554727, 0.007304629485588521, 0.013762309332378209, 0.0311702944454737, 0.047538579150568694, 0.06430895416997373, 0.08074994280468673, 0.09781249891966581, 0.11414255428826436, 0.13108666788320988, 0.14745665923692286, 0.1644383193925023, 0.1808236707584001, 0.19766470172908157, 0.21422686357982457, 0.23116790514905006, 0.2503416060935706, 0.2644147674436681, 0.2820644163293764, 0.29777734162053093, 0.31518976407824084, 0.33114674245007336, 0.3496725933509879, 0.3643185115070082, 0.3813151903450489, 0.3978435602039099, 0.41423676221165806, 0.43115800648229197, 0.4473238806822337, 0.4643471834715456, 0.4806530042551458, 0.4975530857918784, 0.514126852969639, 0.5312825930304825, 0.5473119340022095, 0.5641137116472237, 0.5821664749528281, 0.5972452033893205, 0.6154573691892438, 0.630914636014495, 0.6482919011614285, 0.6641969969496131, 0.6817138672922738, 0.6976691390154883, 0.714869252347853, 0.7307180281495675, 0.747751229617279, 0.7639904904644936, 0.7810755745158531, 0.7974878912209533, 0.8142879622173496, 0.8308473933720961, 0.8477191443089396, 0.863975471816957, 0.8811168758547865, 0.8973738859640434, 0.9143849007668905, 0.9305681829573587, 0.9477447443059646, 0.9641396529623307, 0.9812039157841355, 0.9975899497512728, 1.0144490713719279, 1.030926241306588, 1.0477816083002836, 1.0641505756648257, 1.080981366627384, 1.097228819387965, 1.1144087940920144, 1.1306088016135618, 1.147741672291886, 1.1639109598472714, 1.1810998091823421, 1.1972424727282487, 1.2143538394593634, 1.2305876389727928, 1.2478041362483054, 1.2640642183832824, 1.281109366507735, 1.2972605634131469, 1.3144316634279676, 1.3306152869481593, 1.347770344291348, 1.3640812850208022, 1.3811503264587373]
9	animate/a55.jpg	animate	inanimate	left	1.392	[0.0, 0.0, 0.0, 0.0, 0.0, 0.0, 0.0, 0.0, 0.0, 0.0, 0.0, 0.0, 0.0, 0.0, 0.0, -3.0, -9.0, -19.0, -31.0, -47.0, -69.0, -95.0, -115.0, -141.0, -165.0, -199.0, -226.0, -256.0, -286.0, -367.0, -424.0, -468.0, -495.0, -514.0, -538.0, -564.0, -588.0, -610.0, -627.0, -641.0, -655.0, -670.0, -680.0, -691.0, -699.0, -708.0, -713.0, -715.0, -715.0, -715.0, -715.0, -715.0, -711.0, -709.0, -707.0, -707.0, -706.0, -706.0, -706.0, -706.0, -706.0, -694.0, -661.0, -646.0, -583.0, -530.0, -484.0, -455.0, -441.0, -441.0, -441.0, -441.0, -442.0, -461.0, -503.0, -563.0, -639.0, -744.0, -787.0, -814.0, -819.0, -819.0, -819.0, -819.0]	[-490.0, -490.0, -490.0, -490.0, -490.0, -490.0, -490.0, -490.0, -490.0, -490.0, -490.0, -490.0, -490.0, -490.0, -490.0, -485.0, -478.0, -471.0, -465.0, -457.0, -448.0, -437.0, -422.0, -400.0, -380.0, -346.0, -316.0, -277.0, -233.0, -111.0, -34.0, 21.0, 58.0, 86.0, 119.0, 155.0, 191.0, 219.0, 240.0, 257.0, 272.0, 292.0, 306.0, 321.0, 334.0, 347.0, 353.0, 355.0, 355.0, 355.0, 357.0, 363.0, 378.0, 384.0, 388.0, 390.0, 391.0, 391.0, 391.0, 391.0, 393.0, 400.0, 417.0, 423.0, 443.0, 452.0, 458.0, 459.0, 459.0, 459.0, 459.0, 459.0, 458.0, 453.0, 448.0, 448.0, 448.0, 444.0, 444.0, 444.0, 444.0, 444.0, 444.0, 444.0]	[0.006426004110835493, 0.012349156371783465, 0.02779208723222837, 0.044672712800092995, 0.06146049581002444, 0.07800661504734308, 0.09518044569995254, 0.11095003224909306, 0.12818257219623774, 0.14448805165011436, 0.1615004317718558, 0.1777956712176092, 0.19482409401098266, 0.21127122663892806, 0.22814741492038593, 0.2446378968306817, 0.2614963357918896, 0.2779366417671554, 0.29483296867692843, 0.3113661172101274, 0.32825664145639166, 0.34442524635232985, 0.3613584372214973, 0.37774071656167507, 0.39468448876868933, 0.41107325349003077, 0.4281453668954782, 0.444398281048052, 0.4614263625117019, 0.4777509566047229, 0.4947411500615999, 0.5110589175019413, 0.528220460168086, 0.5443778010667302, 0.5616192157031037, 0.5776878099422902, 0.5948510593152605, 0.6110217121895403, 0.6281460495665669, 0.6443566384259611, 0.6615359304123558, 0.677714433928486, 0.6948493526433595, 0.7110118135460652, 0.7282136335270479, 0.7443487877608277, 0.7614857544540428, 0.777738327276893, 0.7949401472578757, 0.8110340001876466, 0.8282010041875765, 0.8446426754817367, 0.8613700425485149, 0.8778321938589215, 0.8947377367294393, 0.9142490160884336, 0.9281829135725275, 0.9472880066023208, 0.9615775730344467, 0.9802024104865268, 0.9948906539357267, 1.01389232306974, 1.0281194255803712, 1.0470511214225553, 1.0613884745398536, 1.0792207366321236, 1.0949165952624753, 1.1138715017586946, 1.1281518522300757, 1.1450478378101252, 1.1614796104840934, 1.1777089725947008, 1.1945906222099438, 1.2111343520809896, 1.2279395430814475, 1.2445645102416165, 1.2613212319556624, 1.2779147964320146, 1.2945380569435656, 1.3118429594906047, 1.327894487127196, 1.344839283323381, 1.3612707146676257, 1.3781247162842192]
10	animate/a33.jpg	animate	inanimate	left	0.896	[0.0, 0.0, 0.0, 0.0, 0.0, 0.0, 0.0, -2.0, -3.0, -3.0, -4.0, -4.0, -4.0, -4.0, -4.0, -4.0, -4.0, -4.0, -4.0, -4.0, -5.0, -8.0, -10.0, -15.0, -21.0, -25.0, -29.0, -31.0, -40.0, -69.0, -133.0, -178.0, -209.0, -250.0, -294.0, -358.0, -418.0, -481.0, -536.0, -593.0, -641.0, -715.0, -736.0, -770.0, -785.0, -791.0, -793.0, -795.0, -797.0, -797.0, -797.0, -797.0, -797.0, -797.0]	[-490.0, -490.0, -490.0, -490.0, -490.0, -490.0, -489.0, -478.0, -473.0, -469.0, -468.0, -467.0, -466.0, -466.0, -464.0, -461.0, -460.0, -452.0, -444.0, -435.0, -421.0, -405.0, -387.0, -365.0, -346.0, -328.0, -313.0, -293.0, -266.0, -184.0, -67.0, -11.0, 24.0, 64.0, 104.0, 157.0, 200.0, 243.0, 271.0, 300.0, 327.0, 369.0, 381.0, 401.0, 413.0, 419.0, 422.0, 426.0, 432.0, 433.0, 433.0, 433.0, 433.0, 433.0]	[0.012661168933846056, 0.018228652188554406, 0.023245223914273083, 0.04043816920602694, 0.057024907087907195, 0.07380279141943902, 0.09019531076774001, 0.10716400027740747, 0.12355276494054124, 0.14055422245291993, 0.15699964843224734, 0.17389153799740598, 0.19290344713954255, 0.20724899222841486, 0.2264639944769442, 0.2404545532190241, 0.2596241581486538, 0.2738300980417989, 0.2929519164026715, 0.3071401069755666, 0.32655239972518757, 0.34043987590121105, 0.35948967293370515, 0.3737399861565791, 0.39074110228102654, 0.4072387522319332, 0.4241292764781974, 0.4405378384399228, 0.4572245868621394, 0.47404138318961486, 0.49036222259746864, 0.5069755844306201, 0.5269206980592571, 0.5403251879615709, 0.5597320194356143, 0.5733945571118966, 0.591993453213945, 0.6068649925291538, 0.6242060763761401, 0.6403296252829023, 0.6573587307939306, 0.6736440715612844, 0.6905226491508074, 0.7071213336312212, 0.7238394847372547, 0.7403313319664448, 0.7572338028694503, 0.7736850315122865, 0.7904567718505859, 0.8069731951109134, 0.8238493833923712, 0.8401323347934522, 0.8572095682611689, 0.8737065354944207]
11	inanimate/n64.jpg	animate	inanimate	right	1.432	[0.0, 0.0, 0.0, 0.0, 0.0, 0.0, 0.0, 0.0, 0.0, 0.0, -1.0, -4.0, -7.0, -10.0, -12.0, -16.0, -22.0, -27.0, -33.0, -43.0, -52.0, -67.0, -84.0, -105.0, -133.0, -150.0, -166.0, -178.0, -194.0, -219.0, -253.0, -292.0, -342.0, -357.0, -393.0, -407.0, -451.0, -482.0, -507.0, -526.0, -539.0, -548.0, -551.0, -552.0, -554.0, -558.0, -581.0, -603.0, -620.0, -626.0, -628.0, -628.0, -622.0, -609.0, -590.0, -555.0, -503.0, -415.0, -240.0, -173.0, 41.0, 186.0, 324.0, 457.0, 557.0, 636.0, 682.0, 708.0, 714.0, 715.0, 715.0, 715.0, 715.0, 715.0, 715.0, 718.0, 723.0, 730.0, 741.0, 752.0, 760.0, 763.0, 765.0, 768.0, 769.0, 769.0, 769.0]	[-490.0, -490.0, -490.0, -490.0, -490.0, -490.0, -490.0, -490.0, -490.0, -490.0, -491.0, -484.0, -481.0, -476.0, -473.0, -467.0, -459.0, -454.0, -448.0, -440.0, -432.0, -424.0, -415.0, -401.0, -386.0, -377.0, -368.0, -359.0, -346.0, -330.0, -306.0, -278.0, -235.0, -222.0, -187.0, -169.0, -115.0, -76.0, -42.0, -14.0, 7.0, 23.0, 35.0, 48.0, 63.0, 80.0, 148.0, 188.0, 217.0, 233.0, 241.0, 246.0, 262.0, 280.0, 295.0, 315.0, 338.0, 358.0, 382.0, 382.0, 382.0, 382.0, 366.0, 346.0, 332.0, 321.0, 314.0, 311.0, 309.0, 309.0, 309.0, 309.0, 309.0, 309.0, 309.0, 309.0, 313.0, 319.0, 328.0, 338.0, 346.0, 351.0, 354.0, 357.0, 360.0, 360.0, 360.0]	[0.010612487967591733, 0.019889237417373806, 0.02466858265688643, 0.03604009293485433, 0.053417358139995486, 0.06941563781583682, 0.08671166573185474, 0.10300827049650252, 0.12006809591548517, 0.13633841805858538, 0.1533818594762124, 0.16959756833966821, 0.18665261508431286, 0.20322057965677232, 0.22010291187325493, 0.23660499916877598, 0.25331973686115816, 0.2695770883583464, 0.2866932337055914, 0.3029021159163676, 0.3200541012920439, 0.33626503142295405, 0.35339278215542436, 0.36957469902699813, 0.3866324764676392, 0.40291986521333456, 0.4200100693269633, 0.4363401246955618, 0.4534398860996589, 0.4696951895602979, 0.4867017670767382, 0.502949902554974, 0.5199264427064918, 0.5363015540642664, 0.5533955128048547, 0.5698429867625237, 0.5866126791224815, 0.6031727929948829, 0.6200168959912844, 0.6363247646950185, 0.6532569315750152, 0.6726282644085586, 0.6867178097018041, 0.7054569937172346, 0.7199926613247953, 0.7376132969511673, 0.753409507451579, 0.77034611167619, 0.7866164338192903, 0.8033618915360421, 0.8198001494747587, 0.8364995272131637, 0.8531507769948803, 0.8727347602834925, 0.8865037938812748, 0.904406029265374, 0.91968341358006, 0.937927323335316, 0.9530217531137168, 0.97018431982724, 0.9863208393799141, 1.0035625953460112, 1.0196564482757822, 1.0367073990637437, 1.0529101372230798, 1.0701798825175501, 1.08647170860786, 1.1033622328541242, 1.119831552146934, 1.136666780395899, 1.1531832036562264, 1.170063487952575, 1.1864775112480856, 1.2035008140373975, 1.219807317480445, 1.2367292443523183, 1.2529647505143657, 1.2699897600105032, 1.2864310899749398, 1.3032741689239629, 1.319874901440926, 1.3366278684698045, 1.3530859237653203, 1.3700160426087677, 1.3862727114465088, 1.4034574647666886, 1.4195741870207712]
12	inanimate/n43.jpg	inanimate	animate	left	0.887	[0.0, 0.0, 0.0, 0.0, 0.0, 0.0, 1.0, 1.0, 1.0, 1.0, 1.0, 1.0, 1.0, 1.0, 1.0, -7.0, -16.0, -33.0, -51.0, -68.0, -81.0, -95.0, -130.0, -145.0, -175.0, -238.0, -367.0, -425.0, -455.0, -475.0, -496.0, -511.0, -528.0, -543.0, -555.0, -563.0, -568.0, -571.0, -579.0, -584.0, -590.0, -594.0, -600.0, -608.0, -624.0, -644.0, -673.0, -706.0, -714.0, -728.0, -736.0, -736.0, -736.0, -736.0]	[-490.0, -490.0, -490.0, -490.0, -490.0, -490.0, -489.0, -485.0, -479.0, -475.0, -472.0, -472.0, -472.0, -471.0, -466.0, -454.0, -443.0, -429.0, -416.0, -402.0, -385.0, -362.0, -306.0, -280.0, -227.0, -127.0, 27.0, 83.0, 110.0, 131.0, 157.0, 178.0, 203.0, 224.0, 240.0, 252.0, 263.0, 275.0, 295.0, 307.0, 316.0, 322.0, 328.0, 333.0, 342.0, 354.0, 371.0, 392.0, 396.0, 404.0, 408.0, 408.0, 408.0, 408.0]	[0.011669937695842236, 0.017193047679029405, 0.021686355816200376, 0.035867378406692296, 0.05200799397425726, 0.06921220326330513, 0.08531834423774853, 0.10267956671305001, 0.11927176592871547, 0.13582437043078244, 0.15225375373847783, 0.16919445397797972, 0.18590987438801676, 0.202751929347869, 0.21876454498851672, 0.23586771974805743, 0.25255515082972124, 0.2692814939073287, 0.2854862800450064, 0.3025232361978851, 0.3190618460648693, 0.33606057293945923, 0.35215681517729536, 0.36916953668696806, 0.38544258946785703, 0.4025723881786689, 0.41876249702181667, 0.43586806108942255, 0.4520793325500563, 0.4692634032689966, 0.4853988988325, 0.5025502014905214, 0.5187706889701076, 0.5358769357553683, 0.5520926445606165, 0.5692248326377012, 0.5854562427848577, 0.6026092521497048, 0.6188003849820234, 0.6359738743049093, 0.6524442175868899, 0.6691743153496645, 0.6855978959938511, 0.7025973054696806, 0.7218553157290444, 0.7358250531251542, 0.7545444397837855, 0.7691432540304959, 0.7858648184337653, 0.8025618068058975, 0.8187880970072001, 0.8357277731993236, 0.8552533885231242, 0.868911488854792]
13	inanimate/n70.jpg	animate	inanimate	right	1.328	[0.0, 0.0, 0.0, 0.0, 0.0, 0.0, 0.0, 0.0, 0.0, -4.0, -6.0, -9.0, -13.0, -16.0, -22.0, -30.0, -40.0, -50.0, -57.0, -61.0, -69.0, -78.0, -87.0, -109.0, -138.0, -172.0, -219.0, -292.0, -371.0, -454.0, -514.0, -555.0, -599.0, -626.0, -657.0, -682.0, -699.0, -709.0, -715.0, -719.0, -719.0, -719.0, -720.0, -722.0, -722.0, -722.0, -722.0, -722.0, -722.0, -722.0, -722.0, -722.0, -720.0, -692.0, -680.0, -620.0, -538.0, -421.0, -274.0, -91.0, 125.0, 351.0, 548.0, 710.0, 832.0, 922.0, 959.0, 959.0, 959.0, 959.0, 959.0, 959.0, 959.0, 959.0, 959.0, 959.0, 958.0, 958.0, 958.0, 958.0]	[-490.0, -490.0, -490.0, -490.0, -490.0, -490.0, -490.0, -490.0, -487.0, -479.0, -473.0, -466.0, -461.0, -456.0, -450.0, -442.0, -432.0, -422.0, -415.0, -407.0, -389.0, -368.0, -342.0, -303.0, -252.0, -196.0, -123.0, -32.0, 47.0, 116.0, 173.0, 211.0, 259.0, 293.0, 335.0, 369.0, 389.0, 402.0, 411.0, 419.0, 424.0, 430.0, 435.0, 438.0, 444.0, 444.0, 444.0, 444.0, 444.0, 444.0, 444.0, 444.0, 445.0, 447.0, 447.0, 453.0, 454.0, 458.0, 469.0, 491.0, 493.0, 493.0, 493.0, 479.0, 459.0, 442.0, 434.0, 429.0, 429.0, 429.0, 429.0, 429.0, 429.0, 428.0, 426.0, 422.0, 420.0, 420.0, 420.0, 420.0]	[0.012422918400261551, 0.017401260847691447, 0.023089917318429798, 0.0397483350825496, 0.05646273150341585, 0.07344302634010091, 0.0897150551318191, 0.10676464054267853, 0.12311858928296715, 0.1401852413546294, 0.15636852354509756, 0.17339114373316988, 0.18963006319245324, 0.2067550832289271, 0.22293973073828965, 0.24009205744368955, 0.2562941129435785, 0.2734877409529872, 0.2896201645489782, 0.30681310984073207, 0.32297830138122663, 0.3402596520027146, 0.3563296116190031, 0.3735850208904594, 0.3897730817552656, 0.4066717979731038, 0.4230093627120368, 0.44005758280400187, 0.4565391900832765, 0.4734676023363136, 0.4896498604794033, 0.5066871579620056, 0.5230916239670478, 0.5402173266629688, 0.5565828807302751, 0.5736389515222982, 0.5924757567699999, 0.6067946778493933, 0.6246037293458357, 0.640157934743911, 0.6574938985868357, 0.6734600929776207, 0.6902577746659517, 0.7067844378761947, 0.7229987813625485, 0.7398090923670679, 0.7592691717436537, 0.773181906552054, 0.7930369082605466, 0.806532192742452, 0.8259612108813599, 0.8396292098332196, 0.8594569049309939, 0.8729259067913517, 0.8916893254499882, 0.9065704220556654, 0.9246559533057734, 0.9397910017287359, 0.957239605486393, 0.9732566584716551, 0.990194286685437, 1.006518880778458, 1.0235449142637663, 1.0397322924109176, 1.0567334085935727, 1.0730781413149089, 1.0901362600852735, 1.1065789553686045, 1.123497468943242, 1.139959278923925, 1.1567695898702368, 1.1732331064995378, 1.1901785854133777, 1.2065659847576171, 1.2234554850147106, 1.2399121749331243, 1.2567559365998022, 1.2731904399115592, 1.2901461587753147, 1.3065905607072636]
14	animate/a62.jpg	inanimate	animate	left	0.825	[0.0, 0.0, 0.0, 0.0, 0.0, 0.0, 0.0, 0.0, 2.0, 3.0, 3.0, 3.0, 3.0, 3.0, 3.0, 3.0, 3.0, -3.0, -17.0, -34.0, -50.0, -58.0, -70.0, -83.0, -97.0, -119.0, -140.0, -165.0, -197.0, -249.0, -325.0, -405.0, -476.0, -555.0, -602.0, -648.0, -683.0, -714.0, -747.0, -770.0, -789.0, -800.0, -805.0, -806.0, -806.0, -806.0, -806.0, -806.0, -806.0, -806.0]	[-490.0, -490.0, -490.0, -490.0, -490.0, -490.0, -490.0, -490.0, -490.0, -490.0, -490.0, -490.0, -490.0, -490.0, -490.0, -490.0, -490.0, -484.0, -474.0, -465.0, -455.0, -450.0, -437.0, -419.0, -393.0, -356.0, -319.0, -274.0, -218.0, -107.0, 11.0, 113.0, 193.0, 279.0, 324.0, 363.0, 394.0, 419.0, 441.0, 458.0, 475.0, 487.0, 495.0, 497.0, 497.0, 497.0, 497.0, 497.0, 497.0, 497.0]	[0.015013977594207972, 0.020595455483999103, 0.028036515810526907, 0.0450560639728792, 0.06151172990212217, 0.07854595535900444, 0.09480330685619265, 0.11186552158324048, 0.1283399608801119, 0.14519089047098532, 0.16165440710028633, 0.17854015273042023, 0.19497363199479878, 0.21186518028844148, 0.22829797689337283, 0.24520898115588352, 0.2616468977648765, 0.27854766201926395, 0.29499411198776215, 0.31190579890972003, 0.32808635040419176, 0.3451448105624877, 0.36162436980521306, 0.37857906467979774, 0.3950347306090407, 0.41186313226353377, 0.42827408359153196, 0.44521137047559023, 0.4616899057291448, 0.4784862220985815, 0.4949405227089301, 0.5118730309186503, 0.5281645156792365, 0.5452588157495484, 0.5614666739711538, 0.5785473206778988, 0.5948186668101698, 0.6118754202616401, 0.6280563131440431, 0.6452274131588638, 0.661410695349332, 0.678502606053371, 0.6947244589100592, 0.7119976175017655, 0.7280894224531949, 0.7452455037855543, 0.7614591646124609, 0.7784688140964136, 0.7947060269070789, 0.811510193918366]
15	animate/a40.jpg	animate	inanimate	left	0.961	[0.0, 0.0, 0.0, 0.0, 0.0, 0.0, 0.0, -2.0, -3.0, -6.0, -13.0, -18.0, -21.0, -23.0, -24.0, -29.0, -32.0, -45.0, -55.0, -65.0, -76.0, -90.0, -101.0, -107.0, -112.0, -119.0, -132.0, -157.0, -192.0, -273.0, -335.0, -379.0, -404.0, -433.0, -463.0, -485.0, -503.0, -520.0, -532.0, -551.0, -560.0, -597.0, -618.0, -630.0, -642.0, -653.0, -662.0, -670.0, -675.0, -679.0, -683.0, -683.0, -684.0, -687.0, -690.0, -693.0, -694.0, -696.0]	[-490.0, -490.0, -490.0, -490.0, -490.0, -490.0, -490.0, -481.0, -474.0, -464.0, -452.0, -442.0, -436.0, -433.0, -431.0, -423.0, -419.0, -402.0, -390.0, -379.0, -368.0, -354.0, -339.0, -324.0, -303.0, -279.0, -245.0, -188.0, -112.0, 42.0, 109.0, 150.0, 174.0, 198.0, 227.0, 250.0, 275.0, 299.0, 322.0, 355.0, 371.0, 421.0, 451.0, 466.0, 475.0, 480.0, 484.0, 488.0, 488.0, 488.0, 488.0, 488.0, 488.0, 485.0, 480.0, 474.0, 471.0, 469.0]	[0.002738583250902593, 0.00757117650937289, 0.02283217682270333, 0.03732278844108805, 0.05619133764412254, 0.07070379459764808, 0.08745607896707952, 0.10414248605957255, 0.12013974174624309, 0.13705893798032776, 0.15367639582837, 0.1703184295911342, 0.19020142062800005, 0.20372776640579104, 0.22322129644453526, 0.23706678865710273, 0.25647020677570254, 0.27012591779930517, 0.28904805629281327, 0.30380627303384244, 0.3215293085668236, 0.3371074072783813, 0.35402284882729873, 0.37040649354457855, 0.3873598230420612, 0.4037066037999466, 0.4205831334111281, 0.43705450068227947, 0.4539368328987621, 0.4705515600508079, 0.48728916712570935, 0.5034946359810419, 0.5207135226228274, 0.5369456154294312, 0.5539501449093223, 0.570183944364544, 0.5872625431511551, 0.6037246944615617, 0.6219215002493002, 0.6370527939870954, 0.6539184009307064, 0.6704607654828578, 0.6872840471332893, 0.7039209609501995, 0.7206063440535218, 0.7368251248844899, 0.7539542409358546, 0.7702781523112208, 0.7872454765019938, 0.803480300004594, 0.8206780239706859, 0.8368268315098248, 0.8539245449355803, 0.8702378750313073, 0.8873564097448252, 0.9036489184945822, 0.9207831545500085, 0.9368527728365734]
16	inanimate/n10.jpg	inanimate	animate	left	1.062	[0.0, 0.0, 0.0, 0.0, 0.0, 0.0, 0.0, 0.0, 0.0, 0.0, -2.0, -7.0, -12.0, -18.0, -24.0, -30.0, -36.0, -53.0, -65.0, -78.0, -92.0, -103.0, -113.0, -124.0, -134.0, -147.0, -164.0, -186.0, -207.0, -256.0, -287.0, -307.0, -330.0, -358.0, -387.0, -411.0, -440.0, -472.0, -500.0, -528.0, -564.0, -620.0, -658.0, -681.0, -698.0, -705.0, -709.0, -711.0, -713.0, -713.0, -713.0, -713.0, -713.0, -713.0, -713.0, -713.0, -713.0, -711.0, -707.0, -701.0, -699.0, -699.0, -699.0, -699.0]	[-490.0, -490.0, -490.0, -490.0, -490.0, -490.0, -487.0, -478.0, -470.0, -462.0, -453.0, -443.0, -434.0, -425.0, -418.0, -412.0, -407.0, -395.0, -386.0, -377.0, -367.0, -354.0, -341.0, -325.0, -308.0, -284.0, -255.0, -216.0, -179.0, -93.0, -54.0, -26.0, 1.0, 31.0, 68.0, 104.0, 139.0, 178.0, 215.0, 245.0, 279.0, 339.0, 376.0, 395.0, 410.0, 419.0, 424.0, 429.0, 434.0, 434.0, 436.0, 437.0, 437.0, 437.0, 439.0, 439.0, 440.0, 440.0, 441.0, 443.0, 443.0, 443.0, 443.0, 443.0]	[0.007248685054946691, 0.013335677154827863, 0.020540535042528063, 0.02957903395872563, 0.04879574291408062, 0.06315767200430855, 0.07989562040893361, 0.0963130570598878, 0.11303325608605519, 0.1299183190567419, 0.14694503514328972, 0.16334062651731074, 0.17975840449798852, 0.19647655554581434, 0.21287385356845334, 0.22963194060139358, 0.24665660876780748, 0.2628084882744588, 0.28080766228958964, 0.2963680116808973, 0.3133425038540736, 0.3294735620729625, 0.346668214071542, 0.3630037307739258, 0.37980892177438363, 0.39636220899410546, 0.4132527332403697, 0.4297722284682095, 0.4465866354876198, 0.4630518587655388, 0.47993453236995265, 0.49643149960320443, 0.5133407971588895, 0.5294418181292713, 0.5465647901291959, 0.5630368401180021, 0.5799785642884672, 0.5961324918316677, 0.61325853591552, 0.6296756312367506, 0.6464862835709937, 0.6630467387731187, 0.6798870870261453, 0.6963584543555044, 0.7133319225395098, 0.7295350020285696, 0.746526219532825, 0.7630757520673797, 0.7799051777110435, 0.7962365984567441, 0.8131831013015471, 0.8295090607134625, 0.8465763955027796, 0.8627886909525841, 0.8799591083079576, 0.8961318092187867, 0.9134097464266233, 0.9294810714200139, 0.9465787847875617, 0.9627883496577851, 0.9799894869793206, 0.9961031372076832, 1.01330154389143, 1.029531588719692]
17	animate/a79.jpg	inanimate	animate	right	1.719	[0.0, 0.0, 0.0, 0.0, 0.0, 0.0, 0.0, 0.0, 0.0, 0.0, 2.0, 3.0, 10.0, 19.0, 28.0, 34.0, 35.0, 35.0, 35.0, 35.0, 36.0, 38.0, 77.0, 142.0, 190.0, 204.0, 205.0, 187.0, 179.0, 179.0, 179.0, 179.0, 179.0, 179.0, 179.0, 179.0, 179.0, 179.0, 179.0, 179.0, 179.0, 179.0, 179.0, 179.0, 179.0, 179.0, 179.0, 178.0, 174.0, 168.0, 159.0, 154.0, 151.0, 146.0, 133.0, 104.0, 71.0, 32.0, 2.0, -22.0, -34.0, -39.0, -40.0, -40.0, -32.0, -13.0, 18.0, 71.0, 168.0, 258.0, 355.0, 453.0, 537.0, 594.0, 627.0, 641.0, 644.0, 644.0, 644.0, 645.0, 645.0, 639.0, 636.0, 636.0, 635.0, 634.0, 633.0, 633.0, 633.0, 645.0, 664.0, 683.0, 709.0, 726.0, 743.0, 754.0, 760.0, 763.0, 764.0, 764.0, 764.0, 764.0, 764.0]	[-490.0, -490.0, -490.0, -490.0, -490.0, -485.0, -482.0, -473.0, -472.0, -472.0, -469.0, -468.0, -468.0, -465.0, -464.0, -464.0, -464.0, -464.0, -464.0, -464.0, -464.0, -464.0, -475.0, -505.0, -538.0, -539.0, -529.0, -460.0, -396.0, -396.0, -396.0, -396.0, -396.0, -396.0, -396.0, -396.0, -396.0, -396.0, -396.0, -396.0, -396.0, -396.0, -396.0, -396.0, -396.0, -396.0, -396.0, -395.0, -395.0, -393.0, -367.0, -341.0, -318.0, -299.0, -274.0, -231.0, -193.0, -158.0, -137.0, -120.0, -111.0, -107.0, -106.0, -104.0, -99.0, -92.0, -78.0, -59.0, -24.0, 8.0, 46.0, 83.0, 105.0, 120.0, 125.0, 127.0, 128.0, 128.0, 128.0, 134.0, 138.0, 156.0, 164.0, 167.0, 170.0, 178.0, 190.0, 204.0, 216.0, 234.0, 258.0, 277.0, 306.0, 322.0, 342.0, 358.0, 373.0, 385.0, 392.0, 395.0, 395.0, 395.0, 395.0]	[7.079244824126363e-05, 0.005509934504516423, 0.014735483971890062, 0.03207383712287992, 0.04874522559111938, 0.06512989429756999, 0.08202758652623743, 0.10126648208824918, 0.11541303002741188, 0.13233563961694017, 0.14835678861709312, 0.16530465678079054, 0.18195590656250715, 0.1987979615223594, 0.21498021972365677, 0.23200181586435065, 0.24820045806700364, 0.2653575633885339, 0.28152719227364287, 0.29870477761141956, 0.31491434248164296, 0.3320123971789144, 0.3482168420450762, 0.3653869180707261, 0.381550402904395, 0.39873071893816814, 0.4149279957637191, 0.4320567704853602, 0.44821991404751316, 0.4653944273595698, 0.48183882934972644, 0.4986249057110399, 0.5149986517499201, 0.5321205997606739, 0.5483875085483305, 0.565280080831144, 0.5845264857052825, 0.5985791670391336, 0.617919779906515, 0.6319748505484313, 0.6513332127360627, 0.665339814091567, 0.6842247472959571, 0.6986423136550002, 0.7180416358169168, 0.7320055705495179, 0.7493077424587682, 0.7653643900994211, 0.7820282691973262, 0.7986610869993456, 0.8150194730260409, 0.8320786157855764, 0.8483052473166026, 0.8650476330076344, 0.8838605449418537, 0.8981886820401996, 0.9167834821855649, 0.9317819973803125, 0.9491527772624977, 0.9652524328557774, 0.9826218473608606, 0.9984361485112458, 1.0165097331046127, 1.0318390000029467, 1.0487547829397954, 1.0652278568595648, 1.0819384985952638, 1.0982129166950472, 1.1154683259665035, 1.1318202267284505, 1.148832606850192, 1.1652957821497694, 1.1820013038814068, 1.1982979086460546, 1.2152676221448928, 1.2317598107620142, 1.2486479457002133, 1.265115899615921, 1.282016322540585, 1.2984317112131976, 1.3153225767891854, 1.3318089626845904, 1.348676276335027, 1.365280422149226, 1.3819955012295395, 1.3984269325155765, 1.4152754727983847, 1.4318110106978565, 1.4486557963537052, 1.465168806258589, 1.4820497731561773, 1.498491785780061, 1.5151655635563657, 1.5316386375343427, 1.5486878816154785, 1.56493772380054, 1.5820477251545526, 1.5981678607640788, 1.615379579423461, 1.6315242909477092, 1.648679348290898, 1.6648776491638273, 1.6820275865029544]
18	inanimate/n16.jpg	inanimate	animate	left	0.971	[0.0, 0.0, 0.0, 0.0, 0.0, 0.0, 0.0, 0.0, 0.0, 0.0, 0.0, 0.0, 0.0, 0.0, 0.0, 0.0, 0.0, 0.0, 0.0, -2.0, -3.0, -5.0, -5.0, 11.0, 27.0, 38.0, 38.0, 38.0, 0.0, -51.0, -125.0, -203.0, -290.0, -382.0, -445.0, -492.0, -521.0, -543.0, -555.0, -564.0, -577.0, -590.0, -601.0, -610.0, -618.0, -631.0, -651.0, -671.0, -686.0, -694.0, -699.0, -702.0, -702.0, -702.0, -702.0, -702.0, -702.0, -702.0]	[-490.0, -490.0, -490.0, -490.0, -490.0, -490.0, -490.0, -490.0, -490.0, -490.0, -490.0, -490.0, -485.0, -481.0, -470.0, -467.0, -457.0, -451.0, -443.0, -433.0, -422.0, -408.0, -381.0, -299.0, -214.0, -140.0, -62.0, 1.0, 83.0, 138.0, 191.0, 227.0, 251.0, 276.0, 288.0, 295.0, 297.0, 297.0, 297.0, 297.0, 293.0, 289.0, 287.0, 286.0, 286.0, 294.0, 315.0, 339.0, 358.0, 372.0, 383.0, 389.0, 390.0, 390.0, 390.0, 390.0, 390.0, 390.0]	[0.006971454306039959, 0.012528356222901493, 0.026901207922492176, 0.044308510434348136, 0.06019619823200628, 0.0776622099801898, 0.09380384953692555, 0.1112729333108291, 0.1270797251490876, 0.14712143602082506, 0.16046789928805083, 0.1807898446568288, 0.1935553590883501, 0.21375408314634115, 0.22686400264501572, 0.2470248387544416, 0.2602166782016866, 0.2803515730192885, 0.29380009486339986, 0.31166990363271907, 0.3268472773488611, 0.3465817885007709, 0.36025593150407076, 0.378584491845686, 0.3937816628604196, 0.41123367997352034, 0.42715345305623487, 0.44397400406887755, 0.46043308335356414, 0.4773365782457404, 0.4937751775723882, 0.5106916431104764, 0.5268817519536242, 0.5439606920699589, 0.5604313766816631, 0.5774065515142865, 0.5938707508030348, 0.6106390778440982, 0.6271735916961916, 0.6440682119573466, 0.6604849659488536, 0.6773471595952287, 0.6938072628690861, 0.7107541070436127, 0.726927490613889, 0.7439606920816004, 0.7604313766933046, 0.7773966528475285, 0.7937942921998911, 0.8106636538286693, 0.8271421890822239, 0.8440037000109442, 0.8604528806754388, 0.8773843648959883, 0.893839348165784, 0.9106551205040887, 0.9271339970873669, 0.9439781000255607]
19	inanimate/n35.jpg	inanimate	animate	left	3.165	[0.0, 0.0, 0.0, 2.0, 3.0, 4.0, 6.0, 6.0, 7.0, 7.0, 7.0, 7.0, 7.0, 7.0, 9.0, 9.0, 9.0, 9.0, 9.0, 9.0, 9.0, 9.0, 9.0, 9.0, 9.0, 9.0, 9.0, 9.0, 9.0, 9.0, 8.0, 7.0, 5.0, 3.0, 2.0, 1.0, 0.0, -1.0, -1.0, -2.0, -2.0, -2.0, -2.0, -4.0, -6.0, -9.0, -14.0, -25.0, -45.0, -63.0, -78.0, -107.0, -122.0, -130.0, -133.0, -133.0, -133.0, -129.0, -109.0, -80.0, -27.0, 55.0, 153.0, 320.0, 452.0, 569.0, 681.0, 770.0, 816.0, 836.0, 842.0, 842.0, 842.0, 842.0, 842.0, 842.0, 842.0, 843.0, 835.0, 822.0, 806.0, 793.0, 780.0, 767.0, 757.0, 751.0, 746.0, 746.0, 746.0, 746.0, 746.0, 746.0, 746.0, 746.0, 746.0, 746.0, 746.0, 746.0, 746.0, 746.0, 746.0, 746.0, 746.0, 746.0, 746.0, 746.0, 746.0, 746.0, 746.0, 746.0, 746.0, 746.0, 746.0, 746.0, 746.0, 746.0, 746.0, 746.0, 746.0, 746.0, 746.0, 746.0, 746.0, 746.0, 746.0, 746.0, 746.0, 746.0, 746.0, 746.0, 746.0, 746.0, 746.0, 746.0, 746.0, 746.0, 746.0, 746.0, 746.0, 746.0, 746.0, 746.0, 746.0, 746.0, 746.0, 746.0, 746.0, 746.0, 746.0, 746.0, 746.0, 746.0, 746.0, 746.0, 746.0, 746.0, 745.0, 754.0, 767.0, 784.0, 795.0, 797.0, 798.0, 798.0, 786.0, 765.0, 733.0, 693.0, 641.0, 503.0, 440.0, 216.0, 65.0, -78.0, -213.0, -343.0, -449.0, -531.0, -588.0, -685.0, -701.0, -722.0, -725.0, -726.0, -726.0, -726.0, -726.0, -726.0, -727.0, -727.0]	[-490.0, -490.0, -490.0, -489.0, -489.0, -489.0, -488.0, -488.0, -486.0, -483.0, -480.0, -476.0, -473.0, -470.0, -468.0, -467.0, -466.0, -465.0, -465.0, -465.0, -465.0, -465.0, -465.0, -465.0, -462.0, -460.0, -454.0, -436.0, -426.0, -419.0, -411.0, -405.0, -399.0, -393.0, -390.0, -387.0, -385.0, -380.0, -380.0, -377.0, -375.0, -375.0, -370.0, -360.0, -353.0, -339.0, -321.0, -250.0, -177.0, -138.0, -117.0, -87.0, -76.0, -68.0, -65.0, -65.0, -62.0, -57.0, -48.0, -36.0, -15.0, 13.0, 42.0, 87.0, 125.0, 159.0, 200.0, 223.0, 242.0, 255.0, 260.0, 260.0, 260.0, 260.0, 260.0, 260.0, 260.0, 261.0, 274.0, 289.0, 300.0, 306.0, 312.0, 317.0, 321.0, 325.0, 328.0, 328.0, 328.0, 328.0, 328.0, 328.0, 328.0, 328.0, 328.0, 328.0, 328.0, 328.0, 328.0, 328.0, 328.0, 328.0, 328.0, 328.0, 328.0, 328.0, 328.0, 328.0, 328.0, 328.0, 328.0, 328.0, 328.0, 328.0, 328.0, 328.0, 328.0, 328.0, 328.0, 328.0, 328.0, 328.0, 328.0, 328.0, 328.0, 328.0, 328.0, 328.0, 328.0, 328.0, 328.0, 328.0, 328.0, 328.0, 328.0, 328.0, 328.0, 328.0, 328.0, 328.0, 328.0, 328.0, 328.0, 328.0, 328.0, 328.0, 328.0, 328.0, 328.0, 328.0, 328.0, 328.0, 328.0, 328.0, 328.0, 328.0, 329.0, 335.0, 341.0, 352.0, 360.0, 362.0, 363.0, 367.0, 375.0, 383.0, 393.0, 397.0, 397.0, 397.0, 397.0, 397.0, 397.0, 397.0, 397.0, 401.0, 403.0, 403.0, 402.0, 389.0, 385.0, 379.0, 379.0, 379.0, 379.0, 379.0, 379.0, 379.0, 379.0, 379.0]	[0.016064259281847626, 0.021463806682731956, 0.030362017743755132, 0.04755803506122902, 0.06404919968917966, 0.08102676388807595, 0.09968880662927404, 0.11435691139195114, 0.13148227281635627, 0.14762425370281562, 0.16403281572274864, 0.1810858144890517, 0.19816885056206957, 0.21425451152026653, 0.23044223099714145, 0.24728599266381934, 0.26553297438658774, 0.2807001081528142, 0.29992603306891397, 0.313986906374339, 0.3327387197059579, 0.3473313899594359, 0.3645929432241246, 0.38068133482011035, 0.39826271717902273, 0.4137763039325364, 0.4316966299666092, 0.44722284603631124, 0.46424273552838713, 0.48074994276976213, 0.4976916669984348, 0.5137592372484505, 0.5307869773823768, 0.5470648088376038, 0.5642642395105213, 0.5806656334898435, 0.5975496724131517, 0.6137582132359967, 0.6308944973279722, 0.6473341205855832, 0.6643420634209178, 0.6806605135207064, 0.6976527550141327, 0.7137872265884653, 0.7310300065437332, 0.747401021886617, 0.7642557061626576, 0.7807635960634798, 0.7975305577856489, 0.8139087411109358, 0.8309139533084817, 0.8472371820244007, 0.8642372741596773, 0.8807513081119396, 0.8975861950893886, 0.9138592478702776, 0.9309142946149223, 0.9471474114106968, 0.9642792581580579, 0.9804618576890789, 0.9975312404567376, 1.0138155572349206, 1.0309245345997624, 1.047113960783463, 1.0643301167874597, 1.0804444496752694, 1.097742525569629, 1.1137810825603083, 1.1309433079441078, 1.1471392194507644, 1.1643430874100886, 1.1804761936655268, 1.1974728725035675, 1.2138063412276097, 1.230985974543728, 1.2473938539042138, 1.2642451248248108, 1.2806844068109058, 1.2974349845317192, 1.3139892957406119, 1.3309463799232617, 1.3473115926026367, 1.3642522928421386, 1.3806270628701895, 1.3975943870609626, 1.4164189043221995, 1.4308904013014399, 1.450014267640654, 1.4642321541905403, 1.483533855061978, 1.4974861844675615, 1.516311725776177, 1.5309177079470828, 1.547685352328699, 1.5641891462146305, 1.5810148172313347, 1.5976490003522485, 1.6138319412129931, 1.6307306574308313, 1.6473283179220743, 1.6652967719710432, 1.6806629028287716, 1.6973728619050235, 1.7140292316908017, 1.7309456972870976, 1.7474245738703758, 1.7640403250115924, 1.7806707535055466, 1.7974708245019428, 1.8139974877121858, 1.830916342616547, 1.8472170433960855, 1.864092207630165, 1.8806823588092811, 1.8974226965219714, 1.9137530932785012, 1.9307112014503218, 1.9473999979090877, 1.9640082397381775, 1.980710689444095, 1.997406653885264, 2.013753093255218, 2.030626892228611, 2.0475897790747695, 2.063843375828583, 2.080946891917847, 2.0971752300974913, 2.1142456368543208, 2.1306746788322926, 2.147555987117812, 2.1640338397119194, 2.180913782620337, 2.197308691276703, 2.214239834167529, 2.230699254781939, 2.247568957740441, 2.2639628424076363, 2.2809032013174146, 2.2973233686061576, 2.314258948841598, 2.330672630807385, 2.3475245844456367, 2.364070021023508, 2.3808748706360348, 2.397137000807561, 2.414304004807491, 2.4308170147123747, 2.4474907924886793, 2.4640939143137075, 2.4810742091503926, 2.497433277836535, 2.514255535497796, 2.5304285776801407, 2.5476618003449403, 2.563755994604435, 2.5808909133193083, 2.5970844355178997, 2.61431561014615, 2.6304374523460865, 2.647545747109689, 2.663780911883805, 2.680935286625754, 2.6971370007959194, 2.7142579248175025, 2.730466465698555, 2.7475710057187825, 2.763729711936321, 2.780585761589464, 2.7976059923530556, 2.8140285490080714, 2.831024545186665, 2.847333096608054, 2.8645656365551986, 2.88041031640023, 2.8977019069716334, 2.913728858635295, 2.9311556170578115, 2.947177790105343, 2.964463919342961, 2.980633206840139, 3.000331195362378, 3.0138807518524118, 3.0341702704899944, 3.047172670077998, 3.067725697881542, 3.080585078918375, 3.1010022561531514, 3.113756165257655, 3.1339245107374154, 3.1471846167114563]
20	inanimate/n58.jpg	inanimate	animate	left	3.329	[0.0, 0.0, 0.0, 0.0, 0.0, 0.0, 0.0, 0.0, 0.0, 0.0, 0.0, 0.0, 0.0, 0.0, 0.0, 0.0, 0.0, 0.0, 0.0, 1.0, 1.0, 1.0, 1.0, 2.0, 2.0, 2.0, 2.0, 2.0, 2.0, 3.0, 3.0, 3.0, 3.0, 3.0, 1.0, 0.0, -14.0, -22.0, -53.0, -64.0, -101.0, -132.0, -168.0, -216.0, -259.0, -287.0, -307.0, -321.0, -331.0, -335.0, -339.0, -340.0, -340.0, -340.0, -336.0, -330.0, -325.0, -320.0, -318.0, -315.0, -312.0, -308.0, -305.0, -301.0, -295.0, -290.0, -286.0, -282.0, -280.0, -279.0, -279.0, -279.0, -279.0, -275.0, -269.0, -264.0, -254.0, -247.0, -237.0, -227.0, -216.0, -203.0, -188.0, -172.0, -155.0, -142.0, -126.0, -122.0, -113.0, -111.0, -107.0, -104.0, -101.0, -99.0, -96.0, -93.0, -90.0, -84.0, -84.0, -81.0, -81.0, -81.0, -81.0, -81.0, -81.0, -81.0, -81.0, -81.0, -81.0, -81.0, -81.0, -81.0, -81.0, -81.0, -81.0, -81.0, -81.0, -81.0, -81.0, -81.0, -81.0, -81.0, -81.0, -81.0, -81.0, -81.0, -81.0, -81.0, -81.0, -81.0, -81.0, -81.0, -81.0, -81.0, -81.0, -81.0, -81.0, -81.0, -81.0, -81.0, -81.0, -81.0, -81.0, -81.0, -81.0, -81.0, -81.0, -81.0, -81.0, -81.0, -81.0, -81.0, -81.0, -81.0, -81.0, -81.0, -81.0, -81.0, -88.0, -150.0, -207.0, -280.0, -362.0, -437.0, -504.0, -575.0, -637.0, -691.0, -752.0, -768.0, -800.0, -815.0, -827.0, -834.0, -840.0, -844.0, -844.0, -845.0, -845.0, -845.0, -845.0, -845.0, -843.0, -842.0, -836.0, -832.0, -829.0, -826.0, -823.0, -820.0, -817.0, -814.0, -813.0, -812.0, -811.0, -810.0, -810.0, -810.0, -810.0, -810.0]	[-490.0, -490.0, -490.0, -490.0, -490.0, -490.0, -490.0, -490.0, -490.0, -490.0, -490.0, -490.0, -490.0, -490.0, -490.0, -490.0, -490.0, -488.0, -486.0, -483.0, -481.0, -479.0, -479.0, -478.0, -478.0, -478.0, -478.0, -478.0, -478.0, -476.0, -472.0, -467.0, -461.0, -453.0, -436.0, -432.0, -406.0, -398.0, -368.0, -359.0, -336.0, -319.0, -300.0, -271.0, -255.0, -242.0, -233.0, -224.0, -216.0, -209.0, -201.0, -190.0, -152.0, -120.0, -104.0, -97.0, -90.0, -84.0, -82.0, -79.0, -77.0, -75.0, -73.0, -72.0, -69.0, -68.0, -67.0, -65.0, -65.0, -64.0, -64.0, -64.0, -64.0, -63.0, -62.0, -61.0, -60.0, -60.0, -60.0, -60.0, -60.0, -60.0, -60.0, -60.0, -60.0, -60.0, -60.0, -60.0, -59.0, -58.0, -57.0, -56.0, -55.0, -55.0, -54.0, -54.0, -54.0, -54.0, -54.0, -54.0, -54.0, -54.0, -54.0, -54.0, -54.0, -54.0, -54.0, -54.0, -54.0, -54.0, -54.0, -54.0, -54.0, -54.0, -54.0, -54.0, -54.0, -54.0, -54.0, -54.0, -54.0, -54.0, -54.0, -54.0, -54.0, -54.0, -54.0, -54.0, -54.0, -54.0, -54.0, -54.0, -54.0, -54.0, -54.0, -54.0, -54.0, -54.0, -54.0, -54.0, -54.0, -54.0, -54.0, -54.0, -54.0, -54.0, -54.0, -54.0, -54.0, -54.0, -54.0, -54.0, -54.0, -54.0, -54.0, -54.0, -54.0, -54.0, -53.0, -35.0, -19.0, 3.0, 29.0, 58.0, 86.0, 119.0, 146.0, 171.0, 199.0, 208.0, 236.0, 254.0, 269.0, 281.0, 292.0, 303.0, 310.0, 317.0, 320.0, 323.0, 328.0, 330.0, 339.0, 341.0, 348.0, 354.0, 357.0, 362.0, 366.0, 369.0, 374.0, 377.0, 380.0, 382.0, 385.0, 388.0, 388.0, 388.0, 388.0, 388.0]	[0.015453955915290862, 0.02148974809097126, 0.0295281411963515, 0.04605104977963492, 0.06316787784453481, 0.0795617625117302, 0.09642975882161409, 0.11291512072784826, 0.12979847699170932, 0.14632138557499275, 0.16310370725113899, 0.17955391184659675, 0.19649256410775706, 0.21288167010061443, 0.2297285037348047, 0.24626233492745087, 0.2630330512765795, 0.2795132932369597, 0.2964724254561588, 0.31264649162767455, 0.3297059757169336, 0.3459708365262486, 0.3631549071869813, 0.37935628002742305, 0.39644170546671376, 0.4126335209584795, 0.4298192983260378, 0.445991316519212, 0.46318938181502745, 0.4793412613798864, 0.4964420467731543, 0.5128205714863725, 0.5298216876108199, 0.5464056947967038, 0.563063429959584, 0.582309493503999, 0.5963300895527937, 0.615671043691691, 0.6297237250837497, 0.6487141301622614, 0.6630979045876302, 0.6807830521720462, 0.696352276194375, 0.7142770395730622, 0.7297701463685371, 0.74853015167173, 0.7630767419468611, 0.7803734525223263, 0.796421566803474, 0.8131868218188174, 0.8297930156695656, 0.8460391031112522, 0.8628716007806361, 0.8793231707531959, 0.8962369056534953, 0.9126601449679583, 0.9296564824180678, 0.9461967989918776, 0.9631231632083654, 0.9795068079256453, 0.9963625161908567, 1.012910683406517, 1.0297868716879748, 1.045951039181091, 1.06271492887754, 1.0795569838373922, 1.0964048414607532, 1.1126103103160858, 1.1298186156200245, 1.1459855138673447, 1.1627978728502057, 1.1797791916760616, 1.196169663046021, 1.2131199205759913, 1.2295387225458398, 1.2463568841922097, 1.2628852541092783, 1.2797324290731922, 1.2962338336510584, 1.313053019286599, 1.3295902638346888, 1.346383849508129, 1.3629286033683456, 1.3797419863985851, 1.3959723724983633, 1.41315302986186, 1.4292922801105306, 1.4464149108389392, 1.4626394942752086, 1.479876130237244, 1.4959846605197527, 1.5131421072292142, 1.529318562708795, 1.546449726796709, 1.5626988862641156, 1.579833804978989, 1.596202089684084, 1.6131192378816195, 1.6295704665244557, 1.6461394550278783, 1.6633030457305722, 1.6794173786765896, 1.6964352201321162, 1.7129427687032148, 1.7300264874356799, 1.7462299083126709, 1.7634221709449776, 1.7795863384963013, 1.796784745180048, 1.8127659581950866, 1.8329629756044596, 1.8460363724734634, 1.8660340514034033, 1.8793767600436695, 1.8979285521782003, 1.9128045288380235, 1.9309982626582496, 1.9460329591529444, 1.9631811898434535, 1.9793644720339216, 1.9964577481150627, 2.01284992613364, 2.029783458332531, 2.04624868161045, 2.0631979151512496, 2.079601357167121, 2.0964116681716405, 2.1128550461144187, 2.129805303644389, 2.1462507296237163, 2.1631009765551426, 2.179626957164146, 2.19628674024716, 2.2128209128277376, 2.229786530311685, 2.24615481501678, 2.2631153125548735, 2.279546743899118, 2.296436926815659, 2.31285504612606, 2.3297390850493684, 2.346186900336761, 2.3631241872208193, 2.37950578390155, 2.3964362441329286, 2.4129427687148564, 2.4296906157396734, 2.446023743133992, 2.4631224805489182, 2.4796423171064816, 2.4963375988882035, 2.5127164648729376, 2.5297175810555927, 2.54600633517839, 2.563046363298781, 2.579278456105385, 2.5964133748202585, 2.6125881236512214, 2.629743863712065, 2.6459650338510983, 2.663195184490178, 2.6792979121091776, 2.696519529388752, 2.7126256703049876, 2.729803596972488, 2.745967423194088, 2.763202693837229, 2.779299277404789, 2.7963143882225268, 2.812749574193731, 2.8296875437372364, 2.846149695047643, 2.8632006458356045, 2.881953483156394, 2.8965976946637966, 2.91548979585059, 2.929672183759976, 2.9487861514789984, 2.9629978939774446, 2.982034379092511, 2.9963720735395327, 3.015440302551724, 3.0296602371381596, 3.046614590624813, 3.063157979166135, 3.079708877077792, 3.096547177352477, 3.1131557605112903, 3.129742157063447, 3.145927145902533, 3.1628876434406266, 3.17953172523994, 3.196305513556581, 3.2129485713667236, 3.2296994904172607, 3.2461845109937713, 3.2629514727159403, 3.2792883547372185, 3.2961119777173735, 3.313030491292011]
21	animate/a42.jpg	animate	inanimate	left	1.507	[0.0, 0.0, 0.0, 0.0, 0.0, 0.0, 0.0, 0.0, 0.0, 0.0, 0.0, 0.0, 0.0, 0.0, 0.0, -1.0, -1.0, -1.0, -1.0, -1.0, -1.0, -1.0, -1.0, -1.0, -1.0, -1.0, -1.0, -1.0, -1.0, -1.0, -1.0, -1.0, -1.0, -1.0, -1.0, -1.0, -1.0, -1.0, -1.0, -1.0, -1.0, -1.0, -1.0, -1.0, -1.0, -1.0, -9.0, -21.0, -42.0, -80.0, -137.0, -223.0, -253.0, -328.0, -347.0, -390.0, -403.0, -440.0, -460.0, -479.0, -499.0, -525.0, -566.0, -609.0, -637.0, -659.0, -676.0, -702.0, -711.0, -738.0, -754.0, -768.0, -778.0, -786.0, -795.0, -800.0, -801.0, -801.0, -801.0, -802.0, -802.0, -802.0, -802.0, -802.0, -801.0, -800.0, -799.0, -799.0, -799.0, -799.0]	[-490.0, -490.0, -490.0, -490.0, -490.0, -490.0, -490.0, -490.0, -490.0, -490.0, -490.0, -490.0, -490.0, -490.0, -490.0, -488.0, -486.0, -482.0, -480.0, -479.0, -478.0, -477.0, -477.0, -477.0, -477.0, -477.0, -477.0, -477.0, -477.0, -477.0, -477.0, -477.0, -477.0, -477.0, -477.0, -477.0, -477.0, -477.0, -477.0, -477.0, -477.0, -477.0, -477.0, -477.0, -477.0, -476.0, -465.0, -449.0, -422.0, -375.0, -310.0, -207.0, -161.0, -55.0, -27.0, 29.0, 44.0, 86.0, 105.0, 120.0, 136.0, 155.0, 183.0, 207.0, 222.0, 232.0, 239.0, 250.0, 254.0, 265.0, 271.0, 279.0, 285.0, 290.0, 298.0, 303.0, 304.0, 305.0, 308.0, 314.0, 319.0, 326.0, 330.0, 336.0, 342.0, 346.0, 350.0, 350.0, 350.0, 350.0]	[0.007172533601988107, 0.01353464019484818, 0.029097720223944634, 0.04609508172143251, 0.06235721189295873, 0.07943854131735861, 0.09582218597643077, 0.11281511012930423, 0.12904344830894843, 0.14594114053761587, 0.16233229456702247, 0.17939860530896112, 0.19562660215888172, 0.21281374478712678, 0.2289195444318466, 0.24606197245884687, 0.26226914796279743, 0.2794224986573681, 0.2956412794883363, 0.31284036877332255, 0.32902638165978715, 0.3461278497125022, 0.3623524332069792, 0.37916752288583666, 0.3961638603359461, 0.4125485290423967, 0.42955339985201135, 0.44598244182998314, 0.46289276343304664, 0.4791746908449568, 0.4962287136586383, 0.5124631957733072, 0.5296824237448163, 0.5458646819461137, 0.5628852540976368, 0.5789405363611877, 0.5963468148838729, 0.6125908543472178, 0.6298824449186213, 0.6456032208516262, 0.6628384914365597, 0.6791719601606019, 0.6963550068321638, 0.7126021183212288, 0.732828831707593, 0.745885161915794, 0.76640098443022, 0.7791907335049473, 0.799282961699646, 0.8122764865984209, 0.8323857814539224, 0.8456885541090742, 0.8655561851337552, 0.8790344029548578, 0.8991867057629861, 0.9123652331763878, 0.9306432762532495, 0.9456994767533615, 0.9638276746263728, 0.9791955121909268, 0.9986576395458542, 1.012360795866698, 1.0302394792670384, 1.045885503233876, 1.063444698927924, 1.079262413433753, 1.0972568087745458, 1.1125536490580998, 1.1302265085978433, 1.1456151675083674, 1.163147397863213, 1.179257293464616, 1.1963645641808398, 1.2124840170727111, 1.2293171974015422, 1.2457291727187112, 1.262682843604125, 1.2792054107994772, 1.2960693110944703, 1.3125754943466745, 1.3294206213322468, 1.345671828777995, 1.3628207421279512, 1.3791944881668314, 1.3962345162872225, 1.412396294530481, 1.429316173424013, 1.4456366714439355, 1.4628541927668266, 1.4793429680285044]
22	inanimate/n76.jpg	animate	inanimate	right	1.48	[0.0, 0.0, 0.0, 0.0, 0.0, 0.0, 0.0, 0.0, 0.0, 0.0, 0.0, 0.0, 0.0, 0.0, 0.0, 0.0, 0.0, 0.0, 0.0, 0.0, -3.0, -13.0, -25.0, -38.0, -51.0, -72.0, -89.0, -117.0, -144.0, -165.0, -197.0, -219.0, -242.0, -265.0, -284.0, -298.0, -306.0, -312.0, -319.0, -350.0, -376.0, -443.0, -528.0, -576.0, -611.0, -637.0, -653.0, -670.0, -683.0, -697.0, -708.0, -719.0, -724.0, -728.0, -728.0, -664.0, -569.0, -434.0, -251.0, -24.0, 178.0, 337.0, 429.0, 468.0, 482.0, 484.0, 484.0, 484.0, 485.0, 485.0, 487.0, 487.0, 487.0, 488.0, 489.0, 522.0, 594.0, 718.0, 751.0, 797.0, 800.0, 800.0, 800.0, 800.0, 800.0, 800.0, 800.0, 800.0]	[-490.0, -490.0, -490.0, -490.0, -490.0, -490.0, -490.0, -490.0, -490.0, -490.0, -490.0, -490.0, -490.0, -490.0, -490.0, -490.0, -490.0, -490.0, -490.0, -490.0, -490.0, -472.0, -448.0, -421.0, -389.0, -338.0, -275.0, -193.0, -114.0, -46.0, 43.0, 92.0, 134.0, 171.0, 199.0, 219.0, 229.0, 236.0, 245.0, 274.0, 298.0, 356.0, 417.0, 446.0, 461.0, 472.0, 479.0, 486.0, 489.0, 492.0, 493.0, 493.0, 493.0, 491.0, 486.0, 482.0, 482.0, 482.0, 482.0, 482.0, 482.0, 482.0, 482.0, 482.0, 482.0, 482.0, 482.0, 482.0, 482.0, 482.0, 482.0, 482.0, 482.0, 482.0, 482.0, 483.0, 481.0, 472.0, 472.0, 472.0, 472.0, 472.0, 472.0, 472.0, 472.0, 472.0, 472.0, 472.0]	[0.0038018698105588555, 0.009949960571248084, 0.02271649899194017, 0.03978315112181008, 0.05605449725408107, 0.07316620531491935, 0.08941638877149671, 0.1065577928093262, 0.122804221638944, 0.13976335379993543, 0.15627704636426643, 0.17312490398762748, 0.18957886326825246, 0.20643764355918393, 0.22270216303877532, 0.23975857516052201, 0.2559968119603582, 0.27313514397246763, 0.2892989701940678, 0.3065427741385065, 0.32267076038988307, 0.33985005237627774, 0.3559585826587863, 0.373124903999269, 0.3893238875316456, 0.40643798490054905, 0.42265369376400486, 0.43977803114103153, 0.45598827861249447, 0.4731433360138908, 0.4895013807108626, 0.5064738249056973, 0.5229421201511286, 0.5398565377108753, 0.5588042762246914, 0.5730098747881129, 0.5924621035228483, 0.6063656223122962, 0.6252201768802479, 0.6397179565392435, 0.6562965023913421, 0.6731016933335923, 0.6892945328727365, 0.7061512651271187, 0.7257922510616481, 0.7395329540013336, 0.758994740084745, 0.7728832401917316, 0.790643822401762, 0.8062109984457493, 0.8231066426960751, 0.8395534339942969, 0.8565473821363412, 0.8728999655577354, 0.8897362178540789, 0.9060143905808218, 0.9230800187215209, 0.9396732418681495, 0.9564251849078573, 0.9728774375398643, 0.989741679164581, 1.0062014411087148, 1.0230277947266586, 1.0395268099964596, 1.0563995849224739, 1.0729245414840989, 1.0897549911751412, 1.1061772064422257, 1.1231001573614776, 1.139518276671879, 1.1563845662749372, 1.1726675177342258, 1.189749529818073, 1.2062847263878211, 1.2230178961181082, 1.23955036199186, 1.2563937822706066, 1.2727630909648724, 1.2897014018381014, 1.3060212172567844, 1.3230830907123163, 1.3393407834810205, 1.356528950156644, 1.3726282644202001, 1.389825647114776, 1.4059816226363182, 1.423104936024174, 1.439290948852431]
23	inanimate/n77.jpg	animate	inanimate	right	1.525	[0.0, 0.0, 0.0, 0.0, 0.0, -1.0, -7.0, -7.0, -7.0, -7.0, -7.0, -7.0, -7.0, -7.0, -7.0, -7.0, -7.0, -7.0, -7.0, -5.0, 25.0, 41.0, 44.0, 45.0, 34.0, -14.0, -81.0, -180.0, -227.0, -267.0, -308.0, -362.0, -413.0, -474.0, -531.0, -591.0, -632.0, -662.0, -676.0, -687.0, -695.0, -704.0, -705.0, -705.0, -703.0, -690.0, -681.0, -622.0, -589.0, -467.0, -384.0, -321.0, -277.0, -262.0, -261.0, -261.0, -265.0, -283.0, -312.0, -347.0, -389.0, -443.0, -546.0, -621.0, -673.0, -699.0, -705.0, -705.0, -691.0, -634.0, -515.0, -355.0, -177.0, 129.0, 320.0, 488.0, 634.0, 748.0, 829.0, 861.0, 869.0, 869.0, 869.0, 869.0, 869.0, 869.0, 869.0, 869.0, 869.0, 869.0, 869.0]	[-490.0, -490.0, -490.0, -490.0, -490.0, -490.0, -488.0, -488.0, -488.0, -488.0, -488.0, -488.0, -488.0, -488.0, -488.0, -488.0, -488.0, -488.0, -488.0, -488.0, -495.0, -498.0, -498.0, -496.0, -471.0, -403.0, -311.0, -194.0, -140.0, -104.0, -68.0, -23.0, 25.0, 86.0, 137.0, 194.0, 231.0, 261.0, 280.0, 299.0, 314.0, 330.0, 340.0, 347.0, 357.0, 376.0, 384.0, 415.0, 425.0, 449.0, 465.0, 475.0, 483.0, 485.0, 485.0, 485.0, 481.0, 467.0, 444.0, 417.0, 391.0, 370.0, 352.0, 352.0, 352.0, 352.0, 352.0, 352.0, 358.0, 374.0, 394.0, 416.0, 444.0, 453.0, 453.0, 453.0, 450.0, 432.0, 421.0, 417.0, 417.0, 417.0, 417.0, 417.0, 417.0, 417.0, 417.0, 417.0, 417.0, 417.0, 417.0]	[0.0018521755118854344, 0.014604036579839885, 0.029274872096721083, 0.04637326818192378, 0.06262857164256275, 0.07967781572369859, 0.09586041525471956, 0.11300864594522864, 0.12924415210727602, 0.1464101321180351, 0.16270400624489412, 0.17967269575456157, 0.19616693235002458, 0.21296017669374123, 0.2292758960975334, 0.24630773218814284, 0.2625258303596638, 0.2797638316405937, 0.2959037645487115, 0.31303356325952336, 0.32922162412432954, 0.34637941216351464, 0.3625285610323772, 0.3797037570620887, 0.39589215925661847, 0.4126587795908563, 0.42968242370989174, 0.4461002017487772, 0.463052507257089, 0.4794197679730132, 0.49644511874066666, 0.5128004327998497, 0.5298599168891087, 0.5461531083565205, 0.5633197710267268, 0.5794955439050682, 0.5964294174336828, 0.6127608381793834, 0.6334439138299786, 0.6461268257116899, 0.6656957903178409, 0.6793634479981847, 0.6994126682402566, 0.712761179485824, 0.7325537172728218, 0.7460657270858064, 0.7660323447198607, 0.7791733255144209, 0.7991788550862111, 0.812749574193731, 0.8311945291352458, 0.845944895176217, 0.8635699681472033, 0.8793777839746326, 0.8967710917931981, 0.9128222781000659, 0.9296127918059938, 0.9461063457420096, 0.9629074407275766, 0.9794730159337632, 0.9963048308854923, 1.0126195263001136, 1.0295643224962987, 1.0460862070904113, 1.0631576378364116, 1.0794600452645682, 1.0963502281811088, 1.1128345660981722, 1.129722018376924, 1.1460964470752515, 1.1629999419674277, 1.1794388826237991, 1.1963126815389842, 1.2128519741236232, 1.229633271752391, 1.2461524257087149, 1.2629760486306623, 1.2792818694142625, 1.2963591028237715, 1.312654342269525, 1.3296090371441096, 1.346186900336761, 1.3629681980237365, 1.3794655065867119, 1.39631404686952, 1.412880987394601, 1.4295987971127033, 1.4462295669363812, 1.462997552647721, 1.4795511811971664, 1.496205844276119]
24	animate/a26.jpg	animate	inanimate	left	1.566	[0.0, 0.0, 0.0, 0.0, 0.0, 0.0, 0.0, 0.0, 0.0, 0.0, 0.0, 0.0, 0.0, 0.0, 0.0, 0.0, 0.0, 0.0, 0.0, 0.0, 0.0, 0.0, 0.0, 0.0, 0.0, 0.0, 1.0, 9.0, 17.0, 19.0, 20.0, 27.0, 33.0, 40.0, 44.0, 52.0, 55.0, 60.0, 61.0, 62.0, 62.0, 63.0, 66.0, 68.0, 70.0, 73.0, 78.0, 95.0, 106.0, 114.0, 121.0, 131.0, 139.0, 145.0, 146.0, 148.0, 145.0, 127.0, 82.0, 11.0, -35.0, -62.0, -81.0, -95.0, -108.0, -118.0, -129.0, -138.0, -145.0, -147.0, -147.0, -147.0, -147.0, -148.0, -163.0, -199.0, -265.0, -357.0, -457.0, -549.0, -657.0, -687.0, -766.0, -807.0, -842.0, -864.0, -877.0, -880.0, -880.0, -880.0, -880.0, -880.0, -880.0, -880.0]	[-490.0, -496.0, -498.0, -498.0, -498.0, -498.0, -498.0, -498.0, -498.0, -498.0, -498.0, -498.0, -498.0, -498.0, -498.0, -498.0, -498.0, -498.0, -498.0, -498.0, -498.0, -498.0, -498.0, -498.0, -498.0, -498.0, -490.0, -449.0, -395.0, -332.0, -287.0, -246.0, -200.0, -161.0, -135.0, -97.0, -76.0, -55.0, -38.0, -16.0, 5.0, 25.0, 43.0, 56.0, 71.0, 90.0, 116.0, 155.0, 173.0, 187.0, 197.0, 212.0, 223.0, 231.0, 236.0, 239.0, 243.0, 252.0, 262.0, 277.0, 277.0, 277.0, 277.0, 278.0, 281.0, 284.0, 288.0, 291.0, 292.0, 292.0, 292.0, 292.0, 292.0, 292.0, 292.0, 292.0, 292.0, 292.0, 292.0, 292.0, 307.0, 316.0, 350.0, 369.0, 384.0, 394.0, 399.0, 399.0, 399.0, 399.0, 399.0, 399.0, 399.0, 399.0]	[0.014362372807227075, 0.01950455509359017, 0.027253839129116386, 0.04376787308137864, 0.061138994235079736, 0.07700381270842627, 0.09436128055676818, 0.11032508558128029, 0.12775901204440743, 0.14422321133315563, 0.1609843703918159, 0.17747724161017686, 0.1941817393526435, 0.21091661573154852, 0.2270309486775659, 0.24385593697661534, 0.26255245436914265, 0.27755882020574063, 0.2941278087673709, 0.31098078639479354, 0.3271787458797917, 0.3439986141747795, 0.36083554913057014, 0.3771935938857496, 0.39432236860739067, 0.4105148667586036, 0.4276931347558275, 0.4437337397248484, 0.4608748024329543, 0.4773318337392993, 0.4941923206788488, 0.5107858852134086, 0.5275395349017344, 0.5440887261065654, 0.5608816291205585, 0.5774076096713543, 0.5941056220908649, 0.6107002106145956, 0.627447716309689, 0.6438798303133808, 0.6608703650999814, 0.6773338817292824, 0.6941663793986663, 0.7106954319169745, 0.7275156415998936, 0.743975744873751, 0.7608730957726948, 0.777317839092575, 0.7942704859888181, 0.8104728828184307, 0.8275921001913957, 0.8439460489316843, 0.860857394465711, 0.8771014339290559, 0.894149312749505, 0.9104769788100384, 0.9274770709453151, 0.9438122463761829, 0.9608843597816303, 0.9771570712327957, 0.994165355397854, 1.0104107601800933, 1.0276637801434845, 1.0437729930272326, 1.0609488717163913, 1.077072761952877, 1.0942172380164266, 1.1104070055298507, 1.127604388166219, 1.143761046405416, 1.1608826531446539, 1.177090169978328, 1.1943824432091787, 1.2106442319927737, 1.2275692308903672, 1.2438839263049886, 1.260925319744274, 1.2774994282517582, 1.294260928640142, 1.3133916216320358, 1.3274115350213833, 1.3467599985306151, 1.3608205305063166, 1.3780414651264437, 1.3942919899709523, 1.41054695204366, 1.4272569111199118, 1.4470211183070205, 1.460657714633271, 1.4801109673571773, 1.4940680754953064, 1.5122228973195888, 1.5271657752455212, 1.5449304534122348]
25	animate/a66.jpg	inanimate	animate	right	1.35	[0.0, 0.0, 0.0, 0.0, 0.0, 0.0, 0.0, 0.0, 0.0, 0.0, 0.0, 0.0, 0.0, 0.0, 0.0, 0.0, 0.0, 0.0, 0.0, 0.0, 0.0, 0.0, 0.0, 0.0, 0.0, 0.0, -1.0, -1.0, -1.0, -1.0, 6.0, 14.0, 19.0, 24.0, 31.0, 31.0, 26.0, 6.0, -39.0, -100.0, -171.0, -248.0, -353.0, -432.0, -493.0, -563.0, -631.0, -691.0, -737.0, -775.0, -805.0, -832.0, -848.0, -856.0, -857.0, -856.0, -836.0, -786.0, -688.0, -543.0, -362.0, -155.0, 37.0, 223.0, 387.0, 523.0, 635.0, 662.0, 667.0, 667.0, 667.0, 667.0, 667.0, 667.0, 669.0, 680.0, 693.0, 720.0, 736.0, 740.0, 741.0]	[-490.0, -490.0, -490.0, -490.0, -490.0, -490.0, -490.0, -490.0, -490.0, -490.0, -490.0, -490.0, -490.0, -490.0, -490.0, -490.0, -490.0, -490.0, -490.0, -490.0, -490.0, -490.0, -490.0, -490.0, -490.0, -490.0, -480.0, -430.0, -354.0, -289.0, -204.0, -155.0, -114.0, -78.0, -31.0, 0.0, 23.0, 50.0, 83.0, 122.0, 157.0, 182.0, 210.0, 223.0, 243.0, 262.0, 282.0, 300.0, 322.0, 338.0, 355.0, 373.0, 385.0, 397.0, 405.0, 414.0, 431.0, 447.0, 465.0, 473.0, 473.0, 473.0, 475.0, 456.0, 432.0, 414.0, 398.0, 393.0, 393.0, 393.0, 393.0, 393.0, 393.0, 393.0, 393.0, 401.0, 410.0, 427.0, 435.0, 437.0, 437.0]	[0.001643586903810501, 0.010050961107481271, 0.018421129963826388, 0.03514440101571381, 0.0521646318375133, 0.06919544393895194, 0.08562858193181455, 0.10383357969112694, 0.11874983366578817, 0.1378644839860499, 0.15207383723463863, 0.16970403015147895, 0.18562414456391707, 0.20173574681393802, 0.21841293794568628, 0.23817987577058375, 0.25191238668048754, 0.27141752204624936, 0.2852124969358556, 0.3021951811388135, 0.31859213777352124, 0.3380774758406915, 0.3517065628548153, 0.3688640095642768, 0.38534391013672575, 0.4028594152186997, 0.41833272465737537, 0.43523178226314485, 0.4518878107191995, 0.4688701535342261, 0.48511487571522593, 0.5021958638099022, 0.51850714586908, 0.5355225980165415, 0.5519724612822756, 0.5688237322610803, 0.5853514195187017, 0.6020538692246191, 0.6185856524389237, 0.6355068967095576, 0.6519294533645734, 0.6687974496162497, 0.6852821288630366, 0.7021805038093589, 0.7185689271427691, 0.7355819899821654, 0.7518905414035544, 0.7685987937729806, 0.7853265021694824, 0.8020852718618698, 0.8184095246251673, 0.8352198356296867, 0.8522537197568454, 0.868612788442988, 0.8856364325620234, 0.9020282692508772, 0.9188894388498738, 0.9352116436348297, 0.9521427864674479, 0.9686421430669725, 0.9855456380173564, 1.0019808239885606, 1.0188351669348776, 1.0352529449155554, 1.0522346050711349, 1.0686284897383302, 1.0855538299656473, 1.1016831815359183, 1.1188044469454326, 1.135038587730378, 1.152168727829121, 1.1686701324069872, 1.1856654458679259, 1.2019637573393993, 1.2189286921638995, 1.2351740969461389, 1.2522451864206232, 1.2684523619245738, 1.2855183313367888, 1.3019241626607254, 1.3188542815623805]
26	inanimate/n43.jpg	animate	inanimate	right	1.273	[0.0, 0.0, 0.0, 0.0, 0.0, 0.0, 0.0, 0.0, 0.0, 0.0, 0.0, 0.0, 0.0, 0.0, 0.0, 0.0, 0.0, 0.0, -1.0, -5.0, -11.0, -22.0, -55.0, -79.0, -111.0, -140.0, -174.0, -216.0, -256.0, -297.0, -343.0, -386.0, -426.0, -469.0, -517.0, -534.0, -577.0, -610.0, -643.0, -679.0, -707.0, -735.0, -758.0, -779.0, -795.0, -807.0, -819.0, -821.0, -821.0, -821.0, -821.0, -821.0, -821.0, -821.0, -821.0, -821.0, -822.0, -798.0, -756.0, -672.0, -548.0, -377.0, -196.0, 15.0, 204.0, 377.0, 517.0, 619.0, 681.0, 709.0, 715.0, 715.0, 715.0, 715.0, 715.0, 715.0, 715.0]	[-490.0, -490.0, -490.0, -490.0, -490.0, -490.0, -490.0, -490.0, -490.0, -490.0, -490.0, -490.0, -490.0, -490.0, -490.0, -490.0, -490.0, -490.0, -490.0, -488.0, -471.0, -446.0, -388.0, -352.0, -305.0, -264.0, -217.0, -159.0, -102.0, -49.0, 7.0, 55.0, 103.0, 148.0, 199.0, 213.0, 255.0, 285.0, 313.0, 339.0, 359.0, 380.0, 396.0, 408.0, 418.0, 425.0, 434.0, 436.0, 436.0, 436.0, 436.0, 436.0, 436.0, 436.0, 436.0, 436.0, 437.0, 441.0, 448.0, 459.0, 477.0, 503.0, 530.0, 540.0, 540.0, 540.0, 527.0, 515.0, 506.0, 501.0, 500.0, 500.0, 500.0, 500.0, 500.0, 500.0, 500.0]	[0.007244554872158915, 0.012980656640138477, 0.018557355855591595, 0.029291597369592637, 0.045894036535173655, 0.06301700859330595, 0.07899753894889727, 0.09634476684732363, 0.11284685408463702, 0.12964521843241528, 0.14614184433594346, 0.16241319046821445, 0.1792600241024047, 0.19618638831889257, 0.21242428378900513, 0.22956363984849304, 0.2458029006375, 0.2629187047132291, 0.2793351173750125, 0.29612904437817633, 0.3126495635951869, 0.329550669179298, 0.34592100186273456, 0.362896176695358, 0.3793173680314794, 0.39622803090605885, 0.4127191955340095, 0.4295021998696029, 0.4457807139842771, 0.46279753145063296, 0.47911768819903955, 0.49613075103843585, 0.5123655744828284, 0.5295646638260223, 0.5457172260503285, 0.5628347367746755, 0.5790801415569149, 0.5962273482582532, 0.6123843478271738, 0.629471821244806, 0.645720639382489, 0.6628756967256777, 0.6790402056067251, 0.6961669322918169, 0.7123833238147199, 0.7295076611917466, 0.7459582071751356, 0.7628422460984439, 0.7792235014494509, 0.7962406602455303, 0.8128120381152257, 0.8295957251102664, 0.8483082851744257, 0.8628716007224284, 0.882067829661537, 0.8961157323792577, 0.9154263078817166, 0.9294209626386873, 0.9487656714627519, 0.9629419153206982, 0.9818060272373259, 0.9961904843221419, 1.013026053959038, 1.0296127917827107, 1.045938068535179, 1.0628060647868551, 1.079138168192003, 1.0960484897368588, 1.1126574142253958, 1.1294950318988413, 1.1459879031172022, 1.1628961766837165, 1.1792927920469083, 1.1959396045422181, 1.2124877716996707, 1.229187490826007, 1.2470982595114037]
27	animate/a25.jpg	inanimate	animate	right	1.134	[0.0, 0.0, 0.0, 0.0, 0.0, 0.0, 0.0, 0.0, 0.0, 0.0, 0.0, 0.0, 0.0, 0.0, 0.0, 0.0, 0.0, 0.0, -3.0, -7.0, -10.0, -19.0, -33.0, -58.0, -93.0, -125.0, -163.0, -205.0, -266.0, -313.0, -363.0, -409.0, -460.0, -511.0, -562.0, -597.0, -632.0, -664.0, -698.0, -722.0, -749.0, -759.0, -764.0, -766.0, -766.0, -766.0, -766.0, -766.0, -766.0, -761.0, -713.0, -536.0, -363.0, -161.0, 46.0, 245.0, 405.0, 529.0, 612.0, 664.0, 671.0, 672.0, 672.0, 672.0, 672.0, 672.0, 672.0, 672.0]	[-490.0, -490.0, -490.0, -490.0, -490.0, -490.0, -490.0, -490.0, -490.0, -490.0, -490.0, -490.0, -490.0, -490.0, -490.0, -490.0, -486.0, -474.0, -462.0, -447.0, -432.0, -412.0, -377.0, -323.0, -264.0, -206.0, -151.0, -91.0, -6.0, 50.0, 98.0, 141.0, 183.0, 228.0, 270.0, 301.0, 330.0, 356.0, 383.0, 401.0, 421.0, 430.0, 436.0, 438.0, 438.0, 438.0, 438.0, 438.0, 438.0, 444.0, 451.0, 476.0, 502.0, 527.0, 540.0, 540.0, 540.0, 540.0, 532.0, 522.0, 520.0, 520.0, 520.0, 520.0, 520.0, 520.0, 520.0, 520.0]	[0.005323839723132551, 0.011422778537962586, 0.02578846225515008, 0.04213456029538065, 0.05878034880151972, 0.07610812067287043, 0.09215555229457095, 0.10978540393989533, 0.1254990118322894, 0.14235403743805364, 0.15873085550265387, 0.1757091023027897, 0.1921371202915907, 0.20910478581208736, 0.22524813207564875, 0.24243459204444662, 0.25883701007114723, 0.27577190758893266, 0.29195450711995363, 0.3089890739065595, 0.3254635132034309, 0.34231205348623917, 0.3588301833951846, 0.37570568901719525, 0.39215998962754384, 0.40900955389952287, 0.42551164113683626, 0.44230932282516733, 0.45865098357899114, 0.4756875983439386, 0.4923200748162344, 0.5090709938667715, 0.525554307794664, 0.5423523308127187, 0.5588393993675709, 0.5756978383287787, 0.5922357655363157, 0.6090402738773264, 0.6252580307191238, 0.6423328748205677, 0.6586240182514302, 0.6757111503393389, 0.6919623577850871, 0.7090979591594078, 0.7252587133552879, 0.7424004587810487, 0.7586165089160204, 0.7757432356593199, 0.7919452911592089, 0.8087392181623727, 0.8258260089205578, 0.8420301123987883, 0.859357884270139, 0.8755152251687832, 0.8925675412756391, 0.9086593462270685, 0.9259625421254896, 0.9421649389551021, 0.9592988336808048, 0.9752486440702341, 0.9926583358901553, 1.0088627806981094, 1.0292939526261762, 1.0421400216291659, 1.062411108345259, 1.0756104571046308, 1.0957559332018718, 1.1087835914222524]
28	animate/a53.jpg	animate	inanimate	left	1.158	[0.0, -3.0, -3.0, -3.0, -3.0, -4.0, -4.0, -4.0, -4.0, -4.0, -4.0, -4.0, -4.0, -4.0, -5.0, -5.0, -5.0, -5.0, -5.0, -8.0, -13.0, -24.0, -33.0, -46.0, -56.0, -70.0, -91.0, -112.0, -143.0, -167.0, -194.0, -220.0, -276.0, -309.0, -349.0, -381.0, -419.0, -513.0, -616.0, -678.0, -717.0, -750.0, -785.0, -790.0, -800.0, -800.0, -801.0, -801.0, -801.0, -801.0, -794.0, -772.0, -745.0, -702.0, -666.0, -634.0, -628.0, -628.0, -627.0, -627.0, -627.0, -627.0, -631.0, -642.0, -666.0, -690.0, -719.0, -728.0, -731.0, -731.0]	[-490.0, -492.0, -492.0, -492.0, -492.0, -492.0, -492.0, -492.0, -492.0, -492.0, -492.0, -492.0, -492.0, -492.0, -492.0, -489.0, -488.0, -485.0, -479.0, -475.0, -469.0, -456.0, -441.0, -426.0, -413.0, -396.0, -376.0, -357.0, -328.0, -292.0, -247.0, -201.0, -122.0, -61.0, 8.0, 64.0, 128.0, 233.0, 330.0, 385.0, 411.0, 433.0, 459.0, 463.0, 473.0, 474.0, 475.0, 476.0, 477.0, 478.0, 482.0, 486.0, 489.0, 493.0, 493.0, 493.0, 493.0, 493.0, 492.0, 491.0, 488.0, 483.0, 479.0, 473.0, 463.0, 458.0, 449.0, 448.0, 448.0, 448.0]	[0.015129006817005575, 0.022925736207980663, 0.02817680372390896, 0.04540319967782125, 0.06212886003777385, 0.07880297914380208, 0.09529414377175272, 0.11229116393951699, 0.12833074491936713, 0.1454151463112794, 0.1618069830001332, 0.1789941256865859, 0.19513747189193964, 0.21223006531363353, 0.22846591280540451, 0.2455721595324576, 0.26181756431469694, 0.27893234440125525, 0.2951412265538238, 0.3122607853147201, 0.32839457417139784, 0.34555031423224136, 0.3617943536955863, 0.3789367817225866, 0.3950886612874456, 0.4121983213117346, 0.42847239814000204, 0.44558342354139313, 0.46175919636152685, 0.4788954804535024, 0.49526547180721536, 0.5122921879519708, 0.528653304616455, 0.5456097061396576, 0.5619817455299199, 0.5789214217220433, 0.5952753704623319, 0.6122334786341526, 0.628420515509788, 0.645550996880047, 0.6619762841728516, 0.6789135710569099, 0.6952699091052637, 0.7122665879433043, 0.7284788834513165, 0.74564930080669, 0.7618895855848677, 0.7789183497661725, 0.7950098133296706, 0.8123546518618241, 0.8286396512994543, 0.845453716989141, 0.8617356444010511, 0.878682829963509, 0.8949449600768276, 0.9122184599982575, 0.9283764835563488, 0.94581860199105, 0.9619670682004653, 0.9789050377439708, 0.9952538664801978, 1.0122546412749216, 1.0283897955087014, 1.0454110503196716, 1.0619155269232579, 1.078921763051767, 1.0951084585976787, 1.112231430655811, 1.128651597944554, 1.1454738556058146]
29	animate/a71.jpg	inanimate	animate	right	1.061	[0.0, 0.0, 0.0, 0.0, 0.0, 0.0, 0.0, 0.0, 0.0, 0.0, 0.0, 0.0, 7.0, 13.0, 16.0, 16.0, 16.0, 16.0, 16.0, 17.0, 21.0, 32.0, 43.0, 58.0, 78.0, 102.0, 115.0, 144.0, 144.0, 146.0, 152.0, 161.0, 171.0, 176.0, 177.0, 178.0, 178.0, 177.0, 177.0, 177.0, 184.0, 193.0, 204.0, 226.0, 265.0, 327.0, 406.0, 471.0, 539.0, 549.0, 585.0, 607.0, 681.0, 722.0, 749.0, 776.0, 798.0, 820.0, 840.0, 854.0, 862.0, 864.0]	[-490.0, -490.0, -490.0, -490.0, -490.0, -490.0, -490.0, -490.0, -490.0, -490.0, -490.0, -490.0, -488.0, -486.0, -485.0, -485.0, -485.0, -485.0, -485.0, -484.0, -481.0, -471.0, -452.0, -424.0, -378.0, -294.0, -212.0, -68.0, -68.0, -47.0, -24.0, 1.0, 24.0, 42.0, 56.0, 64.0, 70.0, 73.0, 76.0, 82.0, 97.0, 109.0, 123.0, 143.0, 172.0, 207.0, 248.0, 276.0, 305.0, 308.0, 324.0, 332.0, 364.0, 383.0, 395.0, 405.0, 414.0, 424.0, 434.0, 439.0, 442.0, 444.0]	[0.01607965352013707, 0.02286910905968398, 0.03156764025334269, 0.044556727865710855, 0.061808041122276336, 0.07850025087827817, 0.0950159914791584, 0.1115290013840422, 0.1285249975626357, 0.14479293033946306, 0.16183125181123614, 0.1781176165677607, 0.19510542071657255, 0.211681577260606, 0.2284673122339882, 0.244695991743356, 0.26188142772298306, 0.27803398994728923, 0.29530748986871913, 0.3114228468039073, 0.3285871201660484, 0.3448355969740078, 0.36190463841194287, 0.3780469606281258, 0.3952453672536649, 0.41136618552263826, 0.42852056020637974, 0.48501152003882453, 0.494893794239033, 0.5115457266801968, 0.5286045281682163, 0.5477161065209657, 0.5619671023450792, 0.5811076940153725, 0.5951897299964912, 0.6124775658827275, 0.6285796108422801, 0.6452677245833911, 0.6617879024706781, 0.6780483259353787, 0.6949555755127221, 0.7147324119578116, 0.7283789070206694, 0.746726582001429, 0.761605289299041, 0.7810537634068169, 0.7949712768313475, 0.8144194096093997, 0.8281130085815676, 0.8462459850707091, 0.8613308575586416, 0.8785408695111983, 0.8947989036678337, 0.9117935344693251, 0.9281365605420433, 0.9452100393245928, 0.9616196252754889, 0.9784814775921404, 0.9949484075186774, 1.0117423345218413, 1.0283130297320895, 1.0451963859959505]
30	animate/a54.jpg	animate	inanimate	left	0.901	[0.0, 0.0, 0.0, 0.0, 0.0, 0.0, 0.0, 0.0, 0.0, 0.0, -1.0, -1.0, -1.0, -1.0, -2.0, -3.0, -6.0, -10.0, -13.0, -18.0, -21.0, -27.0, -30.0, -32.0, -38.0, -41.0, -50.0, -59.0, -70.0, -86.0, -104.0, -122.0, -155.0, -215.0, -285.0, -334.0, -375.0, -408.0, -462.0, -503.0, -542.0, -587.0, -631.0, -671.0, -713.0, -745.0, -763.0, -775.0, -781.0, -785.0, -789.0, -789.0, -789.0, -789.0]	[-490.0, -490.0, -490.0, -490.0, -490.0, -490.0, -490.0, -490.0, -490.0, -490.0, -485.0, -485.0, -485.0, -485.0, -484.0, -482.0, -477.0, -473.0, -470.0, -467.0, -465.0, -461.0, -459.0, -458.0, -452.0, -446.0, -427.0, -406.0, -380.0, -354.0, -322.0, -288.0, -222.0, -116.0, -28.0, 29.0, 73.0, 106.0, 156.0, 191.0, 224.0, 257.0, 287.0, 312.0, 335.0, 353.0, 364.0, 372.0, 376.0, 378.0, 382.0, 382.0, 382.0, 382.0]	[0.016042414004914463, 0.02190856367815286, 0.02905778423883021, 0.04682109708664939, 0.06299448059871793, 0.07960511179408059, 0.09612392436247319, 0.11249289172701538, 0.12924176274100319, 0.1493182896520011, 0.16264666226925328, 0.18239653337514028, 0.19598431914346293, 0.21298065665178, 0.22935781598789617, 0.2488510046969168, 0.262694448872935, 0.2804137297789566, 0.29603927372954786, 0.31526178534841165, 0.32933528802823275, 0.34772597096161917, 0.36260877427412197, 0.3798635008861311, 0.39597715117270127, 0.4137080373475328, 0.4293397253495641, 0.44624492689035833, 0.4623862251173705, 0.4796395864104852, 0.4960498550790362, 0.5128966887132265, 0.5293523546424694, 0.5462749642319977, 0.5625357290264219, 0.5794955438468605, 0.5959641804802231, 0.6128700647386722, 0.6293619119678624, 0.6462066976237111, 0.6627019582083449, 0.6794685785425827, 0.6960689697298221, 0.712840368738398, 0.729334605333861, 0.7461295563261956, 0.7624111424665898, 0.7794470745720901, 0.7960338124539703, 0.8129031740245409, 0.8293581573525444, 0.8462039669393562, 0.8626302782795392, 0.8796805464080535]
31	inanimate/n63.jpg	inanimate	animate	left	1.377	[0.0, 0.0, 0.0, 0.0, 0.0, 0.0, 0.0, 0.0, 0.0, 0.0, 0.0, 0.0, 0.0, 0.0, 0.0, 0.0, 0.0, 0.0, 0.0, 0.0, 0.0, 0.0, 0.0, 0.0, 0.0, 0.0, 0.0, 0.0, 0.0, 7.0, 21.0, 32.0, 41.0, 51.0, 62.0, 75.0, 92.0, 105.0, 105.0, 124.0, 136.0, 198.0, 222.0, 303.0, 361.0, 410.0, 462.0, 521.0, 579.0, 672.0, 699.0, 759.0, 773.0, 794.0, 797.0, 802.0, 803.0, 803.0, 803.0, 796.0, 766.0, 701.0, 610.0, 502.0, 369.0, 164.0, 13.0, -128.0, -266.0, -390.0, -494.0, -573.0, -617.0, -641.0, -654.0, -660.0, -662.0, -663.0, -664.0, -664.0, -664.0, -664.0, -664.0]	[-490.0, -490.0, -490.0, -490.0, -490.0, -490.0, -490.0, -490.0, -490.0, -490.0, -490.0, -490.0, -490.0, -490.0, -490.0, -490.0, -490.0, -490.0, -490.0, -490.0, -490.0, -490.0, -490.0, -490.0, -490.0, -490.0, -490.0, -490.0, -490.0, -480.0, -454.0, -433.0, -413.0, -391.0, -367.0, -331.0, -293.0, -164.0, -124.0, -68.0, -59.0, -19.0, -7.0, 50.0, 90.0, 122.0, 150.0, 183.0, 217.0, 268.0, 285.0, 317.0, 328.0, 345.0, 349.0, 355.0, 358.0, 359.0, 362.0, 366.0, 373.0, 383.0, 389.0, 389.0, 389.0, 389.0, 389.0, 389.0, 389.0, 389.0, 394.0, 407.0, 414.0, 416.0, 417.0, 419.0, 419.0, 419.0, 419.0, 419.0, 419.0, 419.0, 419.0]	[0.0006939983577467501, 0.006808297126553953, 0.015816076076589525, 0.03279602958355099, 0.04976062313653529, 0.06903706531738862, 0.0826521577546373, 0.09985568438423797, 0.11647757951868698, 0.13318412529770285, 0.14975243114167824, 0.1661050145048648, 0.18283954955404624, 0.19983998307725415, 0.21614204917568713, 0.23316910659195855, 0.24939095944864675, 0.2664371315622702, 0.282745000324212, 0.2998491990729235, 0.31607856118353084, 0.33323532523354515, 0.34939232480246574, 0.3664821875281632, 0.3826750270673074, 0.39995944959810004, 0.4160314572509378, 0.4332578532048501, 0.44938857009401545, 0.46648491820087656, 0.48273305367911234, 0.499878553673625, 0.5160744651802815, 0.5334012130624615, 0.5493138181627728, 0.5662241397658363, 0.5833867064211518, 0.5996143619413488, 0.6166349340346642, 0.6329175441642292, 0.649910126987379, 0.6660149025847204, 0.6835461089503951, 0.6996095832437277, 0.7166861339937896, 0.7329404134652577, 0.7500186709221452, 0.7663866142975166, 0.7865279944380745, 0.7993317381478846, 0.819971464574337, 0.8326970430207439, 0.8513007177971303, 0.8661026252084412, 0.8844642948242836, 0.8993610928300768, 0.9179634022875689, 0.932768722937908, 0.9509098914568312, 0.9660814625094645, 0.9832658745581284, 0.9995686233160086, 1.0164407155825756, 1.0329711334779859, 1.0497411671676673, 1.06625997973606, 1.0832559758564457, 1.0995655512670055, 1.1168028699466959, 1.1329598694574088, 1.1498428843915462, 1.166228235757444, 1.1845144708058797, 1.199613337928895, 1.2163185183308087, 1.2329025255166925, 1.2497971457778476, 1.2660169505979866, 1.2831856612465344, 1.2995505326543935, 1.3164765555411577, 1.3328718055272475, 1.3498292310978286]
32	animate/a62.jpg	animate	inanimate	left	0.935	[0.0, 0.0, 0.0, 0.0, 0.0, 0.0, 0.0, 0.0, 0.0, 0.0, 0.0, -1.0, -1.0, -2.0, -3.0, -3.0, -5.0, -5.0, -6.0, -7.0, -8.0, -8.0, -10.0, -13.0, -14.0, -16.0, -21.0, -31.0, -45.0, -62.0, -79.0, -100.0, -125.0, -135.0, -171.0, -233.0, -304.0, -366.0, -406.0, -441.0, -472.0, -513.0, -555.0, -598.0, -638.0, -648.0, -665.0, -678.0, -695.0, -709.0, -724.0, -734.0, -746.0, -747.0, -747.0, -747.0, -747.0]	[-490.0, -490.0, -490.0, -490.0, -490.0, -490.0, -490.0, -490.0, -490.0, -490.0, -490.0, -490.0, -485.0, -481.0, -475.0, -470.0, -465.0, -462.0, -459.0, -455.0, -451.0, -446.0, -437.0, -422.0, -413.0, -398.0, -376.0, -348.0, -316.0, -275.0, -237.0, -203.0, -166.0, -152.0, -106.0, -29.0, 40.0, 93.0, 127.0, 154.0, 179.0, 206.0, 237.0, 265.0, 290.0, 296.0, 311.0, 323.0, 336.0, 350.0, 366.0, 378.0, 394.0, 394.0, 396.0, 396.0, 396.0]	[0.011837190948426723, 0.01897856086725369, 0.024102652445435524, 0.038436250877566636, 0.055091255344450474, 0.07181589177343994, 0.08847533352673054, 0.10523410321911797, 0.12216080876532942, 0.13838573358953, 0.15541313239373267, 0.1716452252585441, 0.18859036278445274, 0.2054846417158842, 0.2219614703208208, 0.23895746644120663, 0.255236663215328, 0.2721944301156327, 0.2885511094937101, 0.30558601761003956, 0.32192904368275777, 0.3388912478694692, 0.3553011752082966, 0.37224289937876165, 0.3885828534257598, 0.4056157135637477, 0.42201642494183034, 0.4388339038705453, 0.45534896181197837, 0.47217770479619503, 0.4885490614688024, 0.5055341349798255, 0.5219082223484293, 0.5388458505622111, 0.5552595325279981, 0.5722473367350176, 0.5884674828848802, 0.6058232440846041, 0.6219392836210318, 0.6390509917400777, 0.6552554365480319, 0.6723579286481254, 0.6885203894926235, 0.7057368868263438, 0.7218665797263384, 0.7422636183327995, 0.7551922899438068, 0.7755394938867539, 0.7885685174842365, 0.809007539995946, 0.8219788782880642, 0.8416195228346623, 0.8552004819503054, 0.8750076970318332, 0.8885459894663654, 0.9068516805418767, 0.9218696517054923]
33	animate/a70.jpg	inanimate	animate	right	1.16	[0.0, 0.0, 0.0, 0.0, 0.0, 0.0, 0.0, 0.0, 0.0, 0.0, 0.0, 0.0, 0.0, 0.0, 1.0, 2.0, 3.0, 4.0, 6.0, 6.0, 6.0, 6.0, 6.0, 6.0, 6.0, 6.0, 0.0, -19.0, -51.0, -91.0, -158.0, -194.0, -238.0, -294.0, -396.0, -485.0, -541.0, -584.0, -622.0, -649.0, -662.0, -667.0, -668.0, -668.0, -669.0, -670.0, -670.0, -670.0, -670.0, -670.0, -670.0, -641.0, -616.0, -499.0, -396.0, -277.0, -136.0, 12.0, 187.0, 345.0, 481.0, 600.0, 713.0, 822.0, 841.0, 859.0, 859.0, 859.0, 859.0, 859.0]	[-490.0, -490.0, -490.0, -490.0, -490.0, -490.0, -490.0, -490.0, -490.0, -490.0, -490.0, -490.0, -490.0, -490.0, -485.0, -482.0, -479.0, -473.0, -459.0, -447.0, -431.0, -416.0, -402.0, -385.0, -359.0, -326.0, -276.0, -208.0, -126.0, -61.0, 30.0, 70.0, 111.0, 158.0, 237.0, 296.0, 331.0, 357.0, 375.0, 389.0, 398.0, 402.0, 403.0, 404.0, 406.0, 408.0, 409.0, 409.0, 409.0, 409.0, 409.0, 412.0, 412.0, 412.0, 415.0, 432.0, 453.0, 472.0, 494.0, 504.0, 506.0, 506.0, 506.0, 506.0, 506.0, 506.0, 506.0, 506.0, 506.0, 506.0]	[0.010358194820582867, 0.015240281354635954, 0.02147165732458234, 0.03586498904041946, 0.05235103366430849, 0.06923643790651113, 0.08557570929406211, 0.10261095879832283, 0.11904580343980342, 0.13594998099142686, 0.15227559907361865, 0.1692739845602773, 0.1857166798436083, 0.20259696413995698, 0.21903590473812073, 0.23591106903040782, 0.25240394030697644, 0.2692152753006667, 0.28569483454339206, 0.3026024254504591, 0.3193345711915754, 0.3360769568826072, 0.3524943935335614, 0.36928627255838364, 0.38570200256071985, 0.4026058387826197, 0.4190202034660615, 0.4358346104272641, 0.45243192958878353, 0.469250432564877, 0.485665479907766, 0.5025846761418507, 0.5188717235578224, 0.5359472503187135, 0.5521172205335461, 0.5692548698862083, 0.5854651174158789, 0.6026276840711944, 0.6187904863036238, 0.6360103969345801, 0.6521377005265094, 0.6692360966117121, 0.6854808187345043, 0.7026945853722282, 0.7188741128775291, 0.7362001781002618, 0.7522346390760504, 0.7693326938315295, 0.7854384934180416, 0.8023259456967935, 0.8193516377941705, 0.8357636131695472, 0.8526906600454822, 0.8690586034208536, 0.8862884127302095, 0.9024361962801777, 0.9195677016396075, 0.9358158371178433, 0.9528463078895584, 0.968893398239743, 0.9861791861476377, 1.0022187671274878, 1.0223796032369137, 1.0355543760233559, 1.055893387994729, 1.0688599475543015, 1.0893996633822098, 1.1022170604555868, 1.1225943017052487, 1.1355318480054848]
