trialIndex	stimulus	left_option	right_option	response	response_time	xTrajectory	yTrajectory	tTrajectory
0	animate/a73.jpg	animate	inanimate	left	1.278	[0.0, 0.0, 0.0, 0.0, 0.0, 0.0, 0.0, 0.0, 0.0, 0.0, 0.0, 0.0, -2.0, -7.0, -8.0, -14.0, -27.0, -27.0, -18.0, -6.0, 19.0, 36.0, 41.0, 41.0, 41.0, 41.0, 41.0, 41.0, 41.0, 41.0, 41.0, 41.0, 55.0, 79.0, 104.0, 138.0, 195.0, 275.0, 358.0, 461.0, 643.0, 745.0, 801.0, 826.0, 830.0, 830.0, 830.0, 818.0, 798.0, 770.0, 738.0, 699.0, 647.0, 499.0, 353.0, 183.0, 15.0, -155.0, -322.0, -473.0, -592.0, -684.0, -730.0, -748.0, -751.0, -751.0, -747.0, -744.0, -742.0, -739.0, -739.0, -736.0, -735.0, -733.0, -733.0, -733.0, -733.0]	[-490.0, -490.0, -490.0, -490.0, -490.0, -490.0, -490.0, -490.0, -490.0, -490.0, -490.0, -490.0, -485.0, -462.0, -415.0, -335.0, -240.0, -198.0, -195.0, -195.0, -200.0, -212.0, -217.0, -217.0, -217.0, -217.0, -217.0, -217.0, -217.0, -217.0, -217.0, -217.0, -214.0, -196.0, -168.0, -109.0, -10.0, 101.0, 193.0, 258.0, 297.0, 297.0, 299.0, 299.0, 299.0, 299.0, 299.0, 299.0, 299.0, 299.0, 299.0, 299.0, 299.0, 299.0, 299.0, 299.0, 299.0, 299.0, 299.0, 299.0, 299.0, 310.0, 321.0, 327.0, 331.0, 335.0, 337.0, 338.0, 339.0, 339.0, 340.0, 342.0, 345.0, 352.0, 358.0, 359.0, 359.0]	[0.009605422288586851, 0.01431001721357461, 0.019859753039781936, 0.034447990903572645, 0.05069647324853577, 0.0678709924541181, 0.08419866409531096, 0.10117486873787129, 0.11767013496137224, 0.1345220943330787, 0.15086444329790538, 0.16780685595585965, 0.18420654889632715, 0.20119572419207543, 0.21748926251893863, 0.23454158445383655, 0.2508433147741016, 0.26780620742647443, 0.28404888710792875, 0.30123842497414444, 0.3176162725867471, 0.3345006586096133, 0.35098500216554385, 0.36792741483077407, 0.38431925710028736, 0.4011746298056096, 0.41752585343056126, 0.434510591403523, 0.4506078631602577, 0.4678840996493818, 0.4842145019574673, 0.5012043599199387, 0.517335764998279, 0.5344345082412474, 0.5509891664332827, 0.5678564857953461, 0.5841606054527801, 0.6011443194220192, 0.6174163537580171, 0.6345495716523146, 0.6508553979656426, 0.6678503759321757, 0.6841882875669398, 0.7012133028547396, 0.7175256144982995, 0.7345171791312168, 0.7508335867823916, 0.7678213967519696, 0.7841992443645722, 0.8011867129971506, 0.8177058725414099, 0.834522674595064, 0.8508749222237384, 0.8678115322181839, 0.8839798012777464, 0.9012143951185863, 0.9176628986970172, 0.9345370447263122, 0.9508896336847101, 0.9678115663555218, 0.9842208166155615, 1.0011956559246755, 1.0172263677231967, 1.0345067002053838, 1.0508947878115578, 1.0678464164666366, 1.0841600934509188, 1.1012212900459417, 1.1175086843722966, 1.134499225008767, 1.150835771310085, 1.167829042613448, 1.1841635409145965, 1.2011373562272638, 1.2172752466285601, 1.2343419045573683, 1.2507869948021835]
1	animate/a66.jpg	animate	inanimate	left	0.998	[0.0, 0.0, 0.0, 0.0, 0.0, 0.0, 0.0, 0.0, 0.0, 0.0, 0.0, 0.0, 0.0, 0.0, 0.0, 0.0, 0.0, 3.0, 8.0, 12.0, 17.0, 22.0, 22.0, 22.0, 22.0, 22.0, 22.0, 22.0, 23.0, 37.0, 58.0, 102.0, 158.0, 206.0, 252.0, 285.0, 309.0, 324.0, 330.0, 330.0, 325.0, 301.0, 272.0, 233.0, 185.0, 119.0, 29.0, -82.0, -198.0, -312.0, -409.0, -507.0, -587.0, -651.0, -716.0, -732.0, -742.0, -747.0, -752.0, -752.0, -752.0]	[-490.0, -492.0, -492.0, -492.0, -492.0, -492.0, -492.0, -492.0, -492.0, -492.0, -492.0, -493.0, -493.0, -494.0, -494.0, -494.0, -494.0, -495.0, -495.0, -495.0, -495.0, -499.0, -499.0, -499.0, -499.0, -499.0, -499.0, -499.0, -499.0, -494.0, -471.0, -427.0, -360.0, -257.0, -134.0, -15.0, 100.0, 192.0, 233.0, 250.0, 255.0, 263.0, 268.0, 273.0, 278.0, 281.0, 281.0, 281.0, 281.0, 281.0, 283.0, 294.0, 315.0, 339.0, 378.0, 394.0, 406.0, 413.0, 418.0, 418.0, 418.0]	[0.006499870811239816, 0.011444764277257491, 0.016835780181281734, 0.027903849186259322, 0.04475853921758244, 0.061655554571188986, 0.0781870021019131, 0.09513658275682246, 0.1113130438097869, 0.1283073391095968, 0.14454797079815762, 0.16174877265439136, 0.17816587358538527, 0.19507790759234922, 0.21127348329900997, 0.22831624790705973, 0.24455039425811265, 0.2615027055799146, 0.27820038236677647, 0.29511890170397237, 0.3114810479892185, 0.32839547133335145, 0.3447992602668819, 0.36172733693092596, 0.378151605858875, 0.3950807065193658, 0.4115022447804222, 0.42842827345157275, 0.4447852997400332, 0.4617205444010324, 0.478209666624025, 0.49514661795547, 0.5116272068480612, 0.528478824890044, 0.5447901125371573, 0.5617506158523611, 0.5781243674719008, 0.5950886254504439, 0.6115084570410545, 0.6284167363846791, 0.6446365467490978, 0.6615963673975784, 0.6778677190668532, 0.6949866009672405, 0.7116535577733885, 0.7284290585157578, 0.74480724746536, 0.761715185471985, 0.7781493530565058, 0.7950944963813527, 0.8115331012959359, 0.8284424046432832, 0.8447755376109853, 0.8617773422374739, 0.8781640645174775, 0.895136173159699, 0.911524943432596, 0.9283919214649359, 0.944783081075002, 0.9616783897581627, 0.9781743386411108]
2	animate/a65.jpg	animate	inanimate	left	1.017	[0.0, 0.0, 0.0, 0.0, 0.0, 0.0, 0.0, 0.0, 0.0, 7.0, 18.0, 31.0, 49.0, 62.0, 74.0, 80.0, 85.0, 87.0, 84.0, 82.0, 82.0, 82.0, 82.0, 83.0, 87.0, 105.0, 108.0, 113.0, 113.0, 93.0, 62.0, 37.0, 21.0, -6.0, -55.0, -118.0, -190.0, -300.0, -372.0, -454.0, -521.0, -588.0, -649.0, -697.0, -733.0, -750.0, -752.0, -752.0, -752.0, -752.0, -752.0, -752.0, -752.0, -753.0, -753.0, -756.0, -761.0, -764.0, -767.0, -767.0, -767.0]	[-490.0, -490.0, -490.0, -490.0, -490.0, -490.0, -490.0, -490.0, -490.0, -481.0, -465.0, -447.0, -421.0, -411.0, -407.0, -407.0, -410.0, -425.0, -444.0, -463.0, -466.0, -466.0, -466.0, -470.0, -470.0, -463.0, -455.0, -440.0, -418.0, -367.0, -287.0, -195.0, -94.0, 3.0, 111.0, 198.0, 270.0, 341.0, 381.0, 425.0, 465.0, 503.0, 536.0, 540.0, 540.0, 540.0, 540.0, 540.0, 540.0, 540.0, 540.0, 540.0, 540.0, 540.0, 540.0, 537.0, 514.0, 490.0, 470.0, 461.0, 460.0]	[0.002047862421022728, 0.007361054369539488, 0.01898208308557514, 0.03575075716798892, 0.05206853014533408, 0.06937992394523462, 0.0857202249171678, 0.10257696294866037, 0.11894934923475375, 0.13590916988323443, 0.15243447342072614, 0.1692864327924326, 0.18561000844056252, 0.20247425580600975, 0.21898795401648385, 0.23593787600111682, 0.2523187956176116, 0.26924141094787046, 0.2856274505611509, 0.3025725938859978, 0.3189743348193588, 0.3358515528452699, 0.35225909644941567, 0.3692004851036472, 0.38562338869814994, 0.402638505322102, 0.41878595305024646, 0.4359044936209102, 0.4523864478469477, 0.469284487197001, 0.4856261534951045, 0.5025880221437546, 0.5188429898189497, 0.5359758663835237, 0.5520775754703209, 0.5691285320790485, 0.5856203849689336, 0.6025020403249073, 0.618873402607278, 0.6359270898756222, 0.6521267615826218, 0.669307083451713, 0.6853490592402522, 0.702505487788585, 0.718947506036784, 0.7358718280374887, 0.7522920009650989, 0.7692531869470258, 0.7856259145628428, 0.8025365832363605, 0.8190229747997364, 0.8359005341553711, 0.852315245749196, 0.8692392264201771, 0.8853467381704831, 0.9026137586624827, 0.9189165129864705, 0.9358435656540678, 0.952270906571357, 0.9692508658772567, 0.985595945508976]
3	animate/a21.jpg	animate	inanimate	left	0.946	[0.0, 0.0, 0.0, 0.0, 0.0, 0.0, 0.0, -7.0, -19.0, -29.0, -31.0, -30.0, -28.0, -28.0, -32.0, -32.0, -32.0, -32.0, -32.0, -32.0, -32.0, -32.0, -31.0, -24.0, -17.0, -17.0, -5.0, 27.0, 86.0, 139.0, 187.0, 238.0, 308.0, 335.0, 342.0, 342.0, 337.0, 317.0, 276.0, 187.0, 78.0, -41.0, -146.0, -248.0, -382.0, -458.0, -526.0, -588.0, -661.0, -735.0, -788.0, -823.0, -847.0, -864.0, -876.0, -880.0, -880.0, -880.0]	[-490.0, -490.0, -490.0, -490.0, -490.0, -490.0, -490.0, -488.0, -471.0, -444.0, -414.0, -371.0, -326.0, -287.0, -259.0, -241.0, -240.0, -240.0, -240.0, -240.0, -240.0, -240.0, -243.0, -255.0, -264.0, -266.0, -256.0, -228.0, -180.0, -116.0, -36.0, 52.0, 200.0, 272.0, 306.0, 314.0, 317.0, 319.0, 321.0, 321.0, 324.0, 339.0, 350.0, 360.0, 364.0, 364.0, 364.0, 364.0, 364.0, 364.0, 367.0, 370.0, 377.0, 385.0, 394.0, 397.0, 397.0, 397.0]	[0.005710025878215674, 0.010302663533366285, 0.015475567546673119, 0.02662214317388134, 0.04302320144051919, 0.060079960712755565, 0.07633185639133444, 0.09359239155310206, 0.10993200985103613, 0.12694029981503263, 0.14310003553691786, 0.1601998027836089, 0.17659027972695185, 0.19356580170278903, 0.2099187319909106, 0.2269478432717733, 0.24339600552048068, 0.2603012128674891, 0.2763718606365728, 0.29338015059329337, 0.30986176348960726, 0.3268410401287838, 0.3433212876916514, 0.360202943047625, 0.3765971746543073, 0.3935672352963593, 0.4098344909725711, 0.42689329823770095, 0.44322199387534056, 0.46021663050487405, 0.4765719501301646, 0.49367171737685567, 0.5099597943699337, 0.5268964043643791, 0.5433012173016323, 0.5602880032674875, 0.5765078136319062, 0.5935584289036342, 0.6096673059873865, 0.6268684491806198, 0.6432237688059104, 0.6602491254234337, 0.6765440290837432, 0.6935693857012666, 0.7099209506559419, 0.7268886219681008, 0.7429971577221295, 0.7601955702484702, 0.7766068685159553, 0.7935919478186406, 0.8101281740164268, 0.8268596427878947, 0.843222471739864, 0.860215060376504, 0.8766109986463562, 0.8935711606318364, 0.9099585655712872, 0.9268764022417599]
4	animate/a41.jpg	inanimate	animate	right	1.264	[0.0, 0.0, 0.0, 0.0, -2.0, -2.0, -2.0, -2.0, -2.0, -2.0, -1.0, 1.0, 7.0, 8.0, 9.0, 9.0, 9.0, 9.0, 9.0, 11.0, 11.0, 11.0, 12.0, 8.0, 1.0, -7.0, -19.0, -39.0, -78.0, -123.0, -165.0, -212.0, -269.0, -329.0, -385.0, -469.0, -520.0, -576.0, -625.0, -659.0, -679.0, -688.0, -690.0, -690.0, -694.0, -704.0, -717.0, -731.0, -742.0, -758.0, -775.0, -783.0, -785.0, -785.0, -785.0, -785.0, -778.0, -711.0, -578.0, -322.0, -155.0, 12.0, 177.0, 347.0, 490.0, 612.0, 685.0, 715.0, 735.0, 742.0, 742.0, 742.0, 743.0, 743.0, 743.0, 743.0]	[-490.0, -490.0, -490.0, -489.0, -486.0, -485.0, -484.0, -481.0, -478.0, -474.0, -472.0, -471.0, -473.0, -475.0, -477.0, -478.0, -479.0, -479.0, -479.0, -481.0, -481.0, -481.0, -481.0, -474.0, -465.0, -452.0, -431.0, -400.0, -348.0, -285.0, -215.0, -143.0, -68.0, -3.0, 46.0, 113.0, 159.0, 204.0, 246.0, 275.0, 293.0, 306.0, 309.0, 310.0, 313.0, 319.0, 333.0, 369.0, 393.0, 421.0, 449.0, 466.0, 469.0, 469.0, 469.0, 469.0, 470.0, 460.0, 442.0, 424.0, 424.0, 424.0, 424.0, 424.0, 424.0, 424.0, 424.0, 424.0, 424.0, 424.0, 424.0, 424.0, 426.0, 428.0, 429.0, 429.0]	[0.007870323439419735, 0.015075525087013375, 0.030617447795521002, 0.04769059105456108, 0.06407970266445773, 0.08096204068715451, 0.09740030427201418, 0.11431029027880868, 0.1306444472502335, 0.1476360118831508, 0.16400703283579787, 0.18096241615421604, 0.19733070643997053, 0.21426970576430904, 0.23072230534307892, 0.24767802999122068, 0.26399989896890474, 0.2810006795989466, 0.29724404194712406, 0.31423970258038025, 0.3306707981682848, 0.34756815485161496, 0.3640941410558298, 0.38099183906888356, 0.39733282270026393, 0.4143912886356702, 0.4305411257009837, 0.4477381728938781, 0.4639876792425639, 0.48098265720909694, 0.4973468514945125, 0.5144077067598118, 0.5304097465705127, 0.5475788044423098, 0.5640273080207407, 0.5809994166629622, 0.5973144589806907, 0.6142046476670657, 0.6307412152018514, 0.6476791905224673, 0.6640744461328723, 0.6810090081271483, 0.6973609144188231, 0.7142988897467148, 0.7307200866780477, 0.7476392886819667, 0.7640454669453902, 0.7809534049592912, 0.7973312525718939, 0.8143579745228635, 0.8304327182922862, 0.8476222561585018, 0.8639898637775332, 0.8809848417367903, 0.8970732388334, 0.9142767713638023, 0.930577136350621, 0.9476762209305889, 0.9640919565208605, 0.9809770252104499, 0.9974699020967819, 1.014363162787049, 1.0308038157018018, 1.0476800097239902, 1.0639854947075946, 1.0809869580043596, 1.097355248290114, 1.1143000502852374, 1.1307232952094637, 1.1476128012291156, 1.1638192995960708, 1.1809856268082513, 1.1973986317389063, 1.2143424097303068, 1.2305809934114222, 1.2475630007174914]
5	inanimate/n76.jpg	inanimate	animate	left	1.132	[0.0, 0.0, 0.0, 0.0, 0.0, 0.0, 0.0, -3.0, -4.0, -4.0, -4.0, -4.0, -4.0, -4.0, -4.0, -4.0, -3.0, -3.0, -3.0, -3.0, 3.0, 5.0, 13.0, 22.0, 28.0, 33.0, 33.0, 33.0, 40.0, 66.0, 112.0, 184.0, 243.0, 297.0, 331.0, 344.0, 353.0, 362.0, 375.0, 398.0, 423.0, 451.0, 508.0, 583.0, 659.0, 716.0, 754.0, 781.0, 805.0, 831.0, 848.0, 848.0, 840.0, 761.0, 607.0, 411.0, 192.0, -7.0, -196.0, -369.0, -525.0, -658.0, -793.0, -831.0, -849.0, -853.0, -853.0, -853.0]	[-490.0, -490.0, -490.0, -490.0, -490.0, -490.0, -489.0, -486.0, -484.0, -481.0, -478.0, -478.0, -478.0, -478.0, -478.0, -478.0, -481.0, -481.0, -481.0, -481.0, -481.0, -481.0, -475.0, -461.0, -451.0, -423.0, -413.0, -378.0, -342.0, -266.0, -160.0, -37.0, 64.0, 141.0, 190.0, 210.0, 222.0, 232.0, 239.0, 249.0, 258.0, 270.0, 295.0, 324.0, 350.0, 366.0, 375.0, 380.0, 384.0, 390.0, 396.0, 396.0, 396.0, 391.0, 368.0, 348.0, 348.0, 346.0, 346.0, 346.0, 346.0, 346.0, 356.0, 360.0, 367.0, 369.0, 369.0, 369.0]	[0.014975275531469379, 0.020584744663210586, 0.028385231336869765, 0.0451754094028729, 0.06199664879386546, 0.07840624039090471, 0.09543398633832112, 0.11155583408253733, 0.1285781187034445, 0.14507611558656208, 0.16197449626633897, 0.17823048794525675, 0.19531830852793064, 0.2115425562224118, 0.22871707542799413, 0.24514851235289825, 0.2621148183316109, 0.2784981272779987, 0.29543883326550713, 0.3116159769851947, 0.328741344215814, 0.3449307759292424, 0.361963983210444, 0.37848860408121254, 0.3954327234023367, 0.41179828302847454, 0.42878848232794553, 0.44510659664229024, 0.46213024658936774, 0.4783316249595373, 0.4954221762091038, 0.511760087843868, 0.5287465324799996, 0.5448912495485274, 0.5620330007732264, 0.5784883310116129, 0.595501740972395, 0.6118574019274092, 0.6287803585946676, 0.6448755823585088, 0.6619299522935762, 0.6785402477908065, 0.695438969800307, 0.7117983854259364, 0.728753427414631, 0.7450077124231029, 0.7620098583865911, 0.7786150338797597, 0.7954884972423315, 0.8118066115566762, 0.8289142294597696, 0.845119703830278, 0.8621088791333023, 0.8782901188460528, 0.8953659927719855, 0.9118660376552725, 0.9287685143353883, 0.945113252637384, 0.962105841266748, 0.9784935875431984, 0.9954438508648309, 1.0118432024682988, 1.0287726444657892, 1.0450583321289741, 1.0621024620704702, 1.078507616337447, 1.0954971329701948, 1.1117736046362552]
6	inanimate/n4.jpg	inanimate	animate	left	1.197	[0.0, 0.0, 0.0, 0.0, 0.0, 0.0, 0.0, 0.0, 2.0, 2.0, 3.0, 4.0, -3.0, -15.0, -19.0, -19.0, -21.0, -21.0, -21.0, -21.0, -21.0, -21.0, -22.0, -22.0, -22.0, -21.0, -18.0, -11.0, 1.0, 13.0, 27.0, 46.0, 77.0, 120.0, 168.0, 205.0, 235.0, 239.0, 239.0, 239.0, 244.0, 272.0, 312.0, 360.0, 384.0, 389.0, 380.0, 336.0, 255.0, 74.0, -85.0, -252.0, -385.0, -493.0, -566.0, -625.0, -672.0, -695.0, -710.0, -719.0, -729.0, -745.0, -751.0, -752.0, -754.0, -755.0, -759.0, -762.0, -764.0, -768.0, -768.0, -768.0]	[-490.0, -490.0, -490.0, -490.0, -490.0, -490.0, -490.0, -490.0, -490.0, -490.0, -490.0, -486.0, -480.0, -473.0, -471.0, -471.0, -469.0, -469.0, -469.0, -469.0, -469.0, -469.0, -469.0, -469.0, -469.0, -470.0, -467.0, -462.0, -448.0, -431.0, -405.0, -360.0, -280.0, -190.0, -122.0, -76.0, -44.0, -27.0, -7.0, 13.0, 36.0, 67.0, 97.0, 135.0, 166.0, 195.0, 216.0, 234.0, 241.0, 241.0, 241.0, 241.0, 243.0, 255.0, 266.0, 281.0, 294.0, 304.0, 310.0, 314.0, 318.0, 322.0, 325.0, 325.0, 328.0, 333.0, 340.0, 347.0, 356.0, 364.0, 364.0, 364.0]	[0.014069035998545587, 0.019650174472189974, 0.026484346977667883, 0.04337385299731977, 0.06038419095420977, 0.07642958006908884, 0.09339417938463157, 0.11000003755179932, 0.12698784752137726, 0.14311413259565597, 0.1601985398447141, 0.17672213671903592, 0.19365123738680268, 0.21000211968203075, 0.2269868576549925, 0.24333193728671176, 0.26033544857637025, 0.27671397885569604, 0.2935843702216516, 0.3097635619342327, 0.3269384224768146, 0.34346406735130586, 0.36033377604326233, 0.3766730530114728, 0.3936632523109438, 0.4098110413760878, 0.42700979523942806, 0.443418021503021, 0.4603628234981443, 0.476658409817901, 0.49363939312752336, 0.5100424993943307, 0.5269907147157937, 0.5433999649831094, 0.5603280416471534, 0.5766976972663542, 0.5936844832394854, 0.6101019255002029, 0.6269972341833636, 0.643387369789707, 0.6603096437902423, 0.6766741794126574, 0.6936657440455747, 0.7099964876833837, 0.7269754229928367, 0.7431358413814451, 0.7602369739615824, 0.7766670455457643, 0.7937060554904747, 0.8100296311313286, 0.8268928545003291, 0.8433802700601518, 0.8602998133937945, 0.8766937036707532, 0.8936610336459125, 0.90986889735359, 0.9269075659613009, 0.9434362828324083, 0.9603336395084625, 0.9766899831374758, 0.9936952010975801, 1.0100218487350503, 1.0270352586958325, 1.0433619063333026, 1.060293737667962, 1.0766893346080906, 1.0936658805803745, 1.1100194935424952, 1.1269724875237443, 1.1434049484450952, 1.160271926477435, 1.1766644514209474]
7	inanimate/n9.jpg	animate	inanimate	right	2.251	[0.0, 0.0, 0.0, 0.0, 0.0, 0.0, 0.0, 0.0, 0.0, 0.0, 0.0, 0.0, 0.0, 0.0, 0.0, 0.0, 0.0, 0.0, 0.0, 0.0, 0.0, 0.0, 0.0, 0.0, 0.0, 0.0, 10.0, 51.0, 117.0, 214.0, 333.0, 466.0, 587.0, 687.0, 760.0, 806.0, 812.0, 812.0, 812.0, 803.0, 783.0, 759.0, 718.0, 656.0, 567.0, 472.0, 359.0, 172.0, 7.0, -160.0, -298.0, -406.0, -503.0, -606.0, -701.0, -780.0, -829.0, -897.0, -916.0, -951.0, -960.0, -960.0, -960.0, -960.0, -960.0, -957.0, -950.0, -929.0, -898.0, -823.0, -764.0, -704.0, -647.0, -611.0, -593.0, -589.0, -589.0, -589.0, -589.0, -589.0, -589.0, -612.0, -623.0, -658.0, -682.0, -704.0, -723.0, -731.0, -734.0, -734.0, -734.0, -734.0, -734.0, -734.0, -734.0, -734.0, -734.0, -734.0, -734.0, -733.0, -726.0, -711.0, -679.0, -595.0, -473.0, -265.0, -106.0, 59.0, 205.0, 345.0, 472.0, 578.0, 659.0, 708.0, 739.0, 754.0, 756.0, 756.0, 756.0, 756.0, 756.0, 756.0, 756.0, 756.0, 756.0, 756.0, 756.0, 756.0, 756.0, 756.0, 756.0, 756.0, 756.0, 756.0, 756.0]	[-490.0, -490.0, -490.0, -490.0, -490.0, -490.0, -490.0, -490.0, -490.0, -490.0, -490.0, -490.0, -490.0, -490.0, -490.0, -490.0, -490.0, -490.0, -490.0, -490.0, -490.0, -490.0, -490.0, -490.0, -490.0, -490.0, -479.0, -441.0, -373.0, -270.0, -135.0, 16.0, 166.0, 296.0, 390.0, 438.0, 443.0, 443.0, 443.0, 442.0, 435.0, 427.0, 414.0, 397.0, 375.0, 358.0, 346.0, 346.0, 346.0, 346.0, 346.0, 346.0, 346.0, 346.0, 346.0, 346.0, 346.0, 346.0, 346.0, 346.0, 346.0, 346.0, 346.0, 346.0, 346.0, 347.0, 348.0, 351.0, 356.0, 366.0, 373.0, 381.0, 389.0, 394.0, 396.0, 397.0, 397.0, 397.0, 397.0, 397.0, 399.0, 407.0, 410.0, 418.0, 422.0, 425.0, 426.0, 426.0, 426.0, 426.0, 426.0, 426.0, 426.0, 426.0, 426.0, 426.0, 426.0, 426.0, 426.0, 426.0, 426.0, 426.0, 421.0, 412.0, 408.0, 408.0, 408.0, 408.0, 408.0, 408.0, 408.0, 408.0, 408.0, 408.0, 408.0, 408.0, 408.0, 408.0, 408.0, 408.0, 408.0, 408.0, 408.0, 408.0, 408.0, 408.0, 408.0, 408.0, 408.0, 408.0, 408.0, 408.0, 408.0, 408.0, 408.0]	[0.015485909942071885, 0.021516584187338594, 0.031636088344384916, 0.04627211284969235, 0.06324558682536008, 0.07958691179374, 0.09658530308661284, 0.1128897640737705, 0.12978848609054694, 0.1461178643949097, 0.1630363837321056, 0.17951902062486624, 0.19651024392805994, 0.212925638188608, 0.22981685087142978, 0.2460765972136869, 0.2631009298347635, 0.27959824405115796, 0.29658503002428915, 0.3129113363320357, 0.32975544504006393, 0.3462008766218787, 0.3630733159807278, 0.3795781395310769, 0.39650314419850474, 0.412961887770507, 0.42989474310161313, 0.44618384409113787, 0.4631395687465556, 0.47957680832769256, 0.4965014716653968, 0.5128270953064202, 0.5298381159300334, 0.5462681875142152, 0.5631925095221959, 0.5795246184934513, 0.5964421138269245, 0.6129407933840412, 0.6299326993466821, 0.6461914216924924, 0.6631478290073574, 0.6795669779385207, 0.6965213372532162, 0.7127189609600464, 0.7298730001784861, 0.7461975998230628, 0.7632058897797833, 0.7796543933582143, 0.7967002299628803, 0.8129394963179948, 0.8298651836521458, 0.8459593834122643, 0.8631694012656226, 0.8794632809222094, 0.8965012668631971, 0.912624138611136, 0.9297713511623442, 0.9461758227625978, 0.9632121020404156, 0.9795360190182691, 0.9965002769968123, 1.0128695912862895, 1.0297710439626826, 1.046170054236427, 1.0631530855389428, 1.0795305918218219, 1.096512599127891, 1.1128843027399853, 1.1298727953762864, 1.1463697682629572, 1.163240842295636, 1.1796623805566924, 1.1965177532547386, 1.2129283688555006, 1.2298970641641063, 1.246217567808344, 1.263123116485076, 1.2795170067620347, 1.2965270033819252, 1.312901437668188, 1.3298469223227585, 1.3462012179516023, 1.3631992679147515, 1.379382896964671, 1.3965167975256918, 1.4126502505969256, 1.4297960978146875, 1.4462050067522796, 1.4632156860388932, 1.4795283390194527, 1.4965366289834492, 1.5128922899384634, 1.5297817959581153, 1.5459889769917936, 1.5630805522450828, 1.5795553384741652, 1.5964233405029518, 1.6128697960812133, 1.6298081127461046, 1.646193469692662, 1.663122229023429, 1.6795461566143786, 1.696496419936011, 1.7126288490107981, 1.7297897148891934, 1.7459385279507842, 1.762899031265988, 1.7795407294179313, 1.7965647207020083, 1.8129569043085212, 1.8298426556575578, 1.8461945619565086, 1.86322947590088, 1.8794912702433066, 1.8965234535207856, 1.91289345046971, 1.9297556498422637, 1.9462133694105432, 1.9630738621126511, 1.9794032404170139, 1.9963664743991103, 2.012907820600958, 2.029857742585591, 2.046202139550587, 2.0630568295891862, 2.0795189864948043, 2.0964269245014293, 2.1126228415450896, 2.1297130514576565, 2.146198077687586, 2.163090997040854, 2.179295106077916, 2.1963057853645296, 2.2126730516538373, 2.229773160230252]
8	animate/a25.jpg	inanimate	animate	right	1.157	[0.0, 0.0, 0.0, 0.0, 0.0, 0.0, 0.0, 0.0, 0.0, 3.0, 15.0, 17.0, 23.0, 23.0, 23.0, 23.0, 23.0, 23.0, 23.0, 24.0, 23.0, 23.0, 22.0, 22.0, 22.0, 22.0, 26.0, 45.0, 87.0, 150.0, 225.0, 309.0, 388.0, 454.0, 505.0, 543.0, 553.0, 553.0, 553.0, 553.0, 545.0, 525.0, 487.0, 428.0, 350.0, 281.0, 247.0, 239.0, 239.0, 262.0, 337.0, 441.0, 536.0, 626.0, 712.0, 785.0, 844.0, 877.0, 891.0, 891.0, 891.0, 891.0, 891.0, 891.0, 891.0, 891.0, 891.0, 891.0, 891.0, 891.0]	[-490.0, -490.0, -490.0, -490.0, -491.0, -491.0, -491.0, -491.0, -491.0, -486.0, -477.0, -476.0, -475.0, -475.0, -475.0, -475.0, -475.0, -475.0, -475.0, -475.0, -477.0, -478.0, -478.0, -472.0, -460.0, -438.0, -403.0, -343.0, -256.0, -156.0, -50.0, 46.0, 135.0, 201.0, 244.0, 270.0, 279.0, 280.0, 280.0, 280.0, 282.0, 286.0, 293.0, 306.0, 328.0, 340.0, 346.0, 346.0, 347.0, 362.0, 392.0, 411.0, 426.0, 440.0, 449.0, 449.0, 452.0, 454.0, 457.0, 457.0, 457.0, 457.0, 457.0, 457.0, 457.0, 457.0, 457.0, 457.0, 457.0, 457.0]	[0.01639726947178133, 0.024467750670737587, 0.031093709942069836, 0.048128623886441346, 0.064223506313283, 0.08126524692488601, 0.09778918512893142, 0.11475514977792045, 0.13090089084289502, 0.1480528820611653, 0.1644672523252666, 0.18143594763387227, 0.19775576861138688, 0.21481559988023946, 0.2311145995336119, 0.24803653220442357, 0.26426965455902973, 0.2813806857957388, 0.2976912907761289, 0.3148146100138547, 0.3312190816141083, 0.348009601017111, 0.3644987232401036, 0.3813687732690596, 0.3977763168659294, 0.4148081588136847, 0.43121911574417027, 0.44815572573861573, 0.46445472539926413, 0.4814630153559847, 0.49777498566982104, 0.5148109236106393, 0.5311406432520016, 0.548119237224455, 0.5644636341894511, 0.5814309641718864, 0.5977999371243641, 0.6147263071252382, 0.6310997174077784, 0.6481004980378202, 0.6644506976663251, 0.6814395316323498, 0.6978310325721395, 0.714810309211316, 0.7311366155190626, 0.7481292041557026, 0.7643264865255333, 0.7815289950522128, 0.7977156960987486, 0.8148188766790554, 0.8309263884293614, 0.8481674676004332, 0.8642493793668109, 0.8814570078902761, 0.8975761249748757, 0.9148090121452697, 0.9309219852293609, 0.9481746697347262, 0.9642606774941669, 0.9814539700237219, 0.9975795724385534, 1.0148308916031965, 1.0309332833567169, 1.0481630985377706, 1.0642671969617368, 1.0815041801324696, 1.0975963318924187, 1.114880419045221, 1.1308964535128325, 1.1480914527055575]
9	inanimate/n4.jpg	animate	inanimate	right	1.117	[0.0, 0.0, 0.0, 0.0, 0.0, 0.0, 0.0, 0.0, 0.0, 2.0, 6.0, 10.0, 10.0, 11.0, 11.0, 11.0, 11.0, 11.0, 11.0, 11.0, 11.0, 13.0, 20.0, 24.0, 32.0, 45.0, 69.0, 113.0, 192.0, 296.0, 408.0, 549.0, 626.0, 671.0, 688.0, 689.0, 689.0, 675.0, 645.0, 603.0, 551.0, 487.0, 395.0, 198.0, 55.0, -75.0, -175.0, -235.0, -272.0, -291.0, -301.0, -302.0, -290.0, -233.0, -75.0, 38.0, 173.0, 308.0, 446.0, 560.0, 658.0, 726.0, 762.0, 777.0, 778.0, 778.0, 778.0]	[-490.0, -490.0, -490.0, -490.0, -490.0, -490.0, -490.0, -490.0, -489.0, -489.0, -489.0, -488.0, -488.0, -488.0, -488.0, -488.0, -488.0, -488.0, -488.0, -488.0, -488.0, -488.0, -485.0, -485.0, -481.0, -467.0, -436.0, -375.0, -272.0, -131.0, 3.0, 181.0, 270.0, 317.0, 328.0, 330.0, 330.0, 330.0, 328.0, 322.0, 314.0, 311.0, 311.0, 311.0, 331.0, 347.0, 361.0, 370.0, 384.0, 395.0, 407.0, 414.0, 420.0, 431.0, 446.0, 446.0, 446.0, 446.0, 446.0, 446.0, 448.0, 450.0, 451.0, 455.0, 455.0, 455.0, 455.0]	[0.015200896756141447, 0.02118412568961503, 0.028798244456993416, 0.04538840129680466, 0.06251991252793232, 0.07901210674754111, 0.09598046072642319, 0.11241496964794351, 0.12933997431537136, 0.1456256619785563, 0.1625196053282707, 0.1789414849190507, 0.1960101908480283, 0.21209141994768288, 0.2291130219018669, 0.24561545611504698, 0.2626199914084282, 0.2788654017567751, 0.2958856383775128, 0.3120487874330138, 0.3291922453281586, 0.3456639595606248, 0.36265006285975687, 0.3789429185198969, 0.3959843177945004, 0.4123157440990326, 0.42933393271960085, 0.4457011990089086, 0.4626589716572198, 0.4789917632951983, 0.49601780257944483, 0.512306562239246, 0.529296761538717, 0.545743558453978, 0.5626303338067373, 0.5790238827466965, 0.5959140714330715, 0.6121157911329647, 0.6293251263268758, 0.6457094592697104, 0.6626569919244503, 0.6789536022479297, 0.6959717908684979, 0.7123554411446094, 0.7293091177998576, 0.7454633921952336, 0.7626549780616187, 0.7789795776989195, 0.795871814385464, 0.8120984514098382, 0.8291627200087532, 0.8456811968790134, 0.8626669588556979, 0.8789833664995967, 0.8959005205033463, 0.9122019094938878, 0.9292525247583399, 0.9456907883431995, 0.962600774349994, 0.9789827179629356, 0.9959558506088797, 1.0123063915671082, 1.0292607508890796, 1.0456491798322531, 1.0626963817703654, 1.0789738774401485, 1.0959872873936547]
10	inanimate/n47.jpg	animate	inanimate	right	1.13	[0.0, 0.0, 0.0, 0.0, 0.0, -1.0, -1.0, -4.0, -4.0, -4.0, -2.0, -4.0, -4.0, -4.0, -4.0, -4.0, -4.0, -4.0, -4.0, -4.0, -4.0, -4.0, -4.0, 6.0, 13.0, 19.0, 28.0, 48.0, 81.0, 134.0, 180.0, 245.0, 298.0, 338.0, 363.0, 368.0, 368.0, 368.0, 368.0, 365.0, 362.0, 359.0, 357.0, 351.0, 347.0, 347.0, 347.0, 347.0, 347.0, 347.0, 347.0, 356.0, 389.0, 477.0, 502.0, 590.0, 653.0, 719.0, 778.0, 823.0, 855.0, 872.0, 878.0, 880.0, 880.0, 880.0, 880.0, 880.0]	[-490.0, -490.0, -490.0, -490.0, -490.0, -490.0, -490.0, -477.0, -463.0, -451.0, -448.0, -438.0, -436.0, -436.0, -436.0, -436.0, -436.0, -436.0, -436.0, -436.0, -436.0, -436.0, -434.0, -429.0, -422.0, -407.0, -386.0, -348.0, -282.0, -193.0, -116.0, -16.0, 55.0, 115.0, 153.0, 167.0, 168.0, 168.0, 169.0, 169.0, 169.0, 169.0, 168.0, 165.0, 164.0, 164.0, 164.0, 164.0, 164.0, 164.0, 163.0, 163.0, 167.0, 204.0, 216.0, 265.0, 295.0, 335.0, 367.0, 394.0, 412.0, 422.0, 428.0, 431.0, 433.0, 433.0, 433.0, 433.0]	[0.0011440122179919854, 0.00683540130557958, 0.017520153167424724, 0.03415502465213649, 0.05114215195499128, 0.06747733292286284, 0.08449142554309219, 0.10086244649573928, 0.11774068852537312, 0.13417656277306378, 0.15117768473282922, 0.16748282838671003, 0.18436277707951376, 0.20084165930893505, 0.2177564239827916, 0.23428138619055972, 0.25118659353029216, 0.2674982225144049, 0.28448022982047405, 0.30088606675417395, 0.3178288207418518, 0.3340776444238145, 0.3511565903463634, 0.3674907473177882, 0.3845038159415708, 0.4008775675538345, 0.417816566885449, 0.43423810513922945, 0.4511177125023096, 0.46750409344531363, 0.484500436738017, 0.5008246950528701, 0.5178299130129744, 0.5342169766227016, 0.5511877199314767, 0.5675628368771868, 0.5844970575417392, 0.6008257531793788, 0.6178186831457424, 0.6339572562210378, 0.6511269967595581, 0.667488460385357, 0.6845206436628359, 0.700880400618189, 0.7178142799530178, 0.7341866662391112, 0.7511659428782878, 0.7672580946382368, 0.7844425125076668, 0.8007357094975305, 0.8178156794165261, 0.8341744123754324, 0.8511349156906363, 0.8674888699824805, 0.8845019386062631, 0.9008036689265282, 0.9178440442046849, 0.9342031184933148, 0.9511250511641265, 0.9673124348773854, 0.9843889914627653, 1.0005835431729793, 1.0177676197054097, 1.0343048699069186, 1.0512151972507127, 1.0674872315867105, 1.0844405669049593, 1.1008399185084272]
11	animate/a50.jpg	animate	inanimate	left	1.233	[0.0, 0.0, 0.0, 0.0, 0.0, 0.0, 0.0, 0.0, 1.0, 1.0, 1.0, 1.0, 1.0, 1.0, 1.0, 1.0, 1.0, 1.0, 1.0, 3.0, 9.0, 12.0, 12.0, 12.0, 12.0, 12.0, 16.0, 41.0, 59.0, 84.0, 130.0, 192.0, 256.0, 301.0, 334.0, 350.0, 360.0, 369.0, 372.0, 372.0, 372.0, 369.0, 369.0, 369.0, 369.0, 369.0, 370.0, 384.0, 399.0, 410.0, 412.0, 412.0, 372.0, 314.0, 233.0, 130.0, 4.0, -130.0, -250.0, -354.0, -457.0, -544.0, -618.0, -669.0, -718.0, -743.0, -766.0, -787.0, -812.0, -827.0, -835.0, -838.0, -838.0, -838.0]	[-490.0, -490.0, -490.0, -490.0, -490.0, -490.0, -490.0, -490.0, -490.0, -490.0, -490.0, -490.0, -490.0, -490.0, -490.0, -490.0, -490.0, -490.0, -490.0, -493.0, -493.0, -493.0, -489.0, -484.0, -478.0, -463.0, -440.0, -399.0, -378.0, -349.0, -300.0, -225.0, -145.0, -79.0, -24.0, 12.0, 31.0, 46.0, 55.0, 60.0, 62.0, 64.0, 64.0, 64.0, 64.0, 64.0, 65.0, 70.0, 81.0, 94.0, 120.0, 132.0, 175.0, 197.0, 217.0, 235.0, 264.0, 293.0, 315.0, 335.0, 349.0, 362.0, 374.0, 388.0, 400.0, 406.0, 409.0, 416.0, 419.0, 422.0, 424.0, 425.0, 425.0, 425.0]	[0.016317056186380796, 0.024121980190102477, 0.031021688657347113, 0.048013594627263956, 0.06432078627403826, 0.08135228689206997, 0.09765913720912067, 0.11467937382985838, 0.13097291214944562, 0.14801499409077223, 0.16437099638278596, 0.18132433170103468, 0.19769501132395817, 0.21469988794706296, 0.23098216227663215, 0.24800069223419996, 0.26417544661671855, 0.28119431790400995, 0.2976926561241271, 0.31461902612500126, 0.3307610125266365, 0.34785770776943536, 0.36443830728239845, 0.3813865226038615, 0.3976885942611261, 0.41467640423070407, 0.43107063583738636, 0.4479526325230836, 0.4640683362740674, 0.48129337278805906, 0.4977220790387946, 0.5146289930489729, 0.5310027446685126, 0.5479588106536539, 0.5641932983417064, 0.5812896522547817, 0.5976971958516515, 0.6146744244979345, 0.6309850294783246, 0.6479359754666802, 0.6644049590322538, 0.6813067530456465, 0.6976258913564379, 0.7146276959829265, 0.7309509302940569, 0.7479728735779645, 0.764292011888756, 0.781280504525057, 0.7973849442787468, 0.8146116874631844, 0.8309393591043772, 0.847961985055008, 0.86434358733095, 0.8813249119702959, 0.8976624822753365, 0.9146226442535408, 0.9307301560111227, 0.947859619234805, 0.9641507682317751, 0.9813454260947765, 0.997492873822921, 1.014608001059969, 1.0308237154240487, 1.0479774133127648, 1.064139538371819, 1.081234526951448, 1.0977704118195106, 1.114661965832056, 1.1309633548225975, 1.14786685549916, 1.1643095564140822, 1.1813485663587926, 1.1975584780593636, 1.214599877333967]
12	animate/a42.jpg	inanimate	animate	right	1.471	[0.0, 0.0, 0.0, 0.0, 0.0, 0.0, 0.0, 0.0, 0.0, 3.0, 4.0, 6.0, 7.0, 8.0, 9.0, 9.0, 9.0, 9.0, 9.0, 9.0, 9.0, 10.0, 10.0, 11.0, 12.0, 15.0, 18.0, 23.0, 35.0, 46.0, 53.0, 58.0, 61.0, 67.0, 80.0, 102.0, 132.0, 168.0, 241.0, 292.0, 337.0, 358.0, 364.0, 364.0, 364.0, 364.0, 364.0, 364.0, 354.0, 337.0, 293.0, 228.0, 158.0, 149.0, 149.0, 160.0, 195.0, 258.0, 340.0, 426.0, 510.0, 588.0, 648.0, 687.0, 707.0, 711.0, 711.0, 711.0, 711.0, 711.0, 711.0, 711.0, 711.0, 711.0, 711.0, 711.0, 711.0, 711.0, 712.0, 715.0, 716.0, 716.0, 716.0, 716.0, 716.0, 716.0, 716.0, 716.0]	[-490.0, -490.0, -490.0, -490.0, -490.0, -490.0, -490.0, -490.0, -490.0, -489.0, -488.0, -486.0, -484.0, -483.0, -481.0, -481.0, -481.0, -481.0, -481.0, -481.0, -481.0, -481.0, -480.0, -479.0, -479.0, -479.0, -478.0, -475.0, -466.0, -457.0, -443.0, -425.0, -399.0, -362.0, -311.0, -257.0, -204.0, -147.0, -63.0, -6.0, 48.0, 81.0, 99.0, 106.0, 113.0, 122.0, 145.0, 174.0, 200.0, 213.0, 227.0, 236.0, 239.0, 240.0, 240.0, 245.0, 251.0, 255.0, 255.0, 264.0, 275.0, 285.0, 294.0, 299.0, 305.0, 308.0, 308.0, 308.0, 308.0, 308.0, 308.0, 308.0, 308.0, 308.0, 308.0, 308.0, 308.0, 308.0, 309.0, 330.0, 354.0, 370.0, 379.0, 386.0, 393.0, 394.0, 394.0, 394.0]	[0.014736000994162168, 0.021609426803479437, 0.027613818398094736, 0.044680134997179266, 0.060960361326579005, 0.07798674194054911, 0.0945690481166821, 0.11145821280661039, 0.1277766684506787, 0.14475219042651588, 0.16115154202998383, 0.1781161413382506, 0.1944182129955152, 0.21148282292415388, 0.22776373192027677, 0.24473447523632785, 0.26082730966300005, 0.2781298288027756, 0.2941977459049667, 0.3113367664627731, 0.3277521607305971, 0.3447802480077371, 0.3611232796392869, 0.3781332762664533, 0.39452238787634997, 0.41143373921659077, 0.4278218268227647, 0.4447912048053695, 0.46106084980419837, 0.4780923504222301, 0.49455245932767866, 0.5114586906711338, 0.527781242315541, 0.5447615429511643, 0.5608635933749611, 0.5779391259638942, 0.594471597498341, 0.6114194714900805, 0.6277863964423887, 0.6447291504373425, 0.6611534193580155, 0.6781169946771115, 0.6945282929373207, 0.7114184816236957, 0.7277690225892002, 0.7448056431967416, 0.761157890825416, 0.7781590127851814, 0.7943743858195376, 0.8114188570907572, 0.8277847580466187, 0.8447677893491345, 0.8611777222831734, 0.8781098949475563, 0.894550547862309, 0.9114864751900313, 0.9277783068464487, 0.9447449541621609, 0.961127239104826, 0.9780771610967349, 0.9942604488096549, 1.0113725040500867, 1.0276701383700129, 1.044764102953195, 1.0610910919276648, 1.078086069886922, 1.0945332081391825, 1.1114356848120224, 1.1277322951355018, 1.1447576517530251, 1.1611402780326898, 1.1781103386747418, 1.1943438023663475, 1.2112937243582564, 1.2277234546127147, 1.2447344752363279, 1.2611194908458856, 1.2781175408090348, 1.2945373723996454, 1.311414249095833, 1.3277559153939364, 1.3447723973440588, 1.3612567409072653, 1.3781643375841668, 1.39447562523128, 1.4114204272264033, 1.4275914269455825, 1.4447055301789078]
13	inanimate/n55.jpg	inanimate	animate	left	1.179	[0.0, 0.0, 0.0, 0.0, 0.0, 0.0, 0.0, 0.0, 0.0, 1.0, 8.0, 12.0, 19.0, 24.0, 28.0, 33.0, 33.0, 33.0, 33.0, 33.0, 33.0, 33.0, 33.0, 33.0, 34.0, 39.0, 41.0, 45.0, 51.0, 58.0, 67.0, 88.0, 126.0, 192.0, 275.0, 353.0, 432.0, 508.0, 572.0, 615.0, 632.0, 631.0, 621.0, 606.0, 591.0, 577.0, 563.0, 537.0, 470.0, 359.0, 213.0, 40.0, -208.0, -351.0, -486.0, -593.0, -677.0, -732.0, -781.0, -808.0, -827.0, -840.0, -850.0, -856.0, -865.0, -869.0, -871.0, -871.0, -871.0, -871.0, -871.0]	[-490.0, -490.0, -490.0, -490.0, -490.0, -490.0, -490.0, -490.0, -490.0, -491.0, -492.0, -492.0, -494.0, -498.0, -501.0, -510.0, -510.0, -510.0, -510.0, -510.0, -510.0, -510.0, -510.0, -510.0, -510.0, -503.0, -498.0, -489.0, -477.0, -467.0, -456.0, -438.0, -393.0, -324.0, -223.0, -111.0, 12.0, 126.0, 218.0, 283.0, 339.0, 352.0, 357.0, 359.0, 363.0, 367.0, 367.0, 367.0, 367.0, 367.0, 367.0, 367.0, 367.0, 367.0, 367.0, 376.0, 387.0, 403.0, 426.0, 436.0, 444.0, 448.0, 450.0, 451.0, 453.0, 455.0, 456.0, 456.0, 456.0, 456.0, 456.0]	[0.006182089637150057, 0.012646256996958982, 0.027041641624236945, 0.044260192807996646, 0.06064486708783079, 0.07759205841284711, 0.09394430604152149, 0.11093416400399292, 0.1273004062968539, 0.1442216563009424, 0.16059813858009875, 0.17754191657149931, 0.19393990284152096, 0.21087685417296598, 0.22716902715910692, 0.24425548241561046, 0.2603739168262109, 0.27748665473336587, 0.29396109963272465, 0.3108908829599386, 0.3270195573713863, 0.3441555059325765, 0.3605511028727051, 0.3775641714964877, 0.39394031243864447, 0.4108871624339372, 0.42699842884758255, 0.44415417472919216, 0.46059789964783704, 0.47758024828362977, 0.4938096159748966, 0.510942151202471, 0.5272517321864143, 0.5442842568008928, 0.5605467338027665, 0.5775785757505218, 0.5940025033414713, 0.6109425266695325, 0.6272606409838772, 0.6442603976101964, 0.6606194718988263, 0.6775321885725134, 0.6938130975759123, 0.7109456328034867, 0.7272395124600735, 0.7442556530804723, 0.7605805940547725, 0.7775489480336546, 0.7938933449986507, 0.8108842269648449, 0.8270081227092305, 0.8443000605257112, 0.8606171508363332, 0.8775462515040999, 0.8939862217521295, 0.9109730077179847, 0.927235826064134, 0.9442536733477027, 0.9606407369574299, 0.9775886109491694, 0.9939497332379688, 1.0108839539025212, 1.0271812468854478, 1.0442714568052907, 1.0603683872323018, 1.07753164244059, 1.0939248500508256, 1.1108996893599397, 1.1272328223276418, 1.1443086962535745, 1.1604677493160125]
14	animate/a37.jpg	animate	inanimate	left	1.098	[0.0, 0.0, 0.0, 0.0, 0.0, 0.0, 0.0, 3.0, 7.0, 11.0, 17.0, 22.0, 24.0, 25.0, 25.0, 25.0, 25.0, 25.0, 25.0, 25.0, 25.0, 25.0, 25.0, 25.0, 30.0, 42.0, 86.0, 132.0, 185.0, 273.0, 383.0, 492.0, 575.0, 649.0, 705.0, 743.0, 758.0, 759.0, 758.0, 755.0, 750.0, 745.0, 744.0, 744.0, 744.0, 744.0, 744.0, 743.0, 739.0, 732.0, 686.0, 583.0, 434.0, 250.0, 60.0, -107.0, -258.0, -390.0, -503.0, -587.0, -631.0, -661.0, -670.0, -671.0, -672.0, -672.0, -672.0]	[-490.0, -490.0, -490.0, -490.0, -490.0, -489.0, -488.0, -488.0, -486.0, -484.0, -479.0, -469.0, -465.0, -464.0, -464.0, -464.0, -464.0, -464.0, -464.0, -464.0, -464.0, -464.0, -464.0, -464.0, -464.0, -464.0, -434.0, -393.0, -331.0, -241.0, -127.0, 4.0, 121.0, 224.0, 301.0, 358.0, 390.0, 398.0, 403.0, 404.0, 408.0, 410.0, 410.0, 410.0, 410.0, 410.0, 410.0, 411.0, 412.0, 412.0, 412.0, 397.0, 374.0, 352.0, 338.0, 338.0, 338.0, 354.0, 378.0, 402.0, 417.0, 430.0, 435.0, 436.0, 437.0, 437.0, 437.0]	[0.009883847742457874, 0.014760474579816218, 0.02024535710370401, 0.03504385619453387, 0.05183778892387636, 0.06856857502862113, 0.0849358413106529, 0.10191102195676649, 0.11825917358510196, 0.13521523957024328, 0.15159172184939962, 0.1686310731311096, 0.18493485144426813, 0.20192539208073867, 0.21831416236091172, 0.235256575018866, 0.25176549456227804, 0.268539629978477, 0.28486866694584023, 0.30193771421181737, 0.31826402051956393, 0.3352716278095613, 0.351602712777094, 0.36855912009923486, 0.38493457838194445, 0.4019684683298692, 0.41832344661816023, 0.43526312861649785, 0.451616400241619, 0.4686393675219733, 0.4849271031853277, 0.5019773771200562, 0.5182975394345704, 0.5353013920612284, 0.5515826423943508, 0.5686018550113658, 0.5849288439858356, 0.6019504459327436, 0.6183003042315249, 0.6352894795345492, 0.6513703672972042, 0.6685561505000805, 0.6849182967926026, 0.7019358027464477, 0.7182709837143193, 0.7353250123123871, 0.7515523320034845, 0.7685886112813023, 0.7849251575826202, 0.8019423222067417, 0.8182983244987554, 0.8352298144964152, 0.8520507125504082, 0.8688115359691437, 0.8849098317296011, 0.9019020790292416, 0.918259105317702, 0.9352424779572175, 0.9516001869124011, 0.9685722955618985, 0.9849330765136983, 1.0019068918263656, 1.0180113315800554, 1.0351544481382007, 1.0516056823762483, 1.068625918996986, 1.0846597027921234]
15	animate/a29.jpg	inanimate	animate	right	1.098	[0.0, 0.0, 0.0, 0.0, 0.0, 0.0, 0.0, 0.0, 0.0, 0.0, 0.0, 0.0, 0.0, 0.0, 0.0, 0.0, 0.0, 0.0, 0.0, 0.0, -2.0, -4.0, -6.0, -7.0, -8.0, -10.0, -11.0, -11.0, -11.0, -5.0, 3.0, 13.0, 21.0, 31.0, 46.0, 67.0, 85.0, 99.0, 118.0, 148.0, 183.0, 228.0, 284.0, 338.0, 378.0, 400.0, 420.0, 442.0, 462.0, 486.0, 508.0, 536.0, 558.0, 580.0, 601.0, 618.0, 637.0, 663.0, 696.0, 726.0, 745.0, 754.0, 756.0, 756.0, 756.0, 756.0]	[-490.0, -490.0, -490.0, -490.0, -490.0, -490.0, -490.0, -490.0, -485.0, -479.0, -477.0, -477.0, -476.0, -476.0, -476.0, -476.0, -476.0, -476.0, -476.0, -477.0, -481.0, -483.0, -484.0, -484.0, -484.0, -484.0, -482.0, -475.0, -468.0, -455.0, -441.0, -427.0, -415.0, -398.0, -372.0, -343.0, -313.0, -293.0, -265.0, -228.0, -190.0, -136.0, -79.0, -32.0, 10.0, 38.0, 66.0, 105.0, 144.0, 190.0, 223.0, 256.0, 284.0, 313.0, 337.0, 356.0, 370.0, 386.0, 406.0, 418.0, 426.0, 430.0, 430.0, 430.0, 430.0, 430.0]	[0.014233558591513429, 0.020205864864692558, 0.02699498138827039, 0.04377491946070222, 0.06090301735821413, 0.07689413450862048, 0.09408503770100651, 0.1105386612834991, 0.12749882326170336, 0.14391251085908152, 0.16083615019306308, 0.1771965898151393, 0.19426119975105394, 0.21056122340087313, 0.22753196670964826, 0.243805707716092, 0.2608221896662144, 0.2771901386222453, 0.29425031122082146, 0.31050630289973924, 0.3275190301865223, 0.3438593311511795, 0.36089731709944317, 0.3769478262111079, 0.3941977800495806, 0.4104059850797057, 0.42741700570331886, 0.44408396250219084, 0.4608953032293357, 0.47718508689285954, 0.4942107848401065, 0.5106138911069138, 0.5275385544446181, 0.5439317620475776, 0.5608707613791921, 0.5769349238180439, 0.5940896457032068, 0.61057501326286, 0.6276037832067232, 0.6438874228697387, 0.6608226675380138, 0.6771909578237683, 0.6941982237767661, 0.7105415967453155, 0.7275041480606887, 0.7438198730378645, 0.7608315763282008, 0.7772107892742497, 0.7942436552257277, 0.8102682230164646, 0.8273546782729682, 0.843833901832113, 0.8608090824782266, 0.8771575754362857, 0.8941040840945789, 0.9105481503429473, 0.9275298163120169, 0.9439380425828858, 0.9608101406047354, 0.9769343776861206, 0.9941433715430321, 1.0105427231465, 1.0275633010969614, 1.04367354351416, 1.060826558736153, 1.0772682356473524]
16	animate/a8.jpg	inanimate	animate	right	1.015	[0.0, 0.0, 0.0, 0.0, 0.0, 0.0, -2.0, -2.0, -2.0, -2.0, 3.0, 10.0, 13.0, 13.0, 12.0, 7.0, 1.0, 1.0, 1.0, 1.0, -5.0, -5.0, -5.0, -5.0, -5.0, -5.0, -6.0, -6.0, -6.0, -4.0, -1.0, 2.0, 8.0, 19.0, 34.0, 61.0, 95.0, 125.0, 150.0, 163.0, 172.0, 172.0, 172.0, 169.0, 162.0, 158.0, 157.0, 165.0, 186.0, 225.0, 282.0, 360.0, 486.0, 530.0, 639.0, 704.0, 755.0, 781.0, 794.0, 796.0, 796.0, 796.0]	[-490.0, -490.0, -490.0, -490.0, -490.0, -490.0, -491.0, -491.0, -491.0, -487.0, -471.0, -458.0, -451.0, -448.0, -443.0, -443.0, -443.0, -443.0, -443.0, -443.0, -444.0, -444.0, -444.0, -444.0, -444.0, -444.0, -446.0, -448.0, -449.0, -449.0, -448.0, -444.0, -434.0, -415.0, -392.0, -353.0, -300.0, -242.0, -185.0, -144.0, -97.0, -85.0, -45.0, -18.0, 11.0, 33.0, 53.0, 72.0, 102.0, 137.0, 177.0, 223.0, 282.0, 299.0, 348.0, 376.0, 397.0, 409.0, 414.0, 415.0, 415.0, 415.0]	[0.00705453718546778, 0.011816817415819969, 0.01827688877528999, 0.02936885109374998, 0.04571973338897806, 0.0628208659691154, 0.07924581755651161, 0.09624523285310715, 0.11270056309876963, 0.1296518504168489, 0.14594948473677505, 0.16295948136394145, 0.17931445965223247, 0.19628281363111455, 0.21270435189217096, 0.22967987386800814, 0.24597238819114864, 0.2629646354907891, 0.2791134485596558, 0.2962633917777566, 0.31263270605995785, 0.3296143720363034, 0.3459768596585491, 0.3630206482630456, 0.3793708478915505, 0.3962880018953001, 0.41250200959621, 0.4296212328335969, 0.44602194977051113, 0.46296777576208115, 0.4792770154090249, 0.49627677203534404, 0.5127061609600787, 0.5297455122345127, 0.5460045759100467, 0.5629800978858839, 0.5792930922034429, 0.5962785128358519, 0.6126447551214369, 0.6296161811042111, 0.6459848127196892, 0.6629487293685088, 0.6793453503050841, 0.6962802536363597, 0.7126997438972467, 0.7296172392307199, 0.7459889428500901, 0.7629463741686777, 0.7793146644544322, 0.7963410450684023, 0.8126659860499785, 0.8296722280065296, 0.8459780543271336, 0.8629569896293106, 0.879336543912359, 0.8963093352213036, 0.9127755881199846, 0.9296794301335467, 0.9460081257784623, 0.9629952530813171, 0.9793130260586622, 0.9963612519932212]
17	inanimate/n21.jpg	animate	inanimate	right	1.264	[0.0, 0.0, 0.0, 0.0, 0.0, 0.0, 0.0, 0.0, 0.0, 0.0, 0.0, 0.0, 1.0, 2.0, 2.0, 6.0, 15.0, 21.0, 24.0, 24.0, 24.0, 24.0, 24.0, 17.0, 13.0, 9.0, 3.0, 1.0, -6.0, -6.0, -6.0, -7.0, 3.0, 29.0, 80.0, 152.0, 214.0, 268.0, 314.0, 343.0, 355.0, 355.0, 355.0, 357.0, 361.0, 361.0, 361.0, 361.0, 360.0, 360.0, 359.0, 359.0, 359.0, 359.0, 357.0, 342.0, 315.0, 288.0, 262.0, 239.0, 228.0, 227.0, 244.0, 316.0, 369.0, 434.0, 505.0, 567.0, 619.0, 648.0, 668.0, 685.0, 693.0, 693.0, 693.0, 693.0]	[-490.0, -490.0, -490.0, -490.0, -490.0, -490.0, -490.0, -490.0, -490.0, -490.0, -490.0, -490.0, -485.0, -472.0, -455.0, -433.0, -403.0, -390.0, -387.0, -387.0, -387.0, -387.0, -401.0, -416.0, -423.0, -430.0, -435.0, -437.0, -434.0, -434.0, -434.0, -432.0, -419.0, -393.0, -332.0, -246.0, -166.0, -85.0, -17.0, 41.0, 99.0, 125.0, 153.0, 179.0, 200.0, 211.0, 214.0, 215.0, 216.0, 216.0, 216.0, 216.0, 216.0, 216.0, 216.0, 216.0, 216.0, 216.0, 216.0, 216.0, 226.0, 244.0, 275.0, 325.0, 346.0, 363.0, 373.0, 381.0, 387.0, 393.0, 395.0, 401.0, 404.0, 405.0, 405.0, 405.0]	[0.003304992445919197, 0.008803186959994491, 0.021492929794476368, 0.038512825085490476, 0.05490057136194082, 0.071893842658028, 0.08819386631512316, 0.10516972962068394, 0.12151583324884996, 0.1384814565681154, 0.15464904295367887, 0.17180820216890424, 0.1882235964294523, 0.20513699576986255, 0.22126874217792647, 0.2385204026795691, 0.2548490983172087, 0.27192872690648073, 0.2881990545793087, 0.3052271418564487, 0.3215193148498656, 0.33850166348565836, 0.35459586324577685, 0.37176526245457353, 0.388256091348012, 0.40514150136732496, 0.42152719964360585, 0.43855904159136117, 0.45496624385850737, 0.47186121121194446, 0.48828479746589437, 0.5050951141893165, 0.5214797884691507, 0.5385385957342805, 0.5548717287092586, 0.5718632933421759, 0.5879356477817055, 0.6051460069647874, 0.6215497958983178, 0.6385352165380027, 0.6548936081599095, 0.6718773221364245, 0.688216599104635, 0.7051764197531156, 0.7215317393784062, 0.7385202320147073, 0.7548304956580978, 0.7718381029553711, 0.788160995929502, 0.8051450512357405, 0.821493202864076, 0.8385004688243498, 0.8548882151008002, 0.8717852304471307, 0.8882467046860256, 0.9051280187122757, 0.9215058663248783, 0.9385486309329281, 0.9549220412154682, 0.9719146298448322, 0.9881948561815079, 1.0051789114804706, 1.0215413991027162, 1.0385046330848127, 1.054883504701138, 1.0717992933714413, 1.0881887463183375, 1.1052427749164053, 1.1215049105885555, 1.1385183205493377, 1.1548715921744588, 1.1717907941783778, 1.1882413457569783, 1.2052151610623696, 1.2212684008482029, 1.2383248187761637]
18	inanimate/n37.jpg	animate	inanimate	right	1.013	[0.0, 0.0, 0.0, 0.0, 0.0, 0.0, 0.0, 0.0, 0.0, 4.0, 14.0, 25.0, 34.0, 37.0, 37.0, 31.0, 17.0, 14.0, 14.0, 14.0, 14.0, 14.0, 14.0, 14.0, 15.0, 17.0, 18.0, 20.0, 26.0, 40.0, 63.0, 113.0, 176.0, 244.0, 320.0, 444.0, 529.0, 598.0, 642.0, 661.0, 670.0, 670.0, 670.0, 670.0, 670.0, 668.0, 666.0, 665.0, 665.0, 665.0, 665.0, 665.0, 667.0, 670.0, 676.0, 680.0, 685.0, 690.0, 694.0, 694.0, 694.0]	[-490.0, -490.0, -490.0, -490.0, -490.0, -490.0, -490.0, -490.0, -490.0, -486.0, -478.0, -471.0, -465.0, -463.0, -462.0, -461.0, -461.0, -461.0, -461.0, -461.0, -461.0, -461.0, -461.0, -461.0, -462.0, -466.0, -468.0, -468.0, -467.0, -457.0, -420.0, -352.0, -279.0, -206.0, -120.0, 26.0, 128.0, 209.0, 260.0, 288.0, 301.0, 304.0, 305.0, 306.0, 310.0, 314.0, 320.0, 322.0, 322.0, 324.0, 327.0, 331.0, 336.0, 346.0, 357.0, 366.0, 376.0, 385.0, 392.0, 392.0, 392.0]	[0.0037954881918267347, 0.00904689883464016, 0.02288693441369105, 0.039473336590162944, 0.05638195726351114, 0.07275980488338973, 0.08977014284027973, 0.10615413444611477, 0.12320338438439649, 0.1409417859686073, 0.15630928743485129, 0.17277554034080822, 0.1897776862970204, 0.20608692595124012, 0.223165871873789, 0.2394713568573934, 0.2564229855124722, 0.27280970778519986, 0.28975143778370693, 0.3060589707674808, 0.32313552735286066, 0.3391474658201332, 0.356190230428183, 0.37280940058553824, 0.3897559092438314, 0.4059852769350982, 0.4231911987953936, 0.4394427531369729, 0.4564411444371217, 0.4727947573919664, 0.4897873460286064, 0.5061310603268794, 0.5230669876546017, 0.5394844299153192, 0.5564609758948791, 0.5728664714915794, 0.5897597321745707, 0.6061218784670928, 0.6230786271189572, 0.6393858187657315, 0.6563251594270696, 0.6728108683237224, 0.6897345076577039, 0.706114403270476, 0.7230588639285997, 0.739408039553382, 0.7564651401553419, 0.7727911051333649, 0.7897847177664516, 0.8061444747218047, 0.8230793780530803, 0.8394978443102445, 0.8564474249651539, 0.8727556406156509, 0.889770757239603, 0.9061212981978315, 0.9230452788688126, 0.9392654305629549, 0.9562815711833537, 0.9727529440860962, 0.9897595273723709]
19	inanimate/n63.jpg	animate	inanimate	right	1.149	[0.0, 0.0, 0.0, 0.0, 0.0, 0.0, -3.0, -3.0, -3.0, -3.0, -4.0, -3.0, -1.0, 1.0, 3.0, 4.0, 6.0, 8.0, 10.0, 14.0, 18.0, 22.0, 27.0, 31.0, 35.0, 35.0, 35.0, 35.0, 35.0, 35.0, 36.0, 37.0, 40.0, 42.0, 55.0, 71.0, 110.0, 169.0, 249.0, 342.0, 433.0, 526.0, 606.0, 685.0, 756.0, 802.0, 817.0, 817.0, 814.0, 791.0, 741.0, 660.0, 576.0, 489.0, 392.0, 312.0, 283.0, 282.0, 330.0, 386.0, 457.0, 537.0, 618.0, 683.0, 730.0, 753.0, 767.0, 770.0, 770.0, 770.0]	[-490.0, -490.0, -490.0, -490.0, -490.0, -491.0, -492.0, -492.0, -492.0, -492.0, -491.0, -490.0, -489.0, -487.0, -483.0, -483.0, -482.0, -481.0, -481.0, -480.0, -480.0, -480.0, -479.0, -479.0, -479.0, -479.0, -479.0, -479.0, -479.0, -479.0, -479.0, -479.0, -479.0, -477.0, -458.0, -432.0, -377.0, -302.0, -209.0, -98.0, 9.0, 119.0, 218.0, 307.0, 374.0, 406.0, 418.0, 418.0, 418.0, 418.0, 418.0, 418.0, 418.0, 418.0, 418.0, 424.0, 433.0, 443.0, 463.0, 470.0, 470.0, 465.0, 443.0, 424.0, 409.0, 405.0, 404.0, 403.0, 403.0, 403.0]	[0.00857688307587523, 0.013129584745911416, 0.01818984882265795, 0.0325575854658382, 0.04903953969187569, 0.06604339231853373, 0.08239222661359236, 0.09937218591949204, 0.1154988123307703, 0.13252792361163301, 0.14900919517094735, 0.16601611980149755, 0.1823850927539752, 0.1993500333992415, 0.21569818502757698, 0.23267609633330721, 0.24903175729559734, 0.2660557485796744, 0.2823926362179918, 0.2993842008509091, 0.31559991521498887, 0.33270821578480536, 0.3489034501617425, 0.3660465667198878, 0.3824459183233557, 0.3993613656566595, 0.4156607066470315, 0.43269186592806363, 0.44903592156333616, 0.46605957151041366, 0.48240328580868663, 0.49938222111813957, 0.5156696154444944, 0.532671420070983, 0.5490117210356402, 0.5660421976499492, 0.5825005998922279, 0.5994791938646813, 0.6155686149650137, 0.6326601902110269, 0.6490574938143254, 0.666041549120564, 0.6823726340953726, 0.6993853613821557, 0.7156809477019124, 0.7326844589988468, 0.7490554799514939, 0.7660409005839028, 0.7824245508672902, 0.7994488834810909, 0.8156721071791253, 0.8326513838183018, 0.8490220634339494, 0.8660231853937148, 0.882345737038122, 0.8993912323130644, 0.9157042266233475, 0.9326428846179624, 0.9487804336895351, 0.9658006703102728, 0.9823877551534679, 0.999454413082276, 1.0157035780939623, 1.032739174705057, 1.0490327130319201, 1.066073770969524, 1.0824178266047966, 1.0993438552686712, 1.1156971268937923, 1.132694835527218]
20	inanimate/n46.jpg	inanimate	animate	left	1.265	[0.0, 0.0, 0.0, 0.0, 0.0, 0.0, 0.0, 0.0, -4.0, -4.0, 2.0, 9.0, 16.0, 21.0, 25.0, 30.0, 35.0, 36.0, 36.0, 36.0, 36.0, 36.0, 36.0, 36.0, 40.0, 45.0, 47.0, 51.0, 60.0, 91.0, 128.0, 180.0, 252.0, 347.0, 448.0, 540.0, 613.0, 666.0, 697.0, 714.0, 721.0, 723.0, 723.0, 722.0, 722.0, 722.0, 722.0, 722.0, 722.0, 722.0, 722.0, 722.0, 722.0, 722.0, 722.0, 722.0, 722.0, 722.0, 722.0, 715.0, 621.0, 464.0, 276.0, 60.0, -159.0, -404.0, -531.0, -634.0, -716.0, -773.0, -811.0, -833.0, -842.0, -844.0, -844.0, -844.0]	[-490.0, -490.0, -490.0, -490.0, -490.0, -490.0, -490.0, -486.0, -471.0, -461.0, -451.0, -441.0, -433.0, -424.0, -410.0, -394.0, -380.0, -376.0, -376.0, -376.0, -376.0, -376.0, -376.0, -376.0, -376.0, -375.0, -374.0, -367.0, -346.0, -285.0, -218.0, -142.0, -57.0, 32.0, 108.0, 175.0, 219.0, 253.0, 274.0, 290.0, 300.0, 305.0, 309.0, 318.0, 330.0, 338.0, 346.0, 353.0, 354.0, 356.0, 356.0, 356.0, 356.0, 356.0, 356.0, 356.0, 356.0, 356.0, 356.0, 357.0, 359.0, 381.0, 403.0, 430.0, 437.0, 437.0, 451.0, 465.0, 479.0, 495.0, 505.0, 511.0, 514.0, 515.0, 515.0, 515.0]	[0.002826102019753307, 0.008034504688112065, 0.02037642903451342, 0.03756835623062216, 0.053983409161446616, 0.07216588518349454, 0.08728830944164656, 0.10421399677579757, 0.12070926299929852, 0.1376936596352607, 0.15392780599358957, 0.17096920526819304, 0.18724874893086962, 0.20424611622729572, 0.22043111061066156, 0.23756432850495912, 0.2537377175540314, 0.2708337301373831, 0.2872818923788145, 0.3042864276721957, 0.32063492063753074, 0.33759508262301097, 0.3539367489211145, 0.37092865488375537, 0.38729831050295616, 0.4043205951238633, 0.4206639680924127, 0.43758897275984054, 0.4538562284287764, 0.4709464383413433, 0.4872901526396163, 0.5043414505780675, 0.5206971115403576, 0.5376914068401675, 0.5539463745153625, 0.5708935658403789, 0.5873434347522561, 0.6042899434032734, 0.6204810817798716, 0.6375907476904104, 0.6541252672250266, 0.6709618666063761, 0.68704855703254, 0.7041865535938996, 0.7206801131469547, 0.7377174164212192, 0.7539488321126555, 0.7709243540884927, 0.7872779670506134, 0.8042394943622639, 0.8206719552836148, 0.8376300692689256, 0.8539543275765027, 0.8709612522070529, 0.8872981398380944, 0.9042593258200213, 0.9206364907731768, 0.9377294313526363, 0.9539096470689401, 0.9709541183401598, 0.987250045996916, 1.0042395626296639, 1.0206334529066226, 1.0376188735390315, 1.0539448385170544, 1.0709930644516135, 1.0872794347815216, 1.1042658794176532, 1.1203634925113874, 1.1376421183304046, 1.1539237099932507, 1.1709183466227842, 1.1872675222548423, 1.204309604196169, 1.220622598513728, 1.2376025578196277]
21	inanimate/n18.jpg	inanimate	animate	left	1.248	[0.0, 0.0, 0.0, 0.0, 0.0, 0.0, 0.0, 0.0, -1.0, -1.0, 1.0, 4.0, 4.0, 4.0, 4.0, 3.0, 1.0, 1.0, 1.0, 1.0, -1.0, -4.0, -5.0, -6.0, -3.0, 3.0, 12.0, 18.0, 27.0, 43.0, 64.0, 95.0, 126.0, 154.0, 162.0, 164.0, 164.0, 162.0, 149.0, 133.0, 111.0, 93.0, 81.0, 80.0, 79.0, 74.0, 42.0, 13.0, 4.0, 4.0, 29.0, 71.0, 140.0, 238.0, 351.0, 473.0, 581.0, 659.0, 682.0, 682.0, 666.0, 605.0, 491.0, 332.0, 152.0, -51.0, -233.0, -387.0, -509.0, -646.0, -701.0, -730.0, -741.0, -743.0, -743.0, -743.0]	[-490.0, -490.0, -490.0, -490.0, -490.0, -490.0, -490.0, -489.0, -487.0, -483.0, -476.0, -473.0, -468.0, -462.0, -459.0, -459.0, -459.0, -459.0, -459.0, -459.0, -468.0, -481.0, -482.0, -483.0, -483.0, -481.0, -477.0, -472.0, -461.0, -441.0, -415.0, -370.0, -331.0, -303.0, -295.0, -291.0, -291.0, -290.0, -290.0, -292.0, -301.0, -311.0, -318.0, -318.0, -315.0, -292.0, -214.0, -127.0, -30.0, 73.0, 157.0, 208.0, 246.0, 277.0, 303.0, 322.0, 335.0, 346.0, 355.0, 355.0, 355.0, 355.0, 355.0, 355.0, 366.0, 382.0, 388.0, 410.0, 428.0, 462.0, 482.0, 494.0, 499.0, 499.0, 499.0, 499.0]	[0.007278793083969504, 0.012604273018951062, 0.018416494043776765, 0.029510845699405763, 0.04644574903068133, 0.06345472165412502, 0.07974382264364976, 0.09670773929246934, 0.11285382169444347, 0.13012835151312174, 0.14642769250349374, 0.16340116647916147, 0.17982236340321833, 0.19671801342337858, 0.21307469838211546, 0.23002325503330212, 0.2464058813129668, 0.2634858512392384, 0.27982069087738637, 0.2967101968897623, 0.3129293245874578, 0.32993897987762466, 0.34618370755924843, 0.36338894675282063, 0.3797999036833062, 0.3968402789614629, 0.41313620661821915, 0.43001308330713073, 0.44627863231289666, 0.4634002448801766, 0.4797729724959936, 0.4967798971265438, 0.513059782118944, 0.5299851281233714, 0.5464554770223913, 0.5634105190110859, 0.5798112359480001, 0.5967157606210094, 0.6130816615768708, 0.6300285115648876, 0.6464200125046773, 0.6634064571480849, 0.6795706302000326, 0.6966898534374195, 0.7128448104995186, 0.7300206950385473, 0.746432334635756, 0.7632894140042481, 0.7798560188530246, 0.7968417808224331, 0.8130592018569587, 0.8300541798234917, 0.8463695634709438, 0.8634171067387797, 0.8794874131781398, 0.8966237030690536, 0.913205667915463, 0.9300504592902143, 0.9463801789315767, 0.9633823248877889, 0.9798263911361573, 0.9968496997535112, 1.0129804221651284, 1.0300743867410347, 1.0464020583822276, 1.0633809936916805, 1.0797387026468641, 1.0967186619527638, 1.1130893415756873, 1.1301041168626398, 1.146433836504002, 1.1633673744945554, 1.1796991421360872, 1.1966647654480767, 1.213047733064741, 1.2300546576880151]
22	animate/a41.jpg	animate	inanimate	left	1.515	[0.0, 0.0, 0.0, 0.0, 0.0, 0.0, 1.0, 1.0, 1.0, 1.0, 1.0, 2.0, 4.0, 5.0, 5.0, 5.0, 5.0, 5.0, 5.0, 5.0, 5.0, 5.0, 5.0, 4.0, 4.0, 4.0, 2.0, 1.0, 3.0, 29.0, 65.0, 105.0, 163.0, 250.0, 362.0, 492.0, 615.0, 708.0, 781.0, 828.0, 843.0, 848.0, 847.0, 843.0, 832.0, 826.0, 821.0, 816.0, 802.0, 769.0, 683.0, 550.0, 364.0, 155.0, -115.0, -276.0, -408.0, -506.0, -572.0, -616.0, -641.0, -653.0, -660.0, -660.0, -660.0, -660.0, -660.0, -660.0, -660.0, -660.0, -660.0, -660.0, -661.0, -661.0, -661.0, -661.0, -661.0, -661.0, -661.0, -661.0, -661.0, -661.0, -661.0, -661.0, -661.0, -661.0, -661.0, -665.0, -668.0, -670.0, -672.0, -672.0]	[-490.0, -490.0, -490.0, -490.0, -490.0, -490.0, -491.0, -491.0, -491.0, -491.0, -491.0, -490.0, -485.0, -479.0, -476.0, -475.0, -475.0, -475.0, -475.0, -475.0, -475.0, -475.0, -475.0, -475.0, -475.0, -475.0, -475.0, -472.0, -467.0, -445.0, -413.0, -377.0, -319.0, -225.0, -113.0, 18.0, 140.0, 238.0, 303.0, 348.0, 368.0, 373.0, 375.0, 375.0, 375.0, 375.0, 375.0, 374.0, 372.0, 362.0, 344.0, 321.0, 299.0, 278.0, 276.0, 284.0, 302.0, 316.0, 329.0, 343.0, 355.0, 365.0, 372.0, 374.0, 374.0, 374.0, 374.0, 374.0, 374.0, 374.0, 374.0, 374.0, 375.0, 375.0, 375.0, 375.0, 375.0, 375.0, 375.0, 375.0, 375.0, 375.0, 375.0, 375.0, 375.0, 375.0, 375.0, 375.0, 373.0, 373.0, 373.0, 373.0]	[0.006759625342965592, 0.01162464685330633, 0.01727678262977861, 0.02842574758687988, 0.04534392558707623, 0.06236894087487599, 0.07867374319175724, 0.09566803849156713, 0.11206977942492813, 0.12899273609218653, 0.14534430105413776, 0.16232664969720645, 0.1786546626681229, 0.19567694728903007, 0.21199949892616132, 0.22899823155603372, 0.24540714049362577, 0.26236423047521384, 0.2787004354468081, 0.29568551474949345, 0.31199202373682056, 0.32900236169371055, 0.3450979267799994, 0.3623147713005892, 0.3786636055956478, 0.395668140889029, 0.4117736046464415, 0.4289877185001387, 0.4451638382161036, 0.4623346027583466, 0.47868582638329826, 0.49571050033409847, 0.5120426093053538, 0.529154323216062, 0.5453471682558302, 0.5623957355273888, 0.5786821058572968, 0.5956897131472942, 0.6120463981060311, 0.6289778881036909, 0.645424685018952, 0.6624452629694133, 0.6800409872957971, 0.6955723286737339, 0.7120310722457361, 0.7289891862310469, 0.7454704577903613, 0.7623248064992367, 0.7786879767882056, 0.7956508694333024, 0.812090839681332, 0.8290417856696877, 0.8455558252171613, 0.8623384939564858, 0.8784432750471751, 0.8956635328941047, 0.9120697111575282, 0.9291196437625331, 0.9453220461364253, 0.9623433067536098, 0.9787016983755166, 0.9956369430437917, 1.0119922626690823, 1.0290558485939982, 1.0453114989431924, 1.0622846315818606, 1.0786566765309544, 1.0957018304761732, 1.1120506647712318, 1.1290773867222015, 1.1451937731326325, 1.1623628310117056, 1.1787106413103174, 1.1956380353076383, 1.211995744262822, 1.228995500896417, 1.2450951619830448, 1.2621153986037825, 1.278697363450192, 1.2956660587587976, 1.3119971437336062, 1.3289876843628008, 1.3453259373345645, 1.3622888299796614, 1.3786926189131918, 1.3956442475682707, 1.4120534978355863, 1.4289580225158716, 1.4453809261030983, 1.4623404054218554, 1.478653741069138, 1.4956306283784215]
23	animate/a30.jpg	animate	inanimate	left	1.078	[0.0, -1.0, -1.0, -1.0, -5.0, -10.0, -14.0, -19.0, -22.0, -25.0, -26.0, -27.0, -27.0, -27.0, -27.0, -27.0, -27.0, -27.0, -27.0, -27.0, -27.0, -27.0, -27.0, -27.0, -27.0, -27.0, -27.0, -27.0, -27.0, -25.0, -20.0, -11.0, 8.0, 42.0, 90.0, 166.0, 261.0, 401.0, 483.0, 552.0, 603.0, 631.0, 642.0, 644.0, 644.0, 644.0, 644.0, 641.0, 617.0, 577.0, 482.0, 319.0, 96.0, -133.0, -359.0, -532.0, -680.0, -786.0, -841.0, -865.0, -869.0, -869.0, -869.0, -869.0, -869.0]	[-490.0, -490.0, -490.0, -490.0, -490.0, -490.0, -490.0, -489.0, -486.0, -485.0, -484.0, -483.0, -483.0, -483.0, -483.0, -483.0, -483.0, -483.0, -483.0, -487.0, -494.0, -508.0, -509.0, -509.0, -509.0, -509.0, -509.0, -509.0, -509.0, -507.0, -502.0, -495.0, -485.0, -456.0, -413.0, -345.0, -249.0, -84.0, 25.0, 125.0, 198.0, 239.0, 267.0, 288.0, 309.0, 325.0, 336.0, 346.0, 359.0, 364.0, 377.0, 412.0, 456.0, 488.0, 515.0, 520.0, 537.0, 540.0, 540.0, 540.0, 540.0, 540.0, 540.0, 540.0, 540.0]	[0.014362923851876985, 0.020437630075321067, 0.027019898705475498, 0.043907356724957936, 0.06093885733571369, 0.07717334502376616, 0.09408776836789912, 0.11064071988948854, 0.12743465262610698, 0.14383536956302123, 0.16083990485640243, 0.17712320318241837, 0.19411579181905836, 0.21055030074057868, 0.22746096941409633, 0.2438470090201008, 0.26079556567856343, 0.2771918452854152, 0.2941291379465838, 0.3103731829614844, 0.3274524702137569, 0.3438159818397253, 0.3608177864662139, 0.3771198581234785, 0.39395440950465854, 0.41060088630911196, 0.42747161900479114, 0.4438341066270368, 0.4609140765533084, 0.47710521492990665, 0.4941206728835823, 0.5104964724960155, 0.5274429811543087, 0.5438157087701256, 0.5608141000702744, 0.5771386997075751, 0.5941169523503049, 0.6104794399725506, 0.627420145967335, 0.6438969801965868, 0.660957152795163, 0.6771336138481274, 0.6941675037887762, 0.7104893727664603, 0.72745158275211, 0.7435655798326479, 0.7607892510131933, 0.7771821172864293, 0.7940002846808056, 0.8105231988884043, 0.8274181662345654, 0.8439066057908349, 0.8608623304462526, 0.8771220767885097, 0.8941341214085696, 0.9104491637262981, 0.9274741790068219, 0.9438465652929153, 0.9607715699603432, 0.9769794336607447, 0.994109579558426, 1.0102338166325353, 1.0275486237660516, 1.0435465675764135, 1.0607303027791204]
24	animate/a80.jpg	inanimate	animate	right	0.983	[0.0, 0.0, 0.0, 0.0, 0.0, 0.0, 0.0, 0.0, 0.0, 0.0, 0.0, 0.0, 0.0, 0.0, 0.0, 0.0, 0.0, 0.0, 0.0, 0.0, 4.0, 8.0, 10.0, 14.0, 18.0, 23.0, 35.0, 52.0, 73.0, 95.0, 128.0, 171.0, 226.0, 290.0, 359.0, 429.0, 485.0, 524.0, 545.0, 548.0, 548.0, 529.0, 502.0, 481.0, 473.0, 473.0, 473.0, 473.0, 501.0, 590.0, 701.0, 804.0, 881.0, 943.0, 959.0, 959.0, 959.0, 959.0, 959.0]	[-490.0, -490.0, -490.0, -490.0, -490.0, -490.0, -490.0, -490.0, -490.0, -490.0, -490.0, -490.0, -490.0, -490.0, -490.0, -490.0, -490.0, -490.0, -488.0, -480.0, -469.0, -455.0, -445.0, -434.0, -419.0, -399.0, -361.0, -314.0, -245.0, -194.0, -136.0, -73.0, 4.0, 79.0, 152.0, 206.0, 241.0, 261.0, 273.0, 276.0, 277.0, 285.0, 286.0, 285.0, 281.0, 281.0, 281.0, 281.0, 280.0, 289.0, 323.0, 374.0, 419.0, 467.0, 489.0, 501.0, 504.0, 504.0, 504.0]	[0.016411605472967494, 0.021822418697411194, 0.03131523517367896, 0.04804909327503992, 0.06503041790710995, 0.08138983353273943, 0.09838959016633453, 0.11473842446139315, 0.13171428776695393, 0.14807029005896766, 0.16504717736825114, 0.18139703566703247, 0.19839576829690486, 0.2144735840629437, 0.23165151660214178, 0.24811469750420656, 0.26504345683497377, 0.2814134537911741, 0.29845041573571507, 0.314827239344595, 0.3318327986416989, 0.34802666768518975, 0.36500799232453573, 0.3814250932482537, 0.39836887123965425, 0.414482185660745, 0.43168298751697876, 0.44804513380950084, 0.46497389314026805, 0.48122510615212377, 0.4984098653512774, 0.5146996490148013, 0.5317178376353695, 0.5479297973361099, 0.5649708552737138, 0.5813657695471193, 0.5983825928342412, 0.6147467871196568, 0.631811738385295, 0.6480144820889109, 0.6650893320111209, 0.6814228063158225, 0.6984157362821861, 0.7147051786087104, 0.7316264286127989, 0.7480309002130525, 0.7649678515444975, 0.7814078217925271, 0.7983929010952124, 0.814703847412602, 0.831613492089673, 0.847854806437681, 0.8651163656031713, 0.8813679199447506, 0.8996514305836172, 0.9148001374924206, 0.9317671261451324, 0.9480500831414247, 0.9651300530604203]
25	animate/a43.jpg	inanimate	animate	right	2.215	[0.0, 0.0, 0.0, 0.0, 0.0, -2.0, -2.0, -3.0, -3.0, -3.0, -3.0, -3.0, -3.0, -6.0, -11.0, -19.0, -26.0, -31.0, -39.0, -43.0, -47.0, -47.0, -47.0, -46.0, -46.0, -46.0, -46.0, -44.0, -43.0, -43.0, -40.0, -37.0, -36.0, -35.0, -34.0, -32.0, -29.0, -24.0, -17.0, -4.0, 20.0, 53.0, 101.0, 183.0, 292.0, 405.0, 517.0, 607.0, 679.0, 751.0, 767.0, 768.0, 768.0, 766.0, 753.0, 737.0, 720.0, 694.0, 649.0, 579.0, 492.0, 336.0, 247.0, 181.0, 153.0, 137.0, 127.0, 117.0, 108.0, 94.0, 77.0, 41.0, -81.0, -195.0, -308.0, -422.0, -517.0, -590.0, -652.0, -704.0, -733.0, -748.0, -760.0, -767.0, -772.0, -774.0, -774.0, -774.0, -774.0, -774.0, -774.0, -760.0, -685.0, -558.0, -391.0, -207.0, 74.0, 244.0, 392.0, 525.0, 633.0, 706.0, 750.0, 780.0, 796.0, 805.0, 809.0, 811.0, 812.0, 815.0, 815.0, 815.0, 815.0, 815.0, 815.0, 815.0, 815.0, 815.0, 815.0, 815.0, 815.0, 815.0, 815.0, 815.0, 815.0, 815.0, 815.0, 815.0, 815.0, 815.0, 815.0, 815.0, 815.0]	[-490.0, -490.0, -490.0, -490.0, -491.0, -491.0, -491.0, -490.0, -484.0, -482.0, -482.0, -481.0, -478.0, -474.0, -472.0, -472.0, -472.0, -472.0, -476.0, -480.0, -485.0, -488.0, -492.0, -493.0, -493.0, -493.0, -493.0, -493.0, -492.0, -489.0, -485.0, -481.0, -478.0, -475.0, -472.0, -469.0, -463.0, -458.0, -451.0, -436.0, -407.0, -369.0, -310.0, -216.0, -90.0, 37.0, 163.0, 268.0, 347.0, 408.0, 423.0, 426.0, 427.0, 427.0, 427.0, 427.0, 427.0, 424.0, 417.0, 408.0, 397.0, 387.0, 387.0, 387.0, 387.0, 387.0, 387.0, 389.0, 389.0, 389.0, 389.0, 385.0, 363.0, 361.0, 361.0, 361.0, 361.0, 361.0, 367.0, 375.0, 380.0, 384.0, 388.0, 389.0, 390.0, 390.0, 390.0, 390.0, 390.0, 390.0, 390.0, 390.0, 390.0, 390.0, 390.0, 390.0, 397.0, 397.0, 397.0, 396.0, 384.0, 373.0, 368.0, 363.0, 363.0, 364.0, 368.0, 369.0, 372.0, 375.0, 376.0, 377.0, 378.0, 378.0, 378.0, 378.0, 378.0, 378.0, 378.0, 378.0, 378.0, 378.0, 378.0, 378.0, 378.0, 378.0, 378.0, 378.0, 378.0, 378.0, 378.0, 378.0, 378.0]	[0.0035077443390036933, 0.00862193905049935, 0.022275606730545405, 0.03893676086590858, 0.05591194150474621, 0.07195903729007114, 0.08904583387629827, 0.10550696678546956, 0.12252993406582391, 0.1388995896850247, 0.15576042371685617, 0.17205908204050502, 0.18917625727772247, 0.20529537435504608, 0.22248559488798492, 0.23886002917424776, 0.25593931642652024, 0.27233525469637243, 0.2891708300812752, 0.30551625104271807, 0.32256891431461554, 0.33888020196172874, 0.35578404397529084, 0.3722025102324551, 0.3891729122115066, 0.40557874914520653, 0.4224982924788492, 0.4386078522366006, 0.45601823265315033, 0.47223428835422965, 0.4892497463079053, 0.50552109797718, 0.5224935479491251, 0.5388611555681564, 0.5558305335507612, 0.5722916664526565, 0.589195167136495, 0.6055740387455444, 0.6225007500834181, 0.6386912057932932, 0.6559302369641955, 0.672173599312373, 0.6892221665839315, 0.7055706595492666, 0.7225618828524603, 0.7388820451596985, 0.7559097911071149, 0.7722026467672549, 0.7891897740701097, 0.8055106190440711, 0.8225506529925042, 0.8386178874279722, 0.8558835425865254, 0.8719702330199652, 0.8891751308765379, 0.9055557091560331, 0.9225715084467083, 0.9388565134431701, 0.955904056711006, 0.9721917923743604, 0.9892055436648661, 1.0055253646423807, 1.022572566580493, 1.0389599715199438, 1.0560232161151362, 1.0719283173093572, 1.0890779191904585, 1.1055475854300312, 1.1225545100533054, 1.1389077816784265, 1.1558638476635679, 1.1721160846791463, 1.1891117453124025, 1.2055708302141284, 1.2224995895448956, 1.2386074426322011, 1.255804148495372, 1.2721813134412514, 1.289196771402203, 1.305299504485447, 1.3224846050216001, 1.3387112420459744, 1.3558335372799775, 1.372190563575714, 1.3891797388714622, 1.4054770318616647, 1.4225027298161876, 1.4388443961142912, 1.4558397154105478, 1.4721793337157578, 1.489152466354426, 1.5055484046242782, 1.522542699924088, 1.5388789048956824, 1.5558373602107167, 1.5720786745660007, 1.5891719564824598, 1.6055289827709203, 1.6224174647868495, 1.638900101686886, 1.656028199584398, 1.67215346066223, 1.6891743799424148, 1.705536526234937, 1.7225366241982556, 1.738768722549139, 1.7559094497773913, 1.7719483535620384, 1.7891034167842008, 1.8055444110286771, 1.8225414369953796, 1.838909044614411, 1.8558845665902481, 1.8722088248978253, 1.8891744482098147, 1.905534887831891, 1.922513823141344, 1.9388752867671428, 1.9558477367390878, 1.972210565698333, 1.9891567330196267, 2.005611380598566, 2.0225189772754675, 2.0388353849193663, 2.055862789529783, 2.0719706426170887, 2.089103177844663, 2.1054963854548987, 2.122503992744896, 2.138900272351748, 2.155918460972316, 2.1722457912765094, 2.189131542632822]
26	inanimate/n13.jpg	animate	inanimate	right	1.744	[0.0, 0.0, 0.0, 0.0, 0.0, 0.0, 0.0, 0.0, 0.0, 0.0, 0.0, 0.0, 0.0, 0.0, 0.0, 0.0, 0.0, 0.0, 0.0, 0.0, 6.0, 14.0, 28.0, 43.0, 64.0, 85.0, 109.0, 131.0, 143.0, 154.0, 182.0, 206.0, 241.0, 287.0, 322.0, 349.0, 363.0, 372.0, 374.0, 374.0, 373.0, 371.0, 371.0, 370.0, 370.0, 370.0, 370.0, 370.0, 370.0, 370.0, 370.0, 370.0, 370.0, 370.0, 369.0, 368.0, 368.0, 371.0, 374.0, 375.0, 375.0, 375.0, 375.0, 376.0, 377.0, 377.0, 377.0, 377.0, 377.0, 377.0, 377.0, 377.0, 377.0, 377.0, 377.0, 379.0, 379.0, 377.0, 368.0, 358.0, 348.0, 339.0, 336.0, 343.0, 369.0, 415.0, 466.0, 517.0, 563.0, 644.0, 700.0, 742.0, 771.0, 792.0, 806.0, 807.0, 807.0, 807.0, 807.0, 807.0, 807.0, 807.0, 807.0, 807.0, 807.0]	[-490.0, -490.0, -490.0, -490.0, -490.0, -490.0, -490.0, -490.0, -490.0, -490.0, -490.0, -490.0, -490.0, -490.0, -490.0, -490.0, -490.0, -490.0, -490.0, -490.0, -491.0, -493.0, -494.0, -494.0, -494.0, -490.0, -482.0, -475.0, -472.0, -467.0, -453.0, -428.0, -376.0, -288.0, -192.0, -105.0, -26.0, 34.0, 64.0, 82.0, 92.0, 93.0, 93.0, 93.0, 93.0, 93.0, 93.0, 93.0, 93.0, 93.0, 93.0, 93.0, 93.0, 93.0, 93.0, 100.0, 108.0, 117.0, 122.0, 123.0, 123.0, 123.0, 123.0, 123.0, 123.0, 123.0, 123.0, 123.0, 123.0, 123.0, 123.0, 123.0, 123.0, 123.0, 123.0, 124.0, 126.0, 139.0, 154.0, 176.0, 205.0, 237.0, 269.0, 300.0, 336.0, 375.0, 407.0, 425.0, 433.0, 443.0, 448.0, 450.0, 452.0, 455.0, 455.0, 455.0, 455.0, 455.0, 455.0, 455.0, 455.0, 455.0, 455.0, 455.0, 455.0]	[0.015502976595598739, 0.02378679101821035, 0.029008847013756167, 0.046128752910590265, 0.06234549127839273, 0.07960909843677655, 0.09595110607187962, 0.11299762534326874, 0.12926931834954303, 0.14626566164224641, 0.16248103467660258, 0.17959718591009732, 0.1959627455289592, 0.21292734484450193, 0.22926457381254295, 0.2462841277665575, 0.2626158954080893, 0.27962384402781026, 0.2959719956634217, 0.3129563922993839, 0.32926699727977393, 0.3462544659196283, 0.36274700146896066, 0.3795777981868014, 0.39594438180938596, 0.4129847570802667, 0.4292752234105137, 0.4462538173829671, 0.46262005966855213, 0.4795938749812194, 0.4959683092602063, 0.5129550952333375, 0.5293394281761721, 0.5464262247623992, 0.5626863124343799, 0.5795874237810494, 0.5959526420701877, 0.6129704893610324, 0.6293124969888595, 0.64623852566001, 0.6625955519484705, 0.6796151059024851, 0.695956430870865, 0.7129722301542643, 0.7304614585373201, 0.7461743891544756, 0.7626058260793798, 0.7796042173722526, 0.7956973931359244, 0.8129074109892827, 0.8290401813937933, 0.8461594046311802, 0.8625707028986653, 0.8795769448552164, 0.8959571818049881, 0.9128456638209173, 0.929239554097876, 0.9463410280077369, 0.9625833663594676, 0.979606333639822, 0.9959592639352195, 1.0129791592189576, 1.029429028130835, 1.0462628968452918, 1.0623755285923835, 1.0794879251698148, 1.0960026473767357, 1.1130249319976429, 1.1290290198012372, 1.1462786323027103, 1.1625015146637452, 1.1795811432530172, 1.195983908190101, 1.2129399741752422, 1.2292464831552934, 1.246246581118612, 1.262532268781797, 1.2795388520753477, 1.2959764329934842, 1.3129034856610815, 1.329312053254398, 1.3464701884731767, 1.3626350441991235, 1.3796354834921658, 1.3959914857841795, 1.4129147837884375, 1.4293806953573949, 1.446342564006045, 1.4625965076847933, 1.479574077653524, 1.4959922025809647, 1.5129236925786245, 1.529374244157225, 1.5464013074379181, 1.562577427161159, 1.5796130237722537, 1.5959659540676512, 1.612912804055668, 1.62929440633161, 1.6462972349618212, 1.6625706346312654, 1.6796389992232434, 1.6959390228803386, 1.7129930514784064, 1.7290309312666068]
27	animate/a27.jpg	animate	inanimate	left	1.251	[0.0, -1.0, -1.0, -1.0, -1.0, -1.0, 0.0, 1.0, 2.0, 5.0, 6.0, 6.0, 6.0, 6.0, 14.0, 25.0, 29.0, 29.0, 29.0, 29.0, 29.0, 29.0, 29.0, 29.0, 29.0, 29.0, 34.0, 38.0, 38.0, 47.0, 65.0, 91.0, 126.0, 156.0, 207.0, 237.0, 276.0, 318.0, 353.0, 384.0, 409.0, 436.0, 469.0, 502.0, 529.0, 556.0, 577.0, 616.0, 641.0, 655.0, 668.0, 675.0, 682.0, 686.0, 687.0, 687.0, 687.0, 664.0, 594.0, 400.0, 225.0, 27.0, -164.0, -334.0, -478.0, -586.0, -662.0, -706.0, -732.0, -747.0, -754.0, -754.0, -754.0, -754.0, -754.0]	[-490.0, -489.0, -489.0, -489.0, -489.0, -489.0, -488.0, -479.0, -472.0, -466.0, -457.0, -448.0, -443.0, -438.0, -435.0, -435.0, -435.0, -435.0, -435.0, -435.0, -435.0, -435.0, -435.0, -435.0, -435.0, -435.0, -433.0, -433.0, -433.0, -431.0, -425.0, -415.0, -396.0, -372.0, -321.0, -286.0, -235.0, -175.0, -116.0, -65.0, -21.0, 23.0, 72.0, 120.0, 168.0, 209.0, 246.0, 306.0, 340.0, 357.0, 373.0, 382.0, 391.0, 395.0, 395.0, 395.0, 395.0, 392.0, 372.0, 343.0, 319.0, 313.0, 313.0, 313.0, 313.0, 325.0, 336.0, 349.0, 363.0, 372.0, 377.0, 378.0, 378.0, 378.0, 378.0]	[0.015186902091954835, 0.02098239779297728, 0.028757284475432243, 0.045552923875220586, 0.06254278184496798, 0.07891653346450767, 0.09586918611603323, 0.11222689507121686, 0.1291286890846095, 0.14536147010949207, 0.16253701331152115, 0.1789346582518192, 0.19590096423053183, 0.2122460438622511, 0.22929222180391662, 0.2455878081236733, 0.2625732287633582, 0.27894698037562193, 0.2959559530063416, 0.3122628033233923, 0.32922398930531926, 0.3453676823701244, 0.3624858816037886, 0.3789142465320765, 0.39590205650165444, 0.4122693227836862, 0.4292806847442989, 0.44563975903292885, 0.46254223571304465, 0.4789303233192186, 0.49589423996803816, 0.5122983702385682, 0.5292005055816844, 0.5455551425402518, 0.5625098431919469, 0.5788682348211296, 0.5959140714257956, 0.6122721217179787, 0.6292316010367358, 0.6455463020101888, 0.6625682453013724, 0.6789225409229402, 0.6959014762323932, 0.7121141185998567, 0.7291975018524681, 0.7455558934743749, 0.7625897834222997, 0.7789174550634925, 0.7958738623783574, 0.8120813847490354, 0.8292207466365653, 0.8454675223183585, 0.8625816255589598, 0.878647835997981, 0.8957988032198045, 0.9122578881215304, 0.9291985941163148, 0.9456771350160125, 0.9625482090414152, 0.9788949953363044, 0.9957916693529114, 1.0122644075891003, 1.0292170602406259, 1.0453214999943157, 1.0625683818288962, 1.0789216534612933, 1.095928236754844, 1.1122279190749396, 1.1291116224310827, 1.1452798914833693, 1.1624370026984252, 1.1789233942545252, 1.195870244249818, 1.2120449986323365, 1.2292027925141156]
28	animate/a28.jpg	inanimate	animate	right	0.946	[0.0, 0.0, 0.0, 0.0, 0.0, -1.0, -1.0, -8.0, -13.0, -17.0, -18.0, -18.0, -18.0, -18.0, -18.0, -18.0, -18.0, -18.0, -18.0, -18.0, -18.0, -18.0, -18.0, -18.0, -18.0, -18.0, -13.0, 11.0, 77.0, 145.0, 241.0, 355.0, 483.0, 584.0, 653.0, 702.0, 728.0, 738.0, 742.0, 742.0, 724.0, 701.0, 670.0, 618.0, 555.0, 516.0, 506.0, 506.0, 513.0, 525.0, 545.0, 567.0, 635.0, 696.0, 744.0, 773.0, 777.0]	[-490.0, -490.0, -490.0, -490.0, -490.0, -490.0, -487.0, -473.0, -469.0, -464.0, -464.0, -464.0, -464.0, -464.0, -464.0, -464.0, -464.0, -464.0, -464.0, -464.0, -464.0, -464.0, -464.0, -464.0, -464.0, -462.0, -457.0, -445.0, -397.0, -337.0, -232.0, -107.0, 25.0, 143.0, 241.0, 312.0, 364.0, 386.0, 397.0, 402.0, 408.0, 410.0, 410.0, 410.0, 410.0, 410.0, 413.0, 420.0, 433.0, 445.0, 453.0, 455.0, 455.0, 451.0, 447.0, 447.0, 447.0]	[9.543674968881533e-05, 0.007534451608080417, 0.015151301042351406, 0.03220669498114148, 0.048396468024293426, 0.06552695525169838, 0.0817576882764115, 0.09893220748199383, 0.11517318050027825, 0.13218488379061455, 0.14855727007670794, 0.1655860400205711, 0.1818956210045144, 0.19886056164978072, 0.21518618529080413, 0.23217262992693577, 0.24852590155933285, 0.265554671503196, 0.2818959964715759, 0.30018599244067445, 0.31517939276091056, 0.3321890480510774, 0.348520133025886, 0.3655332016496686, 0.38184721996367443, 0.39892684855294647, 0.4151780615648022, 0.4321856688547996, 0.44852801781962626, 0.46559194508881774, 0.48171276882931124, 0.4989343920169631, 0.5150405384338228, 0.5321836549919681, 0.5485304412868572, 0.5655141552560963, 0.5818899548758054, 0.5988040368829388, 0.615206460483023, 0.6321703771318425, 0.6485693873983109, 0.6655203333866666, 0.6819555249749101, 0.6989921455824515, 0.715333811887831, 0.732132181947236, 0.7485690801986493, 0.7654927195399068, 0.7819275697911507, 0.7988310704677133, 0.815307222030242, 0.8321817093892605, 0.8485684316692641, 0.8655463429749943, 0.8819375025850604, 0.8988164272741415, 0.9152219228781178]
29	inanimate/n15.jpg	inanimate	animate	left	1.203	[0.0, 0.0, -2.0, -2.0, -2.0, -2.0, -2.0, -3.0, -3.0, -3.0, -3.0, -4.0, -4.0, -4.0, -4.0, -4.0, -4.0, -4.0, -4.0, -4.0, -4.0, -4.0, -4.0, -4.0, -4.0, -5.0, -5.0, -6.0, -6.0, -6.0, -6.0, -6.0, -6.0, -6.0, -6.0, -6.0, -6.0, -30.0, -32.0, -28.0, -17.0, 1.0, 32.0, 70.0, 80.0, 77.0, 65.0, 57.0, 33.0, -9.0, -96.0, -196.0, -294.0, -399.0, -500.0, -600.0, -697.0, -776.0, -830.0, -887.0, -932.0, -960.0, -960.0, -960.0, -960.0, -958.0, -953.0, -944.0, -933.0, -922.0, -912.0, -902.0, -899.0]	[-490.0, -490.0, -490.0, -490.0, -490.0, -490.0, -490.0, -490.0, -490.0, -490.0, -490.0, -490.0, -490.0, -490.0, -490.0, -490.0, -491.0, -491.0, -491.0, -491.0, -491.0, -491.0, -491.0, -491.0, -491.0, -492.0, -492.0, -492.0, -490.0, -487.0, -486.0, -485.0, -482.0, -473.0, -449.0, -394.0, -310.0, -205.0, -178.0, -170.0, -165.0, -160.0, -142.0, -103.0, -52.0, -9.0, 16.0, 28.0, 39.0, 46.0, 57.0, 71.0, 88.0, 118.0, 147.0, 177.0, 204.0, 215.0, 223.0, 237.0, 254.0, 273.0, 277.0, 281.0, 285.0, 294.0, 310.0, 336.0, 361.0, 386.0, 402.0, 413.0, 415.0]	[0.010193095586146228, 0.016128196548379492, 0.021729815016442444, 0.035468815978674684, 0.05235490866471082, 0.0684972364033456, 0.08560280631354544, 0.10208237120968988, 0.11903775452810805, 0.13540775147703243, 0.15243379076127894, 0.16872732908814214, 0.18569977906008717, 0.20209401066676946, 0.21904871131846448, 0.23535931629885454, 0.25242733956110897, 0.26869630190049065, 0.2856772852028371, 0.30209541013027774, 0.31905523078603437, 0.335441953058762, 0.3524157683714293, 0.368876559943601, 0.38572066865162924, 0.40206199362000916, 0.4190675529098371, 0.4354576885161805, 0.45245369048643624, 0.4687011488349526, 0.48568042547412915, 0.5020671477468568, 0.5191003550280584, 0.535301733398228, 0.5524035486450884, 0.5687346336126211, 0.5857210782487527, 0.6020299765659729, 0.6191188211523695, 0.635471751447767, 0.6524875507311663, 0.6688316063664388, 0.68572486704943, 0.7020460533603909, 0.7190683379740221, 0.7351707297348185, 0.7523691422611591, 0.768741187210253, 0.7856706292077433, 0.8018508449240471, 0.8190222921330133, 0.8351403852138901, 0.8524562163511291, 0.8687067466962617, 0.8856884126653313, 0.9020126709729084, 0.9190550942512346, 0.9354520565248094, 0.9523702345250058, 0.9685439649110776, 0.9857423774374183, 1.0020680010784417, 1.0190537630478502, 1.0354319519974524, 1.0525532232350088, 1.068712958956894, 1.085727392914123, 1.1020704245456727, 1.1190275145345367, 1.135387954156613, 1.1523948787798872, 1.168701729096938, 1.1857864776829956]
30	animate/a76.jpg	animate	inanimate	left	1.465	[0.0, 47.0, 0.0, 0.0, 0.0, 0.0, -1.0, -1.0, -1.0, -1.0, 3.0, 5.0, 5.0, 6.0, 6.0, 6.0, 6.0, 6.0, 6.0, 6.0, 6.0, 6.0, 6.0, 7.0, 17.0, 27.0, 31.0, 34.0, 42.0, 49.0, 59.0, 75.0, 97.0, 124.0, 143.0, 154.0, 163.0, 174.0, 192.0, 253.0, 349.0, 461.0, 573.0, 670.0, 759.0, 826.0, 860.0, 872.0, 872.0, 872.0, 865.0, 851.0, 844.0, 844.0, 844.0, 844.0, 844.0, 844.0, 844.0, 836.0, 809.0, 669.0, 508.0, 306.0, 92.0, -94.0, -262.0, -422.0, -571.0, -706.0, -806.0, -867.0, -898.0, -917.0, -920.0, -921.0, -921.0, -921.0, -921.0, -921.0, -921.0, -921.0, -921.0, -912.0, -883.0, -794.0, -737.0, -713.0, -710.0]	[-490.0, -489.0, -490.0, -490.0, -490.0, -490.0, -490.0, -490.0, -490.0, -482.0, -477.0, -476.0, -476.0, -476.0, -476.0, -476.0, -476.0, -476.0, -476.0, -476.0, -476.0, -476.0, -476.0, -476.0, -476.0, -472.0, -468.0, -462.0, -448.0, -427.0, -405.0, -373.0, -331.0, -290.0, -263.0, -245.0, -229.0, -206.0, -178.0, -106.0, 7.0, 139.0, 255.0, 335.0, 393.0, 423.0, 435.0, 436.0, 436.0, 436.0, 435.0, 432.0, 429.0, 429.0, 429.0, 429.0, 429.0, 429.0, 429.0, 422.0, 401.0, 341.0, 300.0, 270.0, 266.0, 264.0, 264.0, 271.0, 292.0, 311.0, 325.0, 338.0, 346.0, 357.0, 360.0, 362.0, 362.0, 362.0, 362.0, 362.0, 362.0, 362.0, 367.0, 376.0, 393.0, 426.0, 442.0, 446.0, 446.0]	[0.009360925338114612, 0.015394330250273924, 0.02057371959381271, 0.03373006486071972, 0.05032500036031706, 0.06809855926258024, 0.08405520176165737, 0.100424174714135, 0.11736931803898187, 0.13379119762976188, 0.1507575036084745, 0.16706059926218586, 0.18405387055827305, 0.20038427286635851, 0.2173976828198647, 0.2334816425864119, 0.25067664177913684, 0.26707087338581914, 0.284082918013155, 0.30042936297832057, 0.3174362876015948, 0.33373801792185986, 0.35071661189431325, 0.3668473343059304, 0.38395153888268396, 0.40043076244182885, 0.41735815643914975, 0.4337616040429566, 0.4509412432453246, 0.46706377365626395, 0.4841242875918397, 0.5003864232639899, 0.5173793532303534, 0.53377017150342, 0.5507214588287752, 0.5671361704226001, 0.5840581030934118, 0.6003990867247921, 0.6173575420398265, 0.633730610992643, 0.6508576848864323, 0.6668866900145076, 0.6840663292168756, 0.7004025341884699, 0.7173510908469325, 0.7337900370985153, 0.7506996817683103, 0.7668969641454169, 0.7839397287534666, 0.8004151976492722, 0.8173599996371195, 0.8337736872344976, 0.8506246226097574, 0.867218534112908, 0.8840575228241505, 0.9004677970879129, 0.9173733457646449, 0.9337348093904438, 0.9507867899956182, 0.9669769043684937, 0.9840391249672393, 1.0004285779068596, 1.017447449194151, 1.033775803502067, 1.050830514766858, 1.0670609064618475, 1.0840333564337925, 1.1004125693871174, 1.117428027340793, 1.1334898004497518, 1.1506615889884415, 1.1671998631863971, 1.1840658172222902, 1.2004143101803493, 1.2174137254769448, 1.233720917130995, 1.2507333030880545, 1.267050052068953, 1.2840173820441123, 1.3002228564146208, 1.31739498629031, 1.3337714685694664, 1.3506988625740632, 1.3668623529592878, 1.3840129788441118, 1.4004235944448737, 1.4173759057666757, 1.433482393520535, 1.4509774245598237]
31	inanimate/n49.jpg	inanimate	animate	left	1.25	[0.0, 0.0, 0.0, 0.0, 0.0, 0.0, 0.0, 1.0, 9.0, 20.0, 30.0, 39.0, 45.0, 46.0, 46.0, 46.0, 46.0, 46.0, 46.0, 46.0, 46.0, 46.0, 62.0, 80.0, 91.0, 99.0, 105.0, 123.0, 166.0, 233.0, 321.0, 416.0, 526.0, 616.0, 688.0, 736.0, 764.0, 785.0, 786.0, 786.0, 786.0, 786.0, 786.0, 791.0, 798.0, 804.0, 806.0, 806.0, 806.0, 806.0, 806.0, 806.0, 802.0, 797.0, 777.0, 714.0, 581.0, 398.0, 177.0, -39.0, -209.0, -409.0, -506.0, -579.0, -623.0, -649.0, -666.0, -676.0, -685.0, -696.0, -706.0, -715.0, -718.0, -720.0, -720.0]	[-490.0, -490.0, -490.0, -490.0, -490.0, -490.0, -490.0, -490.0, -483.0, -476.0, -470.0, -463.0, -458.0, -455.0, -455.0, -455.0, -455.0, -455.0, -455.0, -455.0, -455.0, -455.0, -454.0, -441.0, -432.0, -409.0, -378.0, -333.0, -260.0, -165.0, -61.0, 37.0, 121.0, 191.0, 248.0, 286.0, 308.0, 322.0, 324.0, 324.0, 324.0, 324.0, 326.0, 338.0, 355.0, 368.0, 377.0, 381.0, 383.0, 390.0, 393.0, 393.0, 394.0, 395.0, 393.0, 385.0, 381.0, 381.0, 381.0, 381.0, 381.0, 381.0, 381.0, 389.0, 396.0, 401.0, 406.0, 410.0, 411.0, 415.0, 419.0, 420.0, 421.0, 422.0, 422.0]	[0.001373388098727446, 0.0073245317180408165, 0.01798300092923455, 0.034692965702561196, 0.05187670090526808, 0.06792823402065551, 0.08499591594591038, 0.1013198329237639, 0.11829091756953858, 0.1346093732136069, 0.1516412151613622, 0.1679391908182879, 0.18492461145069683, 0.20131850172765553, 0.2182885623697075, 0.23464456466172123, 0.2516511479552719, 0.2677320357179269, 0.2848997282635537, 0.30130010387074435, 0.3182783565061982, 0.33460910014400724, 0.3516283127682982, 0.3676760912130703, 0.38487177307979437, 0.40121412204462104, 0.4181811106900568, 0.43465896892303135, 0.45175088550604414, 0.4680819704735768, 0.48489058053382905, 0.5012428281625034, 0.5182777421068749, 0.5345985870881123, 0.551583325053798, 0.5679731193304178, 0.5849827746205847, 0.6013230755852419, 0.6182791415776592, 0.6345661945670145, 0.651583359191136, 0.6677297829228337, 0.6848882594713359, 0.7010193232126767, 0.7182593783873017, 0.7345901220251108, 0.7515960226519383, 0.7680134649126558, 0.78491082158871, 0.8010934266421827, 0.8181788578949636, 0.834577868161432, 0.8516499874240253, 0.8677380431836355, 0.8849265570534044, 0.9010026661562733, 0.9181788920250256, 0.9346079396127607, 0.9515626402644557, 0.9679080612331745, 0.9849122551895562, 1.001273718815355, 1.0182304674672196, 1.0345717924355995, 1.0516411810240243, 1.067898879366112, 1.0848266147004324, 1.1012819449460949, 1.1182400589241297, 1.1346359972012579, 1.15162210050039, 1.1679289508174406, 1.1849515767680714, 1.2012901710695587, 1.2182523810552084]
32	inanimate/n7.jpg	animate	inanimate	right	1.767	[0.0, 0.0, 0.0, 0.0, 0.0, 0.0, 0.0, 0.0, -2.0, -15.0, -22.0, -24.0, -24.0, -24.0, -24.0, -24.0, -24.0, -24.0, -24.0, -24.0, -24.0, -24.0, -24.0, -28.0, -28.0, -30.0, -19.0, 31.0, 137.0, 311.0, 399.0, 455.0, 487.0, 503.0, 511.0, 514.0, 514.0, 514.0, 514.0, 514.0, 514.0, 514.0, 514.0, 516.0, 538.0, 564.0, 578.0, 601.0, 668.0, 754.0, 806.0, 830.0, 835.0, 835.0, 817.0, 784.0, 711.0, 575.0, 362.0, 112.0, -118.0, -320.0, -469.0, -580.0, -649.0, -705.0, -722.0, -734.0, -736.0, -736.0, -735.0, -733.0, -733.0, -733.0, -733.0, -733.0, -733.0, -733.0, -733.0, -733.0, -732.0, -728.0, -710.0, -648.0, -530.0, -365.0, -191.0, -10.0, 267.0, 442.0, 594.0, 712.0, 776.0, 797.0, 805.0, 806.0, 806.0, 800.0, 796.0, 792.0, 788.0, 786.0, 783.0, 780.0, 780.0, 780.0]	[-490.0, -490.0, -490.0, -490.0, -490.0, -489.0, -487.0, -486.0, -484.0, -492.0, -503.0, -510.0, -510.0, -510.0, -510.0, -510.0, -510.0, -510.0, -510.0, -511.0, -511.0, -511.0, -510.0, -509.0, -509.0, -503.0, -485.0, -425.0, -304.0, -88.0, 16.0, 86.0, 132.0, 159.0, 176.0, 183.0, 183.0, 183.0, 183.0, 183.0, 183.0, 183.0, 183.0, 183.0, 180.0, 178.0, 178.0, 199.0, 270.0, 362.0, 445.0, 497.0, 514.0, 520.0, 525.0, 525.0, 525.0, 504.0, 474.0, 439.0, 407.0, 378.0, 372.0, 384.0, 409.0, 442.0, 455.0, 466.0, 470.0, 474.0, 476.0, 480.0, 480.0, 480.0, 480.0, 480.0, 480.0, 480.0, 480.0, 480.0, 481.0, 479.0, 455.0, 405.0, 337.0, 280.0, 249.0, 243.0, 255.0, 275.0, 279.0, 291.0, 306.0, 317.0, 324.0, 326.0, 329.0, 336.0, 340.0, 343.0, 346.0, 349.0, 358.0, 372.0, 380.0, 382.0]	[0.005519903308595531, 0.010417351470096037, 0.02612686875363579, 0.04313925471069524, 0.059586051625956316, 0.07656703492830275, 0.09288514924264746, 0.1098859298726893, 0.12626514281873824, 0.14318809948599664, 0.15953761644777842, 0.17656638639891753, 0.192925802024547, 0.209907126663893, 0.22621329431422055, 0.24321919494104804, 0.2594362746385741, 0.2765155618908466, 0.2929384654853493, 0.3099505101054092, 0.3263007097339141, 0.3431929464204586, 0.3596281380014261, 0.3765876173201832, 0.39288661697355565, 0.4098170829747687, 0.42622974656842416, 0.44323837786214426, 0.45955512684304267, 0.4765391821420053, 0.4929313657557941, 0.5099137143915868, 0.5262297807057621, 0.5432104226783849, 0.5593537744134665, 0.5765839309242438, 0.5928737145804917, 0.6098089592414908, 0.6259949776213034, 0.6431363875162788, 0.6595466617800412, 0.6765491490732529, 0.6929276793525787, 0.7098806733411038, 0.7262810489410185, 0.7432285816030344, 0.7595634212339064, 0.7765590818671626, 0.7929382948132115, 0.8099291767866816, 0.8261110991661553, 0.8431787810914102, 0.8595904206886189, 0.8765768653247505, 0.8928929316389258, 0.9098691362814861, 0.9263019385325606, 0.9431658445682842, 0.9596119588095462, 0.976470062181761, 0.9928875044424785, 1.0099213943904033, 1.0262019620495266, 1.0431921613489976, 1.0596724089118652, 1.0765492856080527, 1.0928994852365577, 1.1099531725049019, 1.1262374948346405, 1.1432392994611291, 1.1595635577687062, 1.1765745783923194, 1.1929155620309757, 1.2098951799998758, 1.226324910254334, 1.2432116856070934, 1.2595543759089196, 1.2765698338625953, 1.2928818041764316, 1.3098880461402587, 1.3262303951050853, 1.343225714401342, 1.360915646677313, 1.3764261667383835, 1.3929067556309747, 1.409858725615777, 1.426235549231933, 1.4431953698876896, 1.4595851641570334, 1.4765422541458975, 1.4929163470951607, 1.509910301057971, 1.5260918821077212, 1.543212812008278, 1.5596189902717015, 1.5765091789580765, 1.592872690584045, 1.6099018018649076, 1.6260287696059095, 1.6431882701508584, 1.6595941070845583, 1.6765122850920307, 1.6929150500291144, 1.709906273325032, 1.7261912783214939, 1.7432944589018007]
33	animate/a53.jpg	animate	inanimate	left	1.632	[0.0, 0.0, 0.0, 0.0, 0.0, 0.0, -2.0, -5.0, -9.0, -12.0, -2.0, 9.0, 15.0, 17.0, 20.0, 20.0, 20.0, 20.0, 20.0, 20.0, 20.0, 20.0, 20.0, 20.0, 21.0, 24.0, 29.0, 39.0, 56.0, 88.0, 146.0, 213.0, 278.0, 351.0, 454.0, 508.0, 529.0, 530.0, 530.0, 528.0, 527.0, 526.0, 528.0, 541.0, 551.0, 556.0, 579.0, 607.0, 641.0, 684.0, 736.0, 773.0, 779.0, 779.0, 745.0, 636.0, 478.0, 256.0, -138.0, -386.0, -593.0, -742.0, -856.0, -948.0, -960.0, -960.0, -960.0, -960.0, -960.0, -960.0, -960.0, -960.0, -960.0, -960.0, -960.0, -960.0, -960.0, -960.0, -960.0, -960.0, -960.0, -960.0, -960.0, -960.0, -960.0, -960.0, -960.0, -960.0, -960.0, -960.0, -960.0, -960.0, -960.0, -952.0, -934.0, -929.0, -928.0, -928.0]	[-490.0, -490.0, -490.0, -490.0, -490.0, -490.0, -492.0, -492.0, -488.0, -473.0, -452.0, -447.0, -444.0, -443.0, -446.0, -447.0, -447.0, -447.0, -447.0, -447.0, -447.0, -447.0, -447.0, -447.0, -448.0, -444.0, -439.0, -425.0, -401.0, -354.0, -273.0, -178.0, -83.0, 10.0, 127.0, 192.0, 220.0, 232.0, 236.0, 239.0, 239.0, 240.0, 247.0, 262.0, 273.0, 278.0, 289.0, 309.0, 328.0, 354.0, 381.0, 400.0, 406.0, 407.0, 407.0, 402.0, 387.0, 378.0, 378.0, 378.0, 379.0, 400.0, 416.0, 441.0, 459.0, 470.0, 470.0, 470.0, 470.0, 470.0, 470.0, 470.0, 470.0, 470.0, 470.0, 470.0, 470.0, 470.0, 470.0, 470.0, 470.0, 470.0, 470.0, 470.0, 470.0, 470.0, 470.0, 470.0, 470.0, 470.0, 470.0, 470.0, 470.0, 464.0, 453.0, 450.0, 450.0, 450.0]	[0.005695689891581424, 0.010661746011464857, 0.026528276554017793, 0.043572747832513414, 0.05965841426223051, 0.07692543475423008, 0.09325003439880675, 0.11027368434588425, 0.12659794265346136, 0.14354206198186148, 0.15983901363506448, 0.17679883428354515, 0.19316234590951353, 0.2103105824571685, 0.22656964613270247, 0.2435226401212276, 0.2597161678277189, 0.27688522570679197, 0.29337264126661466, 0.31028706460347166, 0.3265959629206918, 0.34357216756325215, 0.35990905520156957, 0.37688082250679145, 0.3932508194629918, 0.4102611574198818, 0.42634272784926, 0.4435124683950562, 0.4598780280139181, 0.4769023606349947, 0.4932679202538566, 0.5102540235529887, 0.5265997858514311, 0.5435886198247317, 0.5598193528421689, 0.5768713334473432, 0.5932338210695889, 0.6102462070266483, 0.6263335801268113, 0.6435801206243923, 0.6600757281776168, 0.6769427062099567, 0.6932765218516579, 0.7102510198237724, 0.7266066807860625, 0.7436023414120427, 0.7598972450723522, 0.7768632097213413, 0.7932489079976222, 0.8102459339570487, 0.8264462883307715, 0.8434416076270281, 0.8599116151963244, 0.8768833825088223, 0.8932492834646837, 0.9102186614400125, 0.9266057250497397, 0.9436133323397371, 0.959943393318099, 0.9768820513127139, 0.9932523895913619, 1.0102367862346, 1.0263487353149685, 1.0434911692063906, 1.059930456787697, 1.0769080267637037, 1.0932851917095832, 1.110273001679161, 1.1264214734110283, 1.1435622006320045, 1.1596680057191406, 1.1767783542964025, 1.193309460497403, 1.2102163745075813, 1.2265672568028094, 1.2435543841056642, 1.259924039724865, 1.2768869323699619, 1.2932948173038312, 1.3103014005973819, 1.3263635150433402, 1.343446556958952, 1.360017599145067, 1.3768555638525868, 1.3930245155788725, 1.4101864054537145, 1.426396658491285, 1.4434305484392098, 1.4599186466584797, 1.4769491232727887, 1.4929825657309266, 1.5101383116125362, 1.5265455138796824, 1.543600566481473, 1.5599808034312446, 1.5769320907493238, 1.5930030798554071, 1.6102049057153636]
34	animate/a71.jpg	animate	inanimate	left	1.521	[0.0, 0.0, 0.0, 0.0, 0.0, 0.0, 0.0, 0.0, 3.0, 8.0, 15.0, 25.0, 31.0, 34.0, 34.0, 32.0, 30.0, 30.0, 30.0, 30.0, 28.0, 27.0, 27.0, 27.0, 27.0, 27.0, 27.0, 30.0, 40.0, 56.0, 88.0, 141.0, 192.0, 241.0, 285.0, 329.0, 383.0, 420.0, 451.0, 469.0, 482.0, 483.0, 483.0, 483.0, 483.0, 483.0, 474.0, 435.0, 368.0, 278.0, 176.0, 59.0, -121.0, -240.0, -357.0, -456.0, -519.0, -562.0, -585.0, -597.0, -600.0, -601.0, -602.0, -602.0, -603.0, -607.0, -615.0, -649.0, -727.0, -824.0, -922.0, -960.0, -960.0, -960.0, -960.0, -960.0, -960.0, -960.0, -960.0, -960.0, -960.0, -960.0, -953.0, -930.0, -905.0, -869.0, -826.0, -782.0, -741.0, -731.0, -731.0, -731.0]	[-490.0, -490.0, -490.0, -490.0, -490.0, -490.0, -490.0, -489.0, -489.0, -487.0, -481.0, -473.0, -467.0, -458.0, -447.0, -439.0, -439.0, -439.0, -439.0, -439.0, -440.0, -442.0, -442.0, -442.0, -442.0, -442.0, -442.0, -442.0, -439.0, -419.0, -377.0, -315.0, -251.0, -181.0, -96.0, -8.0, 68.0, 122.0, 154.0, 173.0, 187.0, 190.0, 190.0, 190.0, 190.0, 190.0, 196.0, 209.0, 227.0, 251.0, 265.0, 281.0, 312.0, 346.0, 383.0, 425.0, 453.0, 472.0, 486.0, 494.0, 497.0, 499.0, 501.0, 501.0, 502.0, 502.0, 502.0, 492.0, 460.0, 417.0, 381.0, 360.0, 357.0, 357.0, 357.0, 357.0, 357.0, 357.0, 357.0, 357.0, 357.0, 357.0, 357.0, 357.0, 357.0, 361.0, 367.0, 380.0, 392.0, 394.0, 394.0, 394.0]	[0.008301427216792945, 0.013497883221134543, 0.01803556623053737, 0.03192577778827399, 0.048413876014819834, 0.06548121661035111, 0.08178636025695596, 0.09888407950347755, 0.11486905265337555, 0.13199407855427125, 0.14841561681532767, 0.16540752277796855, 0.1817853703905712, 0.1987325617155875, 0.21506194001995027, 0.2320333660027245, 0.24829618434159784, 0.26543486356240464, 0.28177584720106097, 0.2988367024663603, 0.3150445661667618, 0.3321173680888023, 0.34846039972035214, 0.36549804433161626, 0.3816274014097871, 0.39870566466561286, 0.41507566161453724, 0.43212764221971156, 0.4482624606243917, 0.4653461852140026, 0.4817666994713363, 0.4987435867806198, 0.514860655857774, 0.532000700419303, 0.5484068786827265, 0.5654400859639281, 0.5817995015895576, 0.5987617115679313, 0.6151074738663738, 0.6320495451946044, 0.6483925768261543, 0.6654544560879003, 0.6815418291880633, 0.6987033777331817, 0.7152006919495761, 0.7320215900035691, 0.7483724722987972, 0.7654835035427823, 0.7817947911898955, 0.798742665181635, 0.814899328906904, 0.8321049094301998, 0.8481462025520159, 0.865297511103563, 0.88162347607431, 0.898718464653939, 0.9151922268865746, 0.9320701275792089, 0.949809894496866, 0.9653108572310884, 0.9817593608095194, 0.998736248111527, 1.0151045384045574, 1.0321319430149742, 1.048447667999426, 1.065432064635388, 1.0815955550278886, 1.098930500818824, 1.1151506525129662, 1.132060297190037, 1.1484241501384531, 1.1654355120990658, 1.1817601117436425, 1.1987045723944902, 1.2150165427156026, 1.2320890033079195, 1.2484456882666564, 1.2654229169056634, 1.28173318055633, 1.2986930012048106, 1.3150619741572882, 1.332098253435106, 1.3484262664060225, 1.3653785777278244, 1.3817482333470252, 1.3987254619860323, 1.4151043336023577, 1.4320617649209453, 1.4484013832188793, 1.4654171825095546, 1.4816144648793852, 1.4987316401166026]
35	inanimate/n74.jpg	animate	inanimate	right	0.986	[0.0, 0.0, 0.0, 0.0, 0.0, 0.0, -1.0, -1.0, -3.0, -3.0, -3.0, -1.0, -1.0, 0.0, 0.0, 0.0, 0.0, 0.0, 0.0, 0.0, 0.0, 3.0, 8.0, 23.0, 25.0, 26.0, 27.0, 24.0, 21.0, 25.0, 41.0, 77.0, 126.0, 176.0, 236.0, 316.0, 397.0, 475.0, 544.0, 599.0, 649.0, 699.0, 715.0, 725.0, 729.0, 732.0, 732.0, 736.0, 738.0, 743.0, 750.0, 763.0, 775.0, 783.0, 784.0, 784.0, 784.0, 784.0, 784.0]	[-490.0, -490.0, -490.0, -490.0, -490.0, -490.0, -491.0, -491.0, -491.0, -490.0, -487.0, -486.0, -485.0, -485.0, -485.0, -485.0, -485.0, -485.0, -485.0, -485.0, -485.0, -487.0, -488.0, -489.0, -489.0, -489.0, -489.0, -485.0, -476.0, -451.0, -419.0, -360.0, -290.0, -221.0, -151.0, -69.0, -1.0, 68.0, 122.0, 161.0, 198.0, 234.0, 249.0, 260.0, 267.0, 270.0, 271.0, 279.0, 288.0, 302.0, 318.0, 340.0, 363.0, 383.0, 389.0, 390.0, 391.0, 391.0, 391.0]	[0.01656110939075006, 0.022966226111748256, 0.03172381095646415, 0.04828666114190128, 0.06546800701471511, 0.08158507609914523, 0.0988435632607434, 0.11522004553989973, 0.1321969328491832, 0.14826860462198965, 0.16537110252829734, 0.18182506744051352, 0.1988009307460743, 0.21519140768941725, 0.2321836549890577, 0.2485307826209464, 0.265492309932597, 0.28183261090453016, 0.2988064262099215, 0.31497947392927017, 0.33212566248403164, 0.34827788887923816, 0.36547561874613166, 0.38186609568219865, 0.39889350029989146, 0.4151515399789787, 0.43209088064031675, 0.448500472237356, 0.46548589286976494, 0.4815746313033742, 0.4987655345030362, 0.5149034249043325, 0.5322233520346344, 0.5482602078263881, 0.5654091270480421, 0.5815896840940695, 0.5987973126175348, 0.6152075868812972, 0.6321622875329922, 0.6485251164922374, 0.6655320411155117, 0.6818716594134457, 0.698793933421257, 0.715162565036735, 0.7321657349966699, 0.748249012096494, 0.7653528753435239, 0.7818293682357762, 0.7988284422026481, 0.8152404231295804, 0.8321623558003921, 0.8485272327525308, 0.8655433733729296, 0.8818259890394984, 0.8988387163262814, 0.9151960839517415, 0.9321780912578106, 0.9484798215780756, 0.9655065435290453]
