trialIndex	left_option	right_option	response	response_time	xTrajectory	yTrajectory	tTrajectory
0	images/0317.jpg	images/0072.jpg	left	1.437	[0.0, 0.0, 0.0, 0.0, 0.0, 0.0, 0.0, 0.0, 0.0, 0.0, 0.0, 0.0, 0.0, 0.0, 0.0, 4.0, 6.0, 18.0, 29.0, 42.0, 62.0, 83.0, 114.0, 157.0, 210.0, 273.0, 348.0, 478.0, 563.0, 633.0, 688.0, 744.0, 798.0, 847.0, 898.0, 929.0, 943.0, 953.0, 959.0, 959.0, 959.0, 959.0, 959.0, 959.0, 959.0, 959.0, 959.0, 956.0, 948.0, 914.0, 818.0, 666.0, 390.0, 218.0, 69.0, -34.0, -125.0, -206.0, -261.0, -303.0, -319.0, -324.0, -326.0, -326.0, -326.0, -326.0, -326.0, -326.0, -326.0, -326.0, -326.0, -326.0, -326.0, -344.0, -390.0, -505.0, -597.0, -681.0, -729.0, -747.0, -750.0, -750.0, -750.0, -750.0, -750.0]	[-490.0, -490.0, -490.0, -490.0, -490.0, -490.0, -490.0, -490.0, -490.0, -490.0, -490.0, -490.0, -490.0, -490.0, -491.0, -485.0, -482.0, -461.0, -438.0, -410.0, -374.0, -320.0, -260.0, -200.0, -136.0, -65.0, -2.0, 106.0, 174.0, 222.0, 261.0, 305.0, 352.0, 395.0, 437.0, 468.0, 486.0, 500.0, 512.0, 520.0, 525.0, 527.0, 529.0, 530.0, 532.0, 533.0, 534.0, 534.0, 534.0, 526.0, 490.0, 436.0, 407.0, 407.0, 407.0, 407.0, 412.0, 424.0, 434.0, 447.0, 450.0, 453.0, 454.0, 454.0, 454.0, 456.0, 459.0, 459.0, 462.0, 463.0, 466.0, 466.0, 467.0, 467.0, 460.0, 457.0, 457.0, 457.0, 460.0, 462.0, 462.0, 462.0, 462.0, 462.0, 462.0]	[0.0160688673495315, 0.020040277275256813, 0.03155992610845715, 0.04799101612297818, 0.06510613748105243, 0.08144506753887981, 0.09840351709863171, 0.1147898924537003, 0.13169680070132017, 0.14815758663462475, 0.16509794548619539, 0.181447115552146, 0.19841375708347186, 0.21457178064156324, 0.23166266735643148, 0.2480889786966145, 0.2650078336009756, 0.28152186749503016, 0.298364263784606, 0.3148427990381606, 0.33173127530608326, 0.3478790588560514, 0.3653703292948194, 0.3815092381555587, 0.39836392243159935, 0.41481617506360635, 0.4316524273599498, 0.44812345335958526, 0.4650351402233355, 0.48145906219724566, 0.49834378383820876, 0.5145434499718249, 0.5318701978540048, 0.5479125095298514, 0.5650283135473728, 0.5815239155199379, 0.5983741624513641, 0.6148025217698887, 0.6316712006810121, 0.6481811386183836, 0.6649969109566882, 0.6814303902210668, 0.6983458318281919, 0.7147752151358873, 0.7318374299211428, 0.7478780348901637, 0.7649924735887907, 0.7816000327584334, 0.798551655607298, 0.814798767096363, 0.8316541340318508, 0.8481268666801043, 0.8650091988965869, 0.8816010567825288, 0.898418877099175, 0.9147369858110324, 0.9316940699936822, 0.9478493629139848, 0.9650324095855467, 0.9815044595161453, 0.998350951820612, 1.0147619031486101, 1.0317264966433868, 1.047875645570457, 1.0650440148892812, 1.0814201502362266, 1.0983748451108113, 1.1147612204658799, 1.1317319580120966, 1.147852093563415, 1.1651293481700122, 1.1814297075616196, 1.198314429144375, 1.21478920977097, 1.231656523363199, 1.2479302588035353, 1.2649791616131552, 1.2814512115437537, 1.298485437000636, 1.3147888684179634, 1.3317845232668333, 1.348235410579946, 1.365080196177587, 1.3814416542300023, 1.3983287651790306]
1	images/0241.jpg	images/0122.jpg	right	1.738	[0.0, 0.0, 0.0, 0.0, 0.0, 0.0, 0.0, 0.0, 0.0, 0.0, 0.0, 0.0, 0.0, 0.0, 0.0, 0.0, 0.0, 0.0, 0.0, 0.0, 2.0, 5.0, 10.0, 20.0, 33.0, 46.0, 64.0, 85.0, 107.0, 135.0, 196.0, 242.0, 293.0, 358.0, 429.0, 501.0, 567.0, 625.0, 679.0, 715.0, 744.0, 765.0, 772.0, 774.0, 774.0, 766.0, 722.0, 628.0, 526.0, 446.0, 370.0, 285.0, 194.0, 72.0, -9.0, -66.0, -103.0, -134.0, -164.0, -197.0, -233.0, -262.0, -284.0, -304.0, -327.0, -362.0, -390.0, -417.0, -442.0, -465.0, -490.0, -513.0, -534.0, -552.0, -563.0, -568.0, -569.0, -569.0, -570.0, -559.0, -512.0, -412.0, -291.0, -156.0, -15.0, 109.0, 226.0, 336.0, 429.0, 530.0, 582.0, 617.0, 641.0, 658.0, 667.0, 669.0, 670.0, 670.0, 671.0, 671.0, 672.0, 672.0, 672.0, 672.0, 672.0]	[-490.0, -490.0, -490.0, -490.0, -490.0, -490.0, -490.0, -490.0, -490.0, -490.0, -490.0, -490.0, -490.0, -490.0, -490.0, -490.0, -490.0, -490.0, -490.0, -489.0, -487.0, -482.0, -476.0, -462.0, -448.0, -434.0, -420.0, -402.0, -385.0, -366.0, -318.0, -279.0, -235.0, -179.0, -129.0, -84.0, -53.0, -20.0, 17.0, 50.0, 85.0, 114.0, 126.0, 132.0, 136.0, 146.0, 164.0, 199.0, 226.0, 232.0, 232.0, 225.0, 222.0, 222.0, 229.0, 237.0, 239.0, 239.0, 239.0, 243.0, 245.0, 249.0, 251.0, 251.0, 254.0, 261.0, 270.0, 278.0, 287.0, 293.0, 300.0, 306.0, 311.0, 317.0, 318.0, 319.0, 319.0, 319.0, 320.0, 321.0, 321.0, 321.0, 321.0, 321.0, 321.0, 321.0, 321.0, 321.0, 321.0, 331.0, 339.0, 343.0, 347.0, 349.0, 350.0, 351.0, 351.0, 352.0, 352.0, 352.0, 353.0, 353.0, 353.0, 353.0, 353.0]	[0.007590359426103532, 0.01279500563396141, 0.017096484603825957, 0.0314454430481419, 0.04842266591731459, 0.06488823052495718, 0.08175281342118979, 0.09814465011004359, 0.11517034226562828, 0.13143554440466687, 0.14842710323864594, 0.16483737190719694, 0.18174940010067075, 0.19811154081253335, 0.21512392099248245, 0.23146319238003343, 0.24842061789240688, 0.2647943639312871, 0.28177875478286296, 0.29823339672293514, 0.315213008900173, 0.331431107071694, 0.3485909430892207, 0.364602193410974, 0.3817118534934707, 0.3981774181011133, 0.41510480630677193, 0.4314799176645465, 0.4483690765919164, 0.46481177187524736, 0.48171526682563126, 0.49809549818746746, 0.5150249343714677, 0.5315021043061279, 0.548435295233503, 0.5645854680915363, 0.581683864176739, 0.5981091514695436, 0.6150556543725543, 0.6314222323708236, 0.6483496206346899, 0.6645899054128677, 0.6816340295481496, 0.6980965221882798, 0.7150286890682764, 0.7314526110421866, 0.7484182285843417, 0.7645745454356074, 0.7816599708748981, 0.7981224634568207, 0.8149863637518138, 0.8314621683675796, 0.8483472312800586, 0.8647957292268984, 0.881619693536777, 0.8980931088444777, 0.9150587263866328, 0.9314410057268105, 0.9483349432703108, 0.9645492868148722, 0.9816627015243284, 0.9979326822794974, 1.0150757930241525, 1.0314382750657387, 1.0484550925320946, 1.0645571374334395, 1.0816490481956862, 1.0981545487884432, 1.1151037823292427, 1.1314625096856616, 1.1484639671980403, 1.164882769167889, 1.1816961521399207, 1.1978917223168537, 1.2149972863844596, 1.2314495390164666, 1.2483557646046393, 1.2647677399218082, 1.2816442695329897, 1.2982156474026851, 1.3149754410842434, 1.3312344992300496, 1.3484079885529354, 1.3645622574258596, 1.3816258375300094, 1.398098570178263, 1.4150133290677331, 1.431369667116087, 1.4483141219825484, 1.464831227902323, 1.481669528177008, 1.4982255460345186, 1.515061798330862, 1.5314334963914007, 1.5483226553187706, 1.5647871959372424, 1.581637101538945, 1.5981187088182196, 1.61507203837391, 1.631411992420908, 1.6483701005927287, 1.6647673986153677, 1.6817132188007236, 1.6979306343127973, 1.71521812886931]
2	images/0134.jpg	images/0219.jpg	right	1.387	[0.0, 0.0, 0.0, 0.0, 0.0, 0.0, 0.0, 0.0, 0.0, 0.0, 0.0, 0.0, 0.0, 1.0, 2.0, 3.0, 3.0, 4.0, 6.0, 8.0, 12.0, 20.0, 32.0, 44.0, 63.0, 77.0, 97.0, 119.0, 141.0, 162.0, 178.0, 195.0, 208.0, 220.0, 229.0, 240.0, 256.0, 275.0, 302.0, 337.0, 382.0, 430.0, 505.0, 540.0, 562.0, 576.0, 582.0, 585.0, 587.0, 589.0, 589.0, 589.0, 589.0, 590.0, 590.0, 593.0, 599.0, 604.0, 611.0, 619.0, 622.0, 626.0, 629.0, 629.0, 629.0, 629.0, 635.0, 644.0, 649.0, 653.0, 655.0, 657.0, 658.0, 658.0, 659.0, 659.0, 659.0, 659.0, 659.0, 659.0, 659.0, 659.0, 659.0, 659.0]	[-490.0, -490.0, -490.0, -490.0, -490.0, -490.0, -490.0, -490.0, -490.0, -490.0, -490.0, -490.0, -490.0, -488.0, -488.0, -487.0, -487.0, -486.0, -484.0, -480.0, -475.0, -461.0, -442.0, -420.0, -388.0, -361.0, -327.0, -290.0, -251.0, -214.0, -187.0, -156.0, -135.0, -118.0, -102.0, -85.0, -67.0, -50.0, -32.0, -11.0, 14.0, 34.0, 78.0, 100.0, 120.0, 134.0, 142.0, 146.0, 148.0, 152.0, 154.0, 155.0, 157.0, 159.0, 165.0, 172.0, 185.0, 196.0, 213.0, 231.0, 247.0, 262.0, 281.0, 297.0, 310.0, 321.0, 335.0, 353.0, 362.0, 370.0, 373.0, 377.0, 379.0, 379.0, 380.0, 380.0, 380.0, 380.0, 380.0, 380.0, 380.0, 380.0, 380.0, 380.0]	[0.007106007833499461, 0.011356286879163235, 0.015127675666008145, 0.03134509111987427, 0.04759356792783365, 0.06471688131568953, 0.0809124514926225, 0.09811461280332878, 0.114407462941017, 0.13136113376822323, 0.1477362451259978, 0.16471005463972688, 0.18085169419646263, 0.19794462894788012, 0.2142589830327779, 0.23137990711256862, 0.2477918824297376, 0.26461106806527823, 0.28103806206490844, 0.2979487249394879, 0.31407705252058804, 0.33128296851646155, 0.34773658646736294, 0.3646428120555356, 0.3808421369176358, 0.3978688530041836, 0.41440985223744065, 0.4312798965256661, 0.44772463984554633, 0.46454723877832294, 0.48110052599804476, 0.4979142502998002, 0.5142777563887648, 0.5312590752146207, 0.5477744744275697, 0.5647465772926807, 0.5809093795251101, 0.5979412156157196, 0.6143132550059818, 0.6312433739076369, 0.6477301011327654, 0.6645694254548289, 0.6810254327137955, 0.6978490556939505, 0.7143050630111247, 0.7312478112289682, 0.7476662718690932, 0.7645240281708539, 0.7808001529192552, 0.7978589543490671, 0.8145088388118893, 0.8312375711975619, 0.8477222505025566, 0.8646557827014476, 0.8809796941350214, 0.8978688530041836, 0.914084903197363, 0.9311344886664301, 0.9474409920512699, 0.964579324121587, 0.9807854756363668, 0.9978726077242754, 1.0144228229182772, 1.0312546378700063, 1.0476877758628689, 1.0646673880401067, 1.0810128034208901, 1.0979500903049484, 1.1140811485238373, 1.1312672672211193, 1.1477103038341738, 1.1646243800641969, 1.1810032461071387, 1.197903668973595, 1.2143521669786423, 1.2313000351423398, 1.2476775358663872, 1.2645397294545546, 1.2811015500337817, 1.29789684235584, 1.3143736709607765, 1.331269656540826, 1.3476553492364474, 1.3645523588056676]
3	images/0086.jpg	images/0446.jpg	left	1.153	[0.0, 0.0, 0.0, 0.0, 0.0, 0.0, 0.0, 0.0, 0.0, 0.0, 0.0, 0.0, 0.0, 0.0, 0.0, 0.0, 0.0, 0.0, 0.0, 0.0, 1.0, 1.0, 3.0, 4.0, 5.0, 7.0, 7.0, 7.0, 7.0, 3.0, -15.0, -43.0, -82.0, -133.0, -194.0, -256.0, -312.0, -362.0, -403.0, -435.0, -452.0, -464.0, -474.0, -477.0, -479.0, -481.0, -482.0, -484.0, -486.0, -489.0, -492.0, -498.0, -501.0, -502.0, -503.0, -503.0, -504.0, -509.0, -527.0, -554.0, -592.0, -629.0, -662.0, -695.0, -723.0, -746.0, -748.0, -748.0, -748.0, -748.0]	[-490.0, -490.0, -490.0, -490.0, -490.0, -490.0, -490.0, -490.0, -490.0, -490.0, -490.0, -490.0, -490.0, -490.0, -490.0, -490.0, -490.0, -490.0, -490.0, -490.0, -488.0, -486.0, -483.0, -479.0, -476.0, -471.0, -459.0, -440.0, -418.0, -375.0, -325.0, -258.0, -169.0, -78.0, 11.0, 88.0, 153.0, 205.0, 243.0, 269.0, 287.0, 303.0, 320.0, 326.0, 329.0, 330.0, 330.0, 330.0, 330.0, 330.0, 331.0, 331.0, 331.0, 331.0, 331.0, 331.0, 331.0, 331.0, 331.0, 331.0, 325.0, 321.0, 321.0, 321.0, 321.0, 324.0, 324.0, 324.0, 324.0, 324.0]	[0.007292034279089421, 0.011653587920591235, 0.015595643199048936, 0.031020483351312578, 0.04782908770721406, 0.06425539898918942, 0.08122238185023889, 0.09756301861489192, 0.11454911611508578, 0.13091637677280232, 0.1478471783339046, 0.16424720699433237, 0.18120872852159664, 0.19755414390238002, 0.21464264136739075, 0.23089589679148048, 0.24782226100796834, 0.26425505767110735, 0.28122613654704764, 0.2973677761037834, 0.31439927086466923, 0.33099522470729426, 0.3479017916251905, 0.3640697138616815, 0.3811459232820198, 0.39765551983145997, 0.41448153217788786, 0.4309276407584548, 0.4477853970602155, 0.4642949936678633, 0.48117561923572794, 0.49759783456102014, 0.5144743641722016, 0.5309013581136242, 0.5477826663991436, 0.5640396765084006, 0.5810974539490417, 0.5973619734286331, 0.6143845935584977, 0.6308723448310047, 0.647761162428651, 0.6642315057106316, 0.6811223712866195, 0.6975807679118589, 0.7144511535298079, 0.7306573050445877, 0.747912714316044, 0.7639652659418061, 0.7812176031875424, 0.7974937279941514, 0.8144716335227713, 0.8309501687763259, 0.8478157757199369, 0.8642762203235179, 0.8811309045995586, 0.8975630186032504, 0.9145818840479478, 0.9309515340719372, 0.9479652795707807, 0.9640273885452189, 0.9812179445289075, 0.9975698452326469, 1.0144334041979164, 1.0309003341244534, 1.047775839746464, 1.0642762203351595, 1.0811469472828321, 1.0975357119459659, 1.1144764121854678, 1.1308644941891544]
4	images/0153.jpg	images/0214.jpg	right	0.868	[0.0, 0.0, 0.0, 0.0, 0.0, 0.0, 1.0, 1.0, 4.0, 4.0, 4.0, 4.0, 4.0, 5.0, 5.0, 5.0, 9.0, 11.0, 15.0, 22.0, 39.0, 54.0, 76.0, 99.0, 127.0, 158.0, 198.0, 231.0, 263.0, 299.0, 346.0, 358.0, 387.0, 403.0, 422.0, 439.0, 465.0, 488.0, 512.0, 541.0, 578.0, 617.0, 651.0, 689.0, 704.0, 717.0, 725.0, 729.0, 730.0, 731.0, 731.0, 731.0]	[-490.0, -490.0, -490.0, -490.0, -490.0, -490.0, -491.0, -491.0, -491.0, -491.0, -491.0, -491.0, -491.0, -491.0, -491.0, -491.0, -489.0, -486.0, -477.0, -465.0, -436.0, -411.0, -380.0, -347.0, -313.0, -275.0, -227.0, -189.0, -161.0, -131.0, -91.0, -80.0, -55.0, -36.0, -16.0, 4.0, 33.0, 60.0, 92.0, 126.0, 172.0, 215.0, 258.0, 306.0, 326.0, 344.0, 357.0, 363.0, 366.0, 369.0, 369.0, 369.0]	[0.004387972760014236, 0.008081196225248277, 0.025347869493998587, 0.042447972286026925, 0.05887360090855509, 0.0756347599090077, 0.09202181798173115, 0.1089543261914514, 0.1253946321667172, 0.14231655903859064, 0.15874628367600963, 0.17564431723440066, 0.19210100721102208, 0.20908812870038673, 0.22534616285702214, 0.2422592150978744, 0.2587681289878674, 0.27560130931669846, 0.2918122394476086, 0.3089932381408289, 0.3253444561851211, 0.34229232440702617, 0.35881796362809837, 0.37585150642553344, 0.39174363150959834, 0.40896285948110744, 0.42512532038381323, 0.44242305494844913, 0.4585479691741057, 0.475799965148326, 0.4919276100117713, 0.5089259955566376, 0.5251082536997274, 0.5422302017686889, 0.5584646839415655, 0.5755183653673157, 0.5918415940832347, 0.6089539848617278, 0.625339336169418, 0.6422363457968459, 0.6584216759656556, 0.6757067812141031, 0.6918064368073829, 0.7091106566949748, 0.7253570855245925, 0.742173881852068, 0.7585111052030697, 0.7756422692909837, 0.7918733381084166, 0.8092188593000174, 0.8251635496853851, 0.842451726901345]
5	images/0557.jpg	images/0227.jpg	left	2.051	[0.0, 0.0, 0.0, 0.0, 0.0, 0.0, 0.0, 0.0, 0.0, 0.0, 0.0, 0.0, 0.0, 0.0, 0.0, 0.0, 0.0, 0.0, 0.0, 0.0, 0.0, 0.0, 0.0, 0.0, 0.0, 0.0, -1.0, -1.0, -1.0, 0.0, 0.0, 0.0, 0.0, 0.0, 0.0, 0.0, 0.0, 0.0, 0.0, 0.0, 0.0, 0.0, 0.0, 0.0, 0.0, 0.0, 0.0, 0.0, 0.0, 0.0, 0.0, 0.0, 0.0, 0.0, 0.0, 0.0, 0.0, 0.0, 0.0, 0.0, 0.0, 0.0, -10.0, -35.0, -74.0, -126.0, -195.0, -312.0, -393.0, -465.0, -522.0, -561.0, -587.0, -603.0, -616.0, -617.0, -617.0, -617.0, -617.0, -617.0, -603.0, -565.0, -478.0, -367.0, -225.0, -87.0, 29.0, 145.0, 254.0, 359.0, 435.0, 476.0, 512.0, 524.0, 530.0, 530.0, 530.0, 530.0, 530.0, 530.0, 526.0, 506.0, 453.0, 337.0, 104.0, -63.0, -232.0, -394.0, -532.0, -643.0, -725.0, -764.0, -780.0, -782.0, -782.0, -783.0, -787.0, -790.0, -792.0, -793.0, -793.0, -793.0, -793.0]	[-490.0, -490.0, -490.0, -490.0, -490.0, -490.0, -490.0, -490.0, -490.0, -490.0, -490.0, -490.0, -490.0, -490.0, -490.0, -490.0, -490.0, -490.0, -490.0, -490.0, -490.0, -490.0, -490.0, -490.0, -490.0, -490.0, -490.0, -486.0, -485.0, -483.0, -483.0, -483.0, -483.0, -483.0, -483.0, -483.0, -483.0, -483.0, -483.0, -483.0, -483.0, -483.0, -483.0, -483.0, -483.0, -483.0, -483.0, -483.0, -483.0, -483.0, -483.0, -483.0, -483.0, -483.0, -483.0, -483.0, -483.0, -483.0, -478.0, -472.0, -465.0, -447.0, -417.0, -372.0, -310.0, -224.0, -129.0, 31.0, 135.0, 221.0, 284.0, 323.0, 349.0, 366.0, 381.0, 384.0, 384.0, 384.0, 384.0, 384.0, 385.0, 380.0, 369.0, 353.0, 340.0, 340.0, 340.0, 340.0, 340.0, 340.0, 340.0, 340.0, 340.0, 340.0, 339.0, 339.0, 339.0, 339.0, 339.0, 338.0, 336.0, 333.0, 333.0, 333.0, 336.0, 351.0, 371.0, 392.0, 411.0, 429.0, 440.0, 445.0, 447.0, 447.0, 447.0, 447.0, 447.0, 447.0, 446.0, 445.0, 445.0, 445.0, 445.0]	[0.004637487174477428, 0.008947158174123615, 0.026097436842974275, 0.04253944952506572, 0.05959347228053957, 0.07599759695585817, 0.09320863295579329, 0.1092516272328794, 0.1263981512747705, 0.1425967934774235, 0.15972898149630055, 0.17674170300597325, 0.19296014244901016, 0.21173755580093712, 0.22658793244045228, 0.24357300595147535, 0.2595037017017603, 0.27786707802442834, 0.2932881635497324, 0.30932194186607376, 0.326424092578236, 0.3436009952565655, 0.35956070432439446, 0.37812137114815414, 0.39320897427387536, 0.4092069126199931, 0.4263728926307522, 0.44346207269700244, 0.45999897591536865, 0.4761948874220252, 0.4931106703588739, 0.5108319992432371, 0.5262725407374091, 0.5452820605132729, 0.5599996586097404, 0.5758880290668458, 0.5933414114988409, 0.6108217592118308, 0.6260001569753513, 0.6426855400204659, 0.6596777815720998, 0.6768263535923325, 0.6927741159452125, 0.7102913276758045, 0.7264056606218219, 0.7425868947757408, 0.7596484269015491, 0.7775766035774723, 0.7927126760478131, 0.8160598560934886, 0.8262575220433064, 0.842537401476875, 0.8598808746901341, 0.8758736930321902, 0.8930990649969317, 0.9092178352875635, 0.9263179380213842, 0.943460707378108, 0.9593746777973138, 0.9778025660780258, 0.9931417316547595, 1.0091898459359072, 1.0265183005249128, 1.0426449213991873, 1.0596982615534216, 1.0758368290844373, 1.0930915556964464, 1.1093280858476646, 1.1263636766234413, 1.1424920042045414, 1.1596774401841685, 1.1758088397909887, 1.1932816781918518, 1.2091389873530716, 1.226353095320519, 1.2426565267378464, 1.2596641282434575, 1.2758405837230384, 1.2930881423526444, 1.3093123845173977, 1.326551751117222, 1.342597134760581, 1.3596863148850389, 1.3764222152531147, 1.3946770476759411, 1.4092106673051603, 1.4265568711562082, 1.4428087612614036, 1.4596904108766466, 1.4761201355140656, 1.4930103184306063, 1.5092355845845304, 1.5265729138045572, 1.542863033246249, 1.5599522133124992, 1.5758938317303546, 1.5930284090572968, 1.6092560645774938, 1.6264503752463497, 1.6425558335031383, 1.6600221865810454, 1.6762337994296104, 1.6930137317394838, 1.709456768410746, 1.7263582153245807, 1.7427285480080172, 1.7596644695731811, 1.775882567744702, 1.7930471823783591, 1.8092744965688325, 1.82650635385653, 1.842735716025345, 1.8596948481863365, 1.8760713248630054, 1.892999395786319, 1.9092758618644439, 1.9265295644872822, 1.9427691666642204, 1.9596228269510902, 1.9758596983738244, 1.9930297743994743, 2.009207936585881, 2.0264145352412015]
6	images/0319.jpg	images/0269.jpg	left	1.303	[0.0, 0.0, 0.0, 0.0, 0.0, 0.0, 0.0, 0.0, 0.0, 0.0, 0.0, 0.0, 0.0, 0.0, 0.0, 0.0, 0.0, 0.0, 0.0, 0.0, 0.0, 0.0, 0.0, 0.0, 0.0, 0.0, 0.0, 0.0, 0.0, 0.0, 0.0, 0.0, 0.0, 0.0, 0.0, 0.0, 0.0, 0.0, 0.0, 0.0, 0.0, 0.0, 0.0, 0.0, 0.0, 0.0, 0.0, 0.0, 0.0, -2.0, -16.0, -43.0, -91.0, -152.0, -220.0, -310.0, -463.0, -559.0, -621.0, -654.0, -665.0, -669.0, -671.0, -671.0, -671.0, -671.0, -671.0, -671.0, -671.0, -680.0, -683.0, -683.0, -683.0, -682.0, -680.0, -678.0, -677.0, -677.0, -677.0]	[-490.0, -491.0, -491.0, -491.0, -491.0, -491.0, -491.0, -491.0, -491.0, -491.0, -491.0, -491.0, -491.0, -491.0, -491.0, -491.0, -491.0, -491.0, -491.0, -491.0, -491.0, -491.0, -491.0, -491.0, -491.0, -491.0, -491.0, -491.0, -491.0, -491.0, -491.0, -491.0, -491.0, -491.0, -491.0, -491.0, -491.0, -491.0, -491.0, -491.0, -491.0, -491.0, -491.0, -491.0, -491.0, -491.0, -490.0, -488.0, -481.0, -459.0, -402.0, -325.0, -227.0, -105.0, 38.0, 191.0, 390.0, 486.0, 540.0, 540.0, 540.0, 540.0, 540.0, 540.0, 540.0, 540.0, 540.0, 540.0, 540.0, 534.0, 513.0, 476.0, 439.0, 418.0, 409.0, 404.0, 402.0, 402.0, 402.0]	[0.007009069202467799, 0.011494185368064791, 0.014648102689534426, 0.03067846765043214, 0.047096928290557116, 0.06421751104062423, 0.08045881986618042, 0.09753332263790071, 0.11387976200785488, 0.1308388941688463, 0.14697916840668768, 0.16394649259746075, 0.18045847851317376, 0.19748382933903486, 0.21391833265079185, 0.23080612620105967, 0.2471894295886159, 0.2643011376494542, 0.28060252108843997, 0.2974787093116902, 0.313994791242294, 0.33093992876820266, 0.34721741889370605, 0.3642239963519387, 0.3806107130367309, 0.39748178131412715, 0.4139364232541993, 0.43084469687892124, 0.44721332291373983, 0.4642847536597401, 0.4806045690784231, 0.4974616426625289, 0.514018684567418, 0.5308242168975994, 0.5472239042283036, 0.564234577701427, 0.5806284623686224, 0.5975186452851631, 0.6139551965752617, 0.6308057848946191, 0.6469446937553585, 0.6640721031581052, 0.6805711184279062, 0.697523423936218, 0.7136903221835382, 0.7307781369308941, 0.7469757550861686, 0.7641806470928714, 0.780665667669382, 0.797489290649537, 0.8137131914845668, 0.8307736995629966, 0.8472378988517448, 0.8640857564751059, 0.8805178704787977, 0.8973872320493683, 0.9135766582330689, 0.9307467342587188, 0.9469354777829722, 0.9639980338979512, 0.9805687291081995, 0.9974770026747137, 1.013625468884129, 1.0307757475529797, 1.046952544420492, 1.0640543538611382, 1.0805827237199992, 1.0974240960204042, 1.1138391433632933, 1.130835822201334, 1.1471856749267317, 1.1641420764499344, 1.1804724731482565, 1.1974589120363817, 1.2136241035768762, 1.2307344462606125, 1.2471614402602427, 1.2642427696846426, 1.2804973904858343]
7	images/0101.jpg	images/0029.jpg	left	1.62	[0.0, 0.0, 0.0, 0.0, 0.0, 0.0, 0.0, 0.0, 0.0, 0.0, 0.0, 0.0, 0.0, 0.0, 2.0, 3.0, 6.0, 7.0, 10.0, 11.0, 11.0, 11.0, 11.0, 9.0, 9.0, 9.0, 10.0, 20.0, 32.0, 47.0, 78.0, 123.0, 185.0, 259.0, 338.0, 405.0, 465.0, 542.0, 596.0, 643.0, 678.0, 701.0, 718.0, 733.0, 745.0, 751.0, 754.0, 754.0, 755.0, 756.0, 759.0, 761.0, 762.0, 762.0, 762.0, 762.0, 762.0, 762.0, 762.0, 762.0, 762.0, 762.0, 762.0, 762.0, 760.0, 745.0, 700.0, 619.0, 503.0, 359.0, 219.0, 82.0, -138.0, -311.0, -459.0, -556.0, -616.0, -651.0, -677.0, -697.0, -716.0, -732.0, -750.0, -769.0, -782.0, -782.0, -782.0, -782.0, -782.0, -782.0, -782.0, -782.0, -782.0, -782.0, -782.0, -782.0, -782.0, -782.0]	[-490.0, -490.0, -490.0, -490.0, -490.0, -490.0, -490.0, -490.0, -490.0, -490.0, -490.0, -490.0, -490.0, -489.0, -487.0, -486.0, -482.0, -478.0, -472.0, -462.0, -448.0, -428.0, -412.0, -393.0, -382.0, -372.0, -361.0, -344.0, -323.0, -297.0, -257.0, -208.0, -156.0, -101.0, -47.0, 7.0, 67.0, 164.0, 229.0, 285.0, 327.0, 357.0, 380.0, 403.0, 421.0, 432.0, 439.0, 440.0, 441.0, 441.0, 445.0, 447.0, 449.0, 449.0, 449.0, 449.0, 449.0, 449.0, 449.0, 449.0, 449.0, 449.0, 449.0, 449.0, 449.0, 447.0, 434.0, 412.0, 362.0, 308.0, 275.0, 262.0, 272.0, 300.0, 317.0, 325.0, 325.0, 325.0, 328.0, 330.0, 334.0, 336.0, 339.0, 340.0, 342.0, 342.0, 342.0, 342.0, 342.0, 342.0, 342.0, 342.0, 342.0, 342.0, 342.0, 342.0, 342.0, 342.0]	[0.007214893004857004, 0.011038847093004733, 0.015243728819768876, 0.03141745371976867, 0.04770859715063125, 0.06472746259532869, 0.08098686207085848, 0.09796783956699073, 0.1141753564006649, 0.13111434993334115, 0.1477058664895594, 0.16457830008585006, 0.18099027540301904, 0.1979466769262217, 0.21406783652491868, 0.23130686179501936, 0.2476068798569031, 0.2646602200111374, 0.2809261048096232, 0.29801050620153546, 0.3141122097731568, 0.3311703286017291, 0.3476683198241517, 0.36453938810154796, 0.38105444598477334, 0.3979657915770076, 0.4141111858189106, 0.4311256139189936, 0.44757991458754987, 0.46468104131054133, 0.4807308622985147, 0.49789889028761536, 0.5141139164334163, 0.5312870644847862, 0.5476621758425608, 0.5646008280455135, 0.5810756086721085, 0.5979589649359696, 0.6144794841529801, 0.63129457377363, 0.6477655997732654, 0.6646465666708536, 0.6806742009939626, 0.6979142503114417, 0.7143876655609347, 0.7312133365194313, 0.7476529598352499, 0.7645936600747518, 0.7809861794230528, 0.7979104956029914, 0.8143777669174597, 0.8313304137554951, 0.8476949438336305, 0.8646400813595392, 0.8810537633253261, 0.8980098235188052, 0.9141521457349882, 0.93121401919052, 0.9476990398252383, 0.9645329027553089, 0.9810056354035623, 0.9978756796335801, 1.014323836308904, 1.0312925258185714, 1.0476399891776964, 1.0645813720766455, 1.0809503394411877, 1.09789889032254, 1.1141125511494465, 1.131186371203512, 1.147678901150357, 1.164554065442644, 1.181035672663711, 1.1979098129668273, 1.2143060869420879, 1.2312181151937693, 1.2476533011649735, 1.2646407639840618, 1.2808394061867148, 1.2978657810017467, 1.314324177626986, 1.3312560031772591, 1.3476597865228541, 1.364500817435328, 1.3810001740348525, 1.3979357542702928, 1.414270929642953, 1.4312635124661028, 1.4474979946389794, 1.4645912707201205, 1.4809953953954391, 1.4978705596295185, 1.5142927749548107, 1.5313764937454835, 1.5476584211573936, 1.5645748867536895, 1.5810377206653357, 1.5979900262318552]
8	images/0234.jpg	images/0049.jpg	left	1.081	[0.0, 0.0, 0.0, 0.0, 0.0, 0.0, 0.0, 0.0, 0.0, 0.0, 0.0, 0.0, 0.0, 0.0, 0.0, 0.0, 0.0, 0.0, 0.0, 2.0, 2.0, 2.0, 2.0, 2.0, 2.0, 2.0, 2.0, 2.0, 2.0, 2.0, 2.0, 2.0, 2.0, 2.0, 2.0, 2.0, 4.0, 4.0, 4.0, 4.0, 3.0, -5.0, -14.0, -29.0, -61.0, -130.0, -183.0, -241.0, -305.0, -364.0, -408.0, -437.0, -460.0, -480.0, -497.0, -518.0, -537.0, -548.0, -554.0, -558.0, -564.0, -569.0, -572.0, -574.0, -574.0, -574.0]	[-490.0, -490.0, -490.0, -490.0, -490.0, -490.0, -490.0, -490.0, -490.0, -490.0, -490.0, -490.0, -490.0, -490.0, -490.0, -490.0, -490.0, -490.0, -488.0, -484.0, -475.0, -468.0, -462.0, -456.0, -451.0, -447.0, -444.0, -439.0, -433.0, -427.0, -421.0, -417.0, -410.0, -406.0, -399.0, -394.0, -388.0, -384.0, -380.0, -373.0, -363.0, -349.0, -333.0, -307.0, -254.0, -156.0, -91.0, -22.0, 53.0, 116.0, 160.0, 189.0, 212.0, 228.0, 243.0, 254.0, 264.0, 268.0, 269.0, 272.0, 275.0, 278.0, 281.0, 282.0, 282.0, 282.0]	[0.005069614853709936, 0.009034539456479251, 0.013821052736602724, 0.026933020213618875, 0.04337981151184067, 0.06050790357403457, 0.07683488697512075, 0.09375237650237978, 0.11006673058727756, 0.12710914807394147, 0.1433671821723692, 0.16042052226839587, 0.17664339911425486, 0.19375271786702797, 0.21019780245842412, 0.2270258627831936, 0.2434037048369646, 0.26044817024376243, 0.2765577245154418, 0.2936479286290705, 0.3101510398555547, 0.32708900939906016, 0.34339687816100195, 0.3603225597180426, 0.3767597936675884, 0.3936639712774195, 0.409976277325768, 0.4269490628503263, 0.4433712781756185, 0.46029013307997957, 0.4767959750024602, 0.493615843297448, 0.5100977919064462, 0.5269821721594781, 0.5433767394861206, 0.5603239250485785, 0.5766645617550239, 0.5936783072538674, 0.6099725226522423, 0.6269316548714414, 0.6434040461317636, 0.6603447463712655, 0.6767109830398113, 0.6935806859983131, 0.7101117865531705, 0.726967494818382, 0.7433439715532586, 0.7603068583994173, 0.7767283910652623, 0.7936632885830477, 0.8098871894180775, 0.8269067375804298, 0.8433405581745319, 0.8602734077721834, 0.8767365830135532, 0.8935137847438455, 0.90983257611515, 0.9269067375571467, 0.9432798009365797, 0.9603300690068863, 0.9767103003687225, 0.993772515153978, 1.0100162132875994, 1.0270190361188725, 1.043353870161809, 1.0603263143566437]
9	images/0009.jpg	images/0374.jpg	right	1.336	[0.0, 0.0, 0.0, 0.0, 0.0, 0.0, 0.0, 0.0, 0.0, 0.0, 0.0, 0.0, 0.0, 0.0, 0.0, 0.0, 0.0, 4.0, 9.0, 14.0, 18.0, 21.0, 21.0, 21.0, 21.0, 9.0, -26.0, -55.0, -90.0, -128.0, -160.0, -195.0, -226.0, -260.0, -292.0, -316.0, -324.0, -317.0, -282.0, -182.0, -43.0, 117.0, 287.0, 459.0, 616.0, 759.0, 870.0, 943.0, 959.0, 959.0, 959.0, 959.0, 959.0, 959.0, 959.0, 959.0, 959.0, 959.0, 954.0, 938.0, 919.0, 892.0, 879.0, 875.0, 875.0, 875.0, 875.0, 875.0, 873.0, 869.0, 865.0, 859.0, 855.0, 844.0, 838.0, 830.0, 823.0, 820.0, 819.0, 819.0, 819.0]	[-490.0, -490.0, -490.0, -490.0, -490.0, -490.0, -490.0, -490.0, -490.0, -490.0, -490.0, -490.0, -490.0, -490.0, -490.0, -490.0, -491.0, -486.0, -473.0, -455.0, -433.0, -402.0, -375.0, -346.0, -315.0, -284.0, -232.0, -197.0, -161.0, -126.0, -98.0, -71.0, -48.0, -23.0, -1.0, 19.0, 33.0, 52.0, 74.0, 122.0, 167.0, 219.0, 270.0, 319.0, 364.0, 405.0, 435.0, 446.0, 450.0, 451.0, 451.0, 451.0, 451.0, 451.0, 451.0, 451.0, 451.0, 451.0, 449.0, 443.0, 436.0, 429.0, 426.0, 424.0, 424.0, 424.0, 424.0, 424.0, 423.0, 420.0, 417.0, 414.0, 412.0, 407.0, 403.0, 400.0, 397.0, 396.0, 396.0, 396.0, 396.0]	[0.006736685463692993, 0.010001877322793007, 0.014486310828942806, 0.030610201065428555, 0.04689349385444075, 0.06392703665187582, 0.07993623899528757, 0.09720564290182665, 0.11347186903003603, 0.1304709371761419, 0.14691943518118933, 0.16373862081672996, 0.18027688935399055, 0.19712030969094485, 0.21362785826204345, 0.23043577990029007, 0.24694810714572668, 0.2638819806743413, 0.2801400148309767, 0.29707354702986777, 0.31336230115266517, 0.330447043874301, 0.34680884325644, 0.36373042879858986, 0.3799679829389788, 0.39711655501741916, 0.41353911167243496, 0.43043065990787, 0.4469078298425302, 0.46382770873606205, 0.4800413695629686, 0.49708276300225407, 0.5135203383397311, 0.5305006331764162, 0.5468119152355939, 0.5637529568048194, 0.5803001000313088, 0.5970872003817931, 0.6135432076407596, 0.6304436305654235, 0.6468037232407369, 0.663790162128862, 0.6800970068434253, 0.6970496537396684, 0.7132674105232581, 0.7304166652611457, 0.7468791578430682, 0.7637355488259345, 0.7801888254471123, 0.7970943683758378, 0.8135380876483396, 0.8305511504877359, 0.8467040540417656, 0.8638355594011955, 0.8800038229092024, 0.8970749123836868, 0.9134752823738381, 0.9304869798361324, 0.946831371227745, 0.9638799327076413, 0.9802140840911306, 0.9971711682737805, 1.0134827917208895, 1.0305006331764162, 1.0468508272315376, 1.0637505674967542, 1.0800922281923704, 1.0970653550466523, 1.1132742371992208, 1.130427929223515, 1.146836491243448, 1.163725650170818, 1.1802209107554518, 1.1971407896489836, 1.2136244449065998, 1.230527939798776, 1.2470259310794063, 1.263770706136711, 1.28023285738891, 1.2971906242892146, 1.3135261409915984]
10	images/0505.jpg	images/0138.jpg	right	0.988	[0.0, 0.0, 0.0, 0.0, 0.0, 0.0, 0.0, 0.0, 0.0, 0.0, 2.0, 3.0, 4.0, 5.0, 6.0, 8.0, 9.0, 11.0, 13.0, 17.0, 20.0, 23.0, 25.0, 28.0, 29.0, 29.0, 29.0, 29.0, 29.0, 29.0, 31.0, 38.0, 52.0, 78.0, 138.0, 221.0, 311.0, 411.0, 514.0, 613.0, 695.0, 752.0, 791.0, 801.0, 805.0, 806.0, 806.0, 807.0, 807.0, 807.0, 807.0, 807.0, 807.0, 807.0, 807.0, 807.0, 807.0, 807.0, 807.0, 807.0]	[-490.0, -490.0, -490.0, -490.0, -490.0, -490.0, -490.0, -490.0, -490.0, -490.0, -491.0, -491.0, -491.0, -491.0, -491.0, -490.0, -489.0, -489.0, -488.0, -484.0, -480.0, -476.0, -472.0, -468.0, -467.0, -467.0, -465.0, -464.0, -464.0, -464.0, -461.0, -454.0, -443.0, -423.0, -381.0, -309.0, -219.0, -113.0, 8.0, 126.0, 225.0, 287.0, 326.0, 336.0, 342.0, 346.0, 349.0, 350.0, 352.0, 352.0, 352.0, 352.0, 352.0, 352.0, 352.0, 352.0, 352.0, 352.0, 352.0, 352.0]	[0.008230358827859163, 0.01292539481073618, 0.017375012394040823, 0.03256228473037481, 0.049826910020783544, 0.06622045335825533, 0.08318299887469038, 0.09922496922081336, 0.11651246377732605, 0.13291488180402666, 0.1497886807192117, 0.16607914149062708, 0.18318504688795656, 0.19944478769320995, 0.21645341318799183, 0.23286846047267318, 0.24978321936214343, 0.2662303519900888, 0.2830812816391699, 0.29923964652698487, 0.31646262912545353, 0.33284798049135134, 0.34981291537405923, 0.3660685601644218, 0.3831563749117777, 0.3993167877779342, 0.4163796852226369, 0.43257115938467905, 0.4498043820494786, 0.46627233596518636, 0.4830700176535174, 0.4994826756301336, 0.5164732104749419, 0.5326250900398009, 0.5498054060153663, 0.5660173601936549, 0.5830939109437168, 0.5994973529595882, 0.6164018718991429, 0.6328616338432766, 0.6496910594869405, 0.6661409227526747, 0.6830502203083597, 0.6994492249796167, 0.7164394184947014, 0.7325783274136484, 0.7500552618294023, 0.766057978849858, 0.7831570575945079, 0.7996243288507685, 0.8164063091971911, 0.8327896125265397, 0.8496579501661472, 0.8661422880832106, 0.8830078950268216, 0.8991986865294166, 0.9164220105158165, 0.9328247698722407, 0.9497050541103818, 0.9661614027572796]
11	images/0511.jpg	images/0535.jpg	right	1.035	[0.0, 0.0, 0.0, 0.0, 0.0, 0.0, 0.0, 0.0, 0.0, 0.0, 0.0, 0.0, 0.0, 0.0, 0.0, 0.0, 0.0, 0.0, 0.0, 0.0, 0.0, 2.0, 2.0, 3.0, 4.0, 5.0, 6.0, 9.0, 11.0, 14.0, 17.0, 19.0, 22.0, 24.0, 27.0, 30.0, 41.0, 59.0, 80.0, 119.0, 176.0, 242.0, 330.0, 379.0, 416.0, 445.0, 469.0, 492.0, 510.0, 531.0, 548.0, 563.0, 577.0, 603.0, 613.0, 642.0, 653.0, 658.0, 660.0, 662.0, 663.0, 663.0, 663.0]	[-490.0, -490.0, -490.0, -490.0, -490.0, -490.0, -490.0, -490.0, -490.0, -490.0, -490.0, -490.0, -490.0, -490.0, -490.0, -490.0, -490.0, -490.0, -490.0, -490.0, -490.0, -489.0, -488.0, -486.0, -485.0, -484.0, -482.0, -480.0, -478.0, -474.0, -471.0, -468.0, -466.0, -461.0, -459.0, -456.0, -447.0, -430.0, -406.0, -361.0, -289.0, -211.0, -113.0, -56.0, -13.0, 24.0, 57.0, 84.0, 106.0, 134.0, 159.0, 180.0, 200.0, 230.0, 240.0, 268.0, 282.0, 288.0, 290.0, 291.0, 293.0, 294.0, 294.0]	[0.006552024278789759, 0.011248084250837564, 0.015219152846839279, 0.02959541796008125, 0.04640095023205504, 0.06270130968187004, 0.07980448444141075, 0.09598059859126806, 0.11310015735216439, 0.12952305533690378, 0.14641153160482645, 0.16284159757196903, 0.17976523115066811, 0.19610313716111705, 0.21325409854762256, 0.22934692748822272, 0.2464948168490082, 0.262862418894656, 0.27977922576246783, 0.29627448634710163, 0.31306875467998907, 0.3293814021162689, 0.3464791155420244, 0.36274192831479013, 0.3796966231893748, 0.39613488112809137, 0.41312643996207044, 0.4292540848837234, 0.4463784222607501, 0.46287470689276233, 0.47975021245656535, 0.4958990199957043, 0.5129513361607678, 0.529307674150914, 0.5464989128522575, 0.5627665042993613, 0.5797003778279759, 0.5962229450815357, 0.61323771456955, 0.6295291993301362, 0.64637637429405, 0.6625934484181926, 0.6798099457519129, 0.6962075851042755, 0.7130383760668337, 0.7292848048382439, 0.7463869556086138, 0.7627610429772176, 0.7796795565518551, 0.7962652703863569, 0.8130206267233007, 0.8294520580675453, 0.8463128863368183, 0.8628159975633025, 0.8796638551866636, 0.8960771958809346, 0.9131216613459401, 0.9294199727592058, 0.9464333769283257, 0.9627378323348239, 0.9797577217686921, 0.9958925346727483, 1.0129581628134474]
12	images/0063.jpg	images/0015.jpg	right	1.15	[0.0, 0.0, 0.0, 0.0, 0.0, 0.0, 0.0, 0.0, 0.0, 1.0, 1.0, 1.0, 1.0, 1.0, 2.0, 3.0, 3.0, 3.0, 3.0, 4.0, 5.0, 6.0, 8.0, 11.0, 13.0, 16.0, 19.0, 19.0, 20.0, 20.0, 20.0, 20.0, 20.0, 20.0, 20.0, 21.0, 21.0, 21.0, 21.0, 21.0, 21.0, 21.0, 21.0, 21.0, 21.0, 22.0, 24.0, 32.0, 48.0, 101.0, 234.0, 317.0, 397.0, 479.0, 549.0, 600.0, 637.0, 655.0, 665.0, 670.0, 674.0, 680.0, 691.0, 700.0, 703.0, 704.0, 706.0, 710.0, 712.0, 716.0]	[-490.0, -490.0, -490.0, -490.0, -490.0, -490.0, -490.0, -490.0, -490.0, -490.0, -490.0, -490.0, -490.0, -490.0, -490.0, -490.0, -490.0, -490.0, -490.0, -489.0, -487.0, -486.0, -483.0, -476.0, -471.0, -463.0, -449.0, -447.0, -437.0, -428.0, -419.0, -412.0, -406.0, -403.0, -402.0, -400.0, -399.0, -397.0, -397.0, -397.0, -397.0, -397.0, -397.0, -397.0, -397.0, -396.0, -392.0, -381.0, -355.0, -288.0, -129.0, -40.0, 27.0, 87.0, 134.0, 174.0, 204.0, 223.0, 234.0, 241.0, 245.0, 251.0, 263.0, 272.0, 276.0, 277.0, 278.0, 282.0, 285.0, 291.0]	[0.006248920515645295, 0.010671231371816248, 0.013895804644562304, 0.029244527511764318, 0.045717601489741355, 0.06286173616535962, 0.07934914610814303, 0.09622123837471008, 0.11245367251103744, 0.12958312989212573, 0.14595653460128233, 0.1629429734311998, 0.17935631412547082, 0.19623523304471746, 0.2124690324999392, 0.2295544579392299, 0.24598793726181611, 0.26290884014451876, 0.2792023728834465, 0.29636357427807525, 0.3125755284563638, 0.32965037249960005, 0.34570360684301704, 0.36288050952134654, 0.3792938501574099, 0.39622669969685376, 0.4126871443586424, 0.429533977934625, 0.4457322788075544, 0.4628675388521515, 0.47928599949227646, 0.4962789236451499, 0.5124731285031885, 0.5297182978247292, 0.5457124814856797, 0.5627002856344916, 0.579278148827143, 0.5963188596069813, 0.6126915816566907, 0.6295636739232577, 0.6457322788191959, 0.6627118909964338, 0.6793371994863264, 0.6962400117190555, 0.7125471977633424, 0.7295056473230943, 0.7459411746240221, 0.7629576507606544, 0.7793481221306138, 0.7963133982848376, 0.8126270697102882, 0.8295916632632725, 0.8459865719196387, 0.8628218002268113, 0.8792324102250859, 0.896232161030639, 0.9126018110546283, 0.929464346030727, 0.9459196706302464, 0.9628477415535599, 0.9792644955450669, 0.9961055264575407, 1.0127461949596182, 1.0294810713385232, 1.0459135266719386, 1.062832381518092, 1.079244015563745, 1.096384395554196, 1.1125021417974494, 1.129434991395101]
13	images/0546.jpg	images/0489.jpg	left	1.182	[0.0, 0.0, 0.0, 0.0, 0.0, 0.0, 0.0, 0.0, 0.0, 0.0, -1.0, -1.0, -1.0, -1.0, -1.0, -1.0, -1.0, -1.0, -1.0, -1.0, -1.0, -1.0, -1.0, -1.0, 0.0, 0.0, 1.0, 1.0, 1.0, 1.0, 2.0, 2.0, 2.0, 2.0, 2.0, 2.0, 2.0, 2.0, 2.0, 2.0, 2.0, 2.0, 2.0, 2.0, 1.0, -8.0, -19.0, -39.0, -70.0, -129.0, -203.0, -301.0, -391.0, -457.0, -483.0, -499.0, -501.0, -502.0, -507.0, -517.0, -529.0, -542.0, -562.0, -590.0, -620.0, -656.0, -689.0, -710.0, -718.0, -718.0, -718.0]	[-490.0, -490.0, -490.0, -490.0, -490.0, -490.0, -490.0, -490.0, -490.0, -490.0, -491.0, -491.0, -491.0, -491.0, -491.0, -491.0, -491.0, -491.0, -491.0, -491.0, -491.0, -491.0, -492.0, -492.0, -492.0, -492.0, -490.0, -488.0, -486.0, -485.0, -484.0, -484.0, -484.0, -484.0, -484.0, -484.0, -484.0, -484.0, -484.0, -484.0, -484.0, -484.0, -484.0, -484.0, -482.0, -455.0, -409.0, -336.0, -238.0, -122.0, 4.0, 132.0, 232.0, 284.0, 302.0, 314.0, 316.0, 317.0, 322.0, 331.0, 336.0, 339.0, 341.0, 345.0, 355.0, 365.0, 376.0, 381.0, 383.0, 383.0, 383.0]	[0.0039838344673626125, 0.00894988892832771, 0.024145694624166936, 0.041025978862307966, 0.05753250344423577, 0.07447183830663562, 0.09086162701714784, 0.10785045515513048, 0.12417163595091552, 0.14114305609837174, 0.15753728209529072, 0.17445067566586658, 0.19090975495055318, 0.20777979923877865, 0.22417231858707964, 0.24123965337639675, 0.25769258866785094, 0.27448992896825075, 0.2909278456354514, 0.30796787375584245, 0.32441841973923147, 0.3411966454004869, 0.3576065727393143, 0.3744380463613197, 0.3909466189215891, 0.40782383119221777, 0.4241907505784184, 0.44118777074618265, 0.45769702596589923, 0.4745861848932691, 0.4908585550147109, 0.5078344125067815, 0.5242173745646141, 0.5411154081230052, 0.5572969836648554, 0.5744684250093997, 0.5909001976251602, 0.6077347432728857, 0.6239726387429982, 0.6409682935918681, 0.6576024767127819, 0.6744527237024158, 0.69090258696815, 0.7077944765915163, 0.7242047452018596, 0.7410932214697823, 0.7573126849601977, 0.774498462327756, 0.7908718669787049, 0.8077279166318476, 0.8239282654831186, 0.8411352054681629, 0.857520556775853, 0.8743841157411225, 0.8909162402851507, 0.9078511378611438, 0.924312265124172, 0.9411020961706527, 0.9572966423002072, 0.9744663769961335, 0.9908152057323605, 1.0077429352677427, 1.023955230775755, 1.0409495202475227, 1.057310295640491, 1.0743902597459964, 1.0906230352120474, 1.107747372589074, 1.1242300038575195, 1.141108240117319, 1.1574690155102871]
14	images/0564.jpg	images/0443.jpg	left	1.032	[0.0, 0.0, 0.0, 0.0, 0.0, 0.0, 0.0, 0.0, 0.0, 0.0, 0.0, 0.0, 0.0, 0.0, 0.0, 0.0, 0.0, 0.0, 0.0, 0.0, 0.0, 0.0, 0.0, 0.0, 0.0, 0.0, 0.0, 0.0, 0.0, 0.0, 0.0, 0.0, 0.0, 0.0, -1.0, -2.0, -3.0, -4.0, -6.0, -11.0, -25.0, -53.0, -104.0, -168.0, -246.0, -320.0, -387.0, -444.0, -497.0, -548.0, -574.0, -597.0, -619.0, -639.0, -659.0, -676.0, -681.0, -681.0, -681.0, -681.0, -681.0, -681.0]	[-490.0, -490.0, -490.0, -490.0, -490.0, -490.0, -490.0, -490.0, -490.0, -490.0, -490.0, -490.0, -490.0, -490.0, -490.0, -490.0, -490.0, -490.0, -490.0, -490.0, -490.0, -490.0, -490.0, -490.0, -490.0, -490.0, -490.0, -490.0, -490.0, -490.0, -490.0, -490.0, -490.0, -490.0, -490.0, -489.0, -487.0, -479.0, -463.0, -431.0, -382.0, -294.0, -186.0, -79.0, 20.0, 92.0, 146.0, 184.0, 212.0, 238.0, 247.0, 252.0, 260.0, 269.0, 281.0, 291.0, 295.0, 295.0, 295.0, 295.0, 295.0, 295.0]	[0.0030936378752812743, 0.007892097812145948, 0.02257863461272791, 0.03944458288606256, 0.05558076110901311, 0.07278462906833738, 0.08922118041664362, 0.10603627003729343, 0.12222637888044119, 0.1394319535465911, 0.15584665955975652, 0.17273342912085354, 0.18925463105551898, 0.20605913933832198, 0.2224557547015138, 0.23951250815298408, 0.25560943310847506, 0.27283582906238735, 0.2891819271026179, 0.3062632565270178, 0.32248374400660396, 0.33938894560560584, 0.3558391502010636, 0.3727276264689863, 0.3891665671253577, 0.4061195552931167, 0.4223567681037821, 0.43947837484302, 0.4558084302698262, 0.4727757544605993, 0.48914779379265383, 0.5061693899333477, 0.5223236588062719, 0.5393674416118301, 0.5558452942059375, 0.572713631845545, 0.58918534044642, 0.6060205687535927, 0.6225602026097476, 0.6394708655425347, 0.6558702115435153, 0.6728692796896212, 0.6891744177555665, 0.7059963340871036, 0.7224963733460754, 0.7393848496139981, 0.755792046256829, 0.7726951998192817, 0.7891976284445263, 0.8060383180272765, 0.8222321815555915, 0.8394353668554686, 0.8558002382633276, 0.8728122770553455, 0.8890447111916728, 0.9061253579566255, 0.9222741655539721, 0.9394077188917436, 0.9556998863117769, 0.9727388904429972, 0.989179196418263, 1.0060574326780625]
15	images/0591.jpg	images/0004.jpg	left	1.302	[0.0, 0.0, 0.0, 0.0, 0.0, 0.0, 0.0, 0.0, 0.0, 0.0, 0.0, 0.0, 0.0, 0.0, 0.0, 0.0, 0.0, 0.0, 0.0, 0.0, -2.0, -7.0, -12.0, -23.0, -34.0, -47.0, -57.0, -59.0, -58.0, -44.0, -18.0, 13.0, 45.0, 87.0, 138.0, 225.0, 289.0, 348.0, 385.0, 403.0, 412.0, 413.0, 413.0, 413.0, 413.0, 413.0, 409.0, 404.0, 401.0, 401.0, 409.0, 419.0, 429.0, 436.0, 439.0, 433.0, 413.0, 371.0, 280.0, 92.0, -66.0, -241.0, -413.0, -550.0, -662.0, -755.0, -809.0, -837.0, -853.0, -862.0, -870.0, -880.0, -886.0, -889.0, -889.0, -889.0, -889.0, -889.0, -889.0]	[-490.0, -490.0, -490.0, -490.0, -490.0, -490.0, -490.0, -490.0, -490.0, -490.0, -490.0, -490.0, -490.0, -490.0, -490.0, -490.0, -490.0, -490.0, -490.0, -491.0, -488.0, -475.0, -468.0, -457.0, -446.0, -432.0, -417.0, -402.0, -383.0, -351.0, -303.0, -262.0, -220.0, -171.0, -117.0, -42.0, 5.0, 44.0, 65.0, 80.0, 90.0, 93.0, 94.0, 97.0, 103.0, 112.0, 134.0, 152.0, 173.0, 197.0, 222.0, 244.0, 269.0, 287.0, 301.0, 311.0, 317.0, 323.0, 328.0, 355.0, 368.0, 385.0, 398.0, 413.0, 423.0, 436.0, 444.0, 447.0, 449.0, 449.0, 449.0, 449.0, 449.0, 448.0, 448.0, 448.0, 448.0, 448.0, 448.0]	[0.0074551914585754275, 0.011185961600858718, 0.015905573614872992, 0.03196461056359112, 0.048381364555098116, 0.0653473234269768, 0.08169854147126898, 0.09862080967286602, 0.11481911048758775, 0.13195744255790487, 0.14838409522781149, 0.1653135314118117, 0.18149135226849467, 0.19877816422376782, 0.21506691828835756, 0.23205062648048624, 0.24839604186126962, 0.2653097767615691, 0.2817975280340761, 0.2986836149357259, 0.31505087565165013, 0.33192399190738797, 0.3484479244798422, 0.36536575539503247, 0.3815517682232894, 0.3985477644018829, 0.4150952489580959, 0.43196734122466296, 0.44842198316473514, 0.4652759847813286, 0.481698882766068, 0.49858531105564907, 0.5150877396226861, 0.5319065839285031, 0.5484083298360929, 0.565281787479762, 0.5816681627766229, 0.598580532358028, 0.6150631636264734, 0.6319912345497869, 0.6483834125683643, 0.6653121660929173, 0.6816797681385651, 0.6985327457659878, 0.715024592995178, 0.7319717785576358, 0.7483526925789192, 0.7652534568333067, 0.7816562161315233, 0.798620468354784, 0.8150222036638297, 0.8319741679006256, 0.8481618873775005, 0.8652657447964884, 0.8814473203383386, 0.8985760950599797, 0.9150191316730343, 0.9318987332517281, 0.9483257272513583, 0.9652275154949166, 0.9816644081147388, 0.998745396209415, 1.0149931903579272, 1.032064279774204, 1.0483926285523921, 1.0653070461121388, 1.0816903494414873, 1.098587017680984, 1.1150030890130438, 1.131901463959366, 1.1483093432616442, 1.1652725714375265, 1.1816609948291443, 1.1986105696996674, 1.2149853397277184, 1.2319523225887679, 1.2481414074427448, 1.2652507261373103, 1.2816562161315233]
16	images/0143.jpg	images/0585.jpg	left	1.002	[0.0, 0.0, 0.0, 0.0, 1.0, 2.0, 3.0, 3.0, 3.0, 3.0, 4.0, 4.0, 4.0, 4.0, 4.0, 4.0, 4.0, 4.0, 4.0, 4.0, 4.0, 4.0, 4.0, 4.0, 4.0, 5.0, 5.0, 5.0, 5.0, 5.0, 5.0, 5.0, 5.0, 4.0, 3.0, -1.0, -7.0, -17.0, -33.0, -61.0, -101.0, -182.0, -231.0, -275.0, -316.0, -349.0, -386.0, -439.0, -503.0, -563.0, -621.0, -660.0, -695.0, -712.0, -725.0, -729.0, -729.0, -729.0, -729.0, -729.0, -729.0]	[-490.0, -490.0, -490.0, -490.0, -491.0, -494.0, -495.0, -495.0, -495.0, -495.0, -495.0, -495.0, -495.0, -495.0, -495.0, -495.0, -495.0, -495.0, -495.0, -495.0, -495.0, -495.0, -495.0, -495.0, -495.0, -495.0, -494.0, -492.0, -489.0, -488.0, -486.0, -485.0, -485.0, -483.0, -482.0, -477.0, -471.0, -462.0, -440.0, -394.0, -325.0, -208.0, -132.0, -72.0, -12.0, 51.0, 127.0, 211.0, 291.0, 356.0, 402.0, 429.0, 455.0, 466.0, 473.0, 475.0, 475.0, 475.0, 475.0, 475.0, 475.0]	[0.006764333345927298, 0.011352190806064755, 0.015388112689834088, 0.029980782885104418, 0.046700640639755875, 0.06290918146260083, 0.08005399879766628, 0.0964441288379021, 0.11344046634621918, 0.1300927401171066, 0.14674262457992882, 0.1629170321393758, 0.18003590818261728, 0.19650591013487428, 0.21341452503111213, 0.22979919367935508, 0.24677129654446617, 0.26312080794014037, 0.28010417480254546, 0.29648577148327604, 0.3135001996415667, 0.3299084202735685, 0.34679075254825875, 0.3629706213832833, 0.38008915609680116, 0.39645778213161975, 0.41346401831833646, 0.42987872433150187, 0.4467890458763577, 0.46292044542497024, 0.48006526281824335, 0.49652843811782077, 0.5134155490086414, 0.5298916949541308, 0.5466832326492295, 0.5631532346014865, 0.5800502441707067, 0.5962860916624777, 0.6133838050300255, 0.6297961217351258, 0.6467074672691524, 0.662919421447441, 0.680009625502862, 0.6965680327266455, 0.7134377356851473, 0.7298521003103815, 0.7466845979797654, 0.7631798585643992, 0.7800635561579838, 0.7965437980601564, 0.8133554743835703, 0.8297865643980913, 0.8467518405523151, 0.8631259279209189, 0.8800454654847272, 0.8964731421438046, 0.9134332983521745, 0.929803631035611, 0.9467078085872345, 0.962937512085773, 0.9801396733964793]
17	images/0083.jpg	images/0191.jpg	right	0.95	[0.0, 0.0, 0.0, 0.0, 0.0, 0.0, 0.0, 0.0, 0.0, 0.0, 0.0, 0.0, 0.0, 0.0, 1.0, 2.0, 2.0, 3.0, 4.0, 5.0, 5.0, 6.0, 7.0, 8.0, 13.0, 20.0, 39.0, 65.0, 104.0, 151.0, 205.0, 263.0, 325.0, 389.0, 440.0, 486.0, 524.0, 564.0, 613.0, 652.0, 684.0, 711.0, 730.0, 754.0, 775.0, 795.0, 806.0, 809.0, 809.0, 809.0, 809.0, 809.0, 809.0, 809.0, 809.0, 809.0, 809.0]	[-490.0, -490.0, -490.0, -490.0, -490.0, -490.0, -490.0, -490.0, -490.0, -490.0, -490.0, -490.0, -490.0, -490.0, -490.0, -490.0, -488.0, -488.0, -486.0, -485.0, -482.0, -480.0, -475.0, -471.0, -462.0, -442.0, -400.0, -347.0, -288.0, -222.0, -156.0, -89.0, -18.0, 48.0, 100.0, 145.0, 177.0, 211.0, 256.0, 285.0, 313.0, 336.0, 353.0, 373.0, 391.0, 411.0, 423.0, 427.0, 427.0, 427.0, 427.0, 427.0, 427.0, 427.0, 427.0, 427.0, 427.0]	[0.004073946387507021, 0.008153558883350343, 0.02463175286538899, 0.04144342913059518, 0.05844488664297387, 0.07484525663312525, 0.09168765292270109, 0.10813478560885414, 0.12502872315235436, 0.1415250077843666, 0.15838788403198123, 0.17468278214801103, 0.1917586502386257, 0.2081023589707911, 0.2249549952102825, 0.2414857544354163, 0.25829026277642697, 0.2747582167503424, 0.29161904501961544, 0.30813819891773164, 0.32494065922219306, 0.3414734664838761, 0.35828616679646075, 0.3747418327257037, 0.391611194354482, 0.40781154320575297, 0.42498332588002086, 0.44142841052962467, 0.45831176679348573, 0.4747510487213731, 0.49167707160813734, 0.5080678843078203, 0.5249672832433134, 0.5413427359308116, 0.5583151800674386, 0.5745032409322448, 0.5916419143322855, 0.6078501138254069, 0.6249577258713543, 0.6413202079129405, 0.6582810467807576, 0.674732958083041, 0.6916917489725165, 0.7078504551318474, 0.7249386112671345, 0.7413714078720659, 0.7582506681210361, 0.7747138434206136, 0.7916187036898918, 0.8080197563394904, 0.8249648938653991, 0.8411485173855908, 0.8584315746556967, 0.8744585263193585, 0.8916828742949292, 0.9078156391624361, 0.9249468032503501]
18	images/0261.jpg	images/0424.jpg	left	0.847	[0.0, 1.0, 1.0, 2.0, 2.0, 2.0, 3.0, 5.0, 5.0, 5.0, 5.0, 6.0, 6.0, 6.0, 7.0, 7.0, 7.0, 9.0, 10.0, 13.0, 16.0, 20.0, 24.0, 24.0, 24.0, 17.0, 4.0, -21.0, -56.0, -90.0, -124.0, -160.0, -215.0, -231.0, -272.0, -307.0, -346.0, -384.0, -420.0, -464.0, -504.0, -540.0, -564.0, -582.0, -596.0, -608.0, -618.0, -624.0, -628.0, -631.0, -631.0]	[-490.0, -490.0, -490.0, -490.0, -490.0, -490.0, -491.0, -492.0, -492.0, -492.0, -492.0, -492.0, -492.0, -492.0, -492.0, -492.0, -492.0, -491.0, -483.0, -472.0, -460.0, -426.0, -399.0, -365.0, -336.0, -300.0, -264.0, -223.0, -181.0, -138.0, -98.0, -60.0, 0.0, 15.0, 50.0, 79.0, 109.0, 143.0, 169.0, 196.0, 220.0, 238.0, 252.0, 263.0, 269.0, 275.0, 281.0, 285.0, 288.0, 289.0, 289.0]	[0.003912154526915401, 0.009023958176840097, 0.024285982479341328, 0.041153637459501624, 0.05747720750514418, 0.07431789714610204, 0.090731579111889, 0.1077507859445177, 0.1241064413334243, 0.14099286956479773, 0.15745467954548076, 0.17434213176602498, 0.19057729659834877, 0.20765316468896344, 0.22412726265611127, 0.24096112558618188, 0.2573693462763913, 0.2743114118347876, 0.2907213391154073, 0.3076422420563176, 0.32410029735183343, 0.34104714152636006, 0.3571577197872102, 0.3741840946022421, 0.3907786830677651, 0.4078142739017494, 0.42416105460142717, 0.440956688253209, 0.4571669357828796, 0.4743452037801035, 0.49049810733413324, 0.5076439487165771, 0.5241593479295261, 0.5410648908582516, 0.5575229461537674, 0.5743059504893608, 0.590838075033389, 0.6076917353202589, 0.6241508146049455, 0.6409686349215917, 0.6571829784079455, 0.6742851291783154, 0.6908070137142204, 0.7076214207336307, 0.7240893746493384, 0.7409300642902963, 0.7575454741017893, 0.7743083398090675, 0.7907848270842806, 0.8076473620603792, 0.8240415880572982]
19	images/0018.jpg	images/0370.jpg	right	1.819	[0.0, 0.0, 0.0, 0.0, 0.0, 0.0, 0.0, 0.0, 1.0, 1.0, 2.0, 2.0, 2.0, 3.0, 3.0, 3.0, 3.0, 4.0, 4.0, 4.0, 4.0, 4.0, 4.0, 0.0, -8.0, -20.0, -33.0, -50.0, -71.0, -87.0, -89.0, -77.0, -34.0, 101.0, 210.0, 318.0, 427.0, 525.0, 608.0, 676.0, 729.0, 755.0, 778.0, 790.0, 796.0, 797.0, 797.0, 797.0, 797.0, 797.0, 797.0, 797.0, 797.0, 797.0, 797.0, 797.0, 797.0, 797.0, 797.0, 797.0, 797.0, 797.0, 797.0, 797.0, 797.0, 797.0, 797.0, 797.0, 797.0, 794.0, 755.0, 710.0, 639.0, 538.0, 405.0, 243.0, 66.0, -102.0, -250.0, -372.0, -459.0, -514.0, -544.0, -568.0, -582.0, -591.0, -600.0, -604.0, -605.0, -605.0, -605.0, -605.0, -605.0, -605.0, -586.0, -504.0, -375.0, -197.0, 51.0, 331.0, 598.0, 838.0, 959.0, 959.0, 959.0, 959.0, 959.0, 959.0, 959.0, 959.0]	[-490.0, -490.0, -490.0, -490.0, -490.0, -490.0, -490.0, -490.0, -490.0, -490.0, -490.0, -490.0, -490.0, -490.0, -490.0, -489.0, -489.0, -488.0, -488.0, -488.0, -485.0, -482.0, -475.0, -459.0, -442.0, -421.0, -397.0, -368.0, -334.0, -301.0, -279.0, -257.0, -221.0, -127.0, -52.0, 26.0, 105.0, 174.0, 227.0, 273.0, 312.0, 333.0, 349.0, 356.0, 360.0, 360.0, 360.0, 360.0, 360.0, 360.0, 360.0, 360.0, 360.0, 360.0, 360.0, 360.0, 360.0, 360.0, 360.0, 360.0, 360.0, 360.0, 360.0, 360.0, 360.0, 360.0, 360.0, 360.0, 360.0, 360.0, 350.0, 341.0, 329.0, 325.0, 325.0, 325.0, 344.0, 368.0, 389.0, 405.0, 418.0, 426.0, 431.0, 432.0, 432.0, 432.0, 432.0, 432.0, 432.0, 432.0, 432.0, 432.0, 432.0, 432.0, 432.0, 432.0, 432.0, 432.0, 432.0, 432.0, 432.0, 432.0, 432.0, 436.0, 440.0, 444.0, 445.0, 445.0, 445.0, 445.0]	[0.006808365404140204, 0.011843710439279675, 0.015683024481404573, 0.029952793614938855, 0.04688564321259037, 0.0632477838662453, 0.08028371602995321, 0.0965315101784654, 0.11341657309094444, 0.12984663905808702, 0.14669381402200088, 0.16291361884213984, 0.18012670282041654, 0.19657997944159433, 0.2134742583730258, 0.2299213910009712, 0.24672624067170545, 0.2629300028202124, 0.2800376149243675, 0.2964792862185277, 0.31337663711747155, 0.32981011644005775, 0.346733067301102, 0.3632119439425878, 0.38009700685506687, 0.39642808627104387, 0.4134097464266233, 0.4298510763910599, 0.44668903533602133, 0.46288050955627114, 0.4800792575115338, 0.49622089706826955, 0.5133636664832011, 0.5298643884016201, 0.5467132700141519, 0.5631982905906625, 0.580183022771962, 0.5962219210923649, 0.613407357071992, 0.6296165806124918, 0.6467767579597421, 0.6631242213188671, 0.6800113322678953, 0.6966025074361823, 0.7133977997582406, 0.7297176151769236, 0.7467255580122583, 0.7628385255811736, 0.7800567295635119, 0.7962359157390893, 0.8133858530782163, 0.8295541166444309, 0.8466907420079224, 0.8628596882335842, 0.8801000788225792, 0.8961959797888994, 0.9134268130874261, 0.9298667777329683, 0.946739211329259, 0.9630996453342959, 0.9801761960843578, 0.9964960115030408, 1.013354109134525, 1.0298439083853737, 1.0468074778909795, 1.0628774375654757, 1.0800970068667084, 1.0966574620688334, 1.113387901103124, 1.1298367403796874, 1.1468170352163725, 1.1631269520148635, 1.1800980308325961, 1.1965311688254587, 1.213452413037885, 1.229825476417318, 1.2466419314150698, 1.2631016933592036, 1.2800458068959415, 1.2964297928847373, 1.3133353358134627, 1.329796463076491, 1.3466702620498836, 1.3631269519682974, 1.3800068949349225, 1.3965591581072658, 1.413452071719803, 1.4298305964330211, 1.4468979311641306, 1.4631750799599104, 1.4800970068317838, 1.496415798261296, 1.513344551785849, 1.5297957804286852, 1.5467590086045675, 1.5628641255316325, 1.5801396734896116, 1.5963611849583685, 1.6134397837449796, 1.629846639058087, 1.6467388699529693, 1.663170983956661, 1.6800499028759077, 1.6964663155376911, 1.713339431793429, 1.729559236613568, 1.7467241926351562, 1.7630887227132916, 1.780118852155283, 1.7964915742049925]
20	images/0088.jpg	images/0272.jpg	left	1.485	[0.0, 0.0, 0.0, 0.0, 0.0, 0.0, 0.0, 0.0, 0.0, 0.0, 0.0, 0.0, 0.0, 0.0, 0.0, 0.0, 0.0, 0.0, 0.0, 0.0, 0.0, 0.0, 0.0, 0.0, 0.0, 0.0, 0.0, 0.0, 0.0, -2.0, -6.0, -11.0, -20.0, -32.0, -46.0, -61.0, -68.0, -68.0, -66.0, -51.0, -1.0, 96.0, 222.0, 341.0, 465.0, 589.0, 747.0, 790.0, 872.0, 908.0, 928.0, 942.0, 949.0, 951.0, 951.0, 951.0, 951.0, 951.0, 951.0, 951.0, 943.0, 933.0, 923.0, 916.0, 901.0, 871.0, 792.0, 684.0, 538.0, 373.0, 209.0, 65.0, -120.0, -230.0, -335.0, -427.0, -504.0, -544.0, -573.0, -591.0, -606.0, -615.0, -621.0, -626.0, -626.0, -626.0, -626.0, -626.0, -626.0]	[-490.0, -490.0, -490.0, -490.0, -490.0, -490.0, -490.0, -490.0, -490.0, -490.0, -490.0, -490.0, -490.0, -490.0, -490.0, -490.0, -490.0, -490.0, -490.0, -490.0, -490.0, -490.0, -490.0, -490.0, -490.0, -490.0, -490.0, -491.0, -491.0, -491.0, -491.0, -487.0, -473.0, -454.0, -431.0, -411.0, -397.0, -390.0, -379.0, -355.0, -296.0, -218.0, -143.0, -80.0, -28.0, 24.0, 99.0, 123.0, 183.0, 209.0, 222.0, 231.0, 238.0, 241.0, 242.0, 242.0, 242.0, 242.0, 242.0, 243.0, 249.0, 252.0, 255.0, 257.0, 261.0, 262.0, 262.0, 262.0, 262.0, 262.0, 262.0, 262.0, 291.0, 315.0, 344.0, 371.0, 395.0, 406.0, 415.0, 420.0, 423.0, 426.0, 426.0, 426.0, 426.0, 426.0, 426.0, 427.0, 427.0]	[0.004722820478491485, 0.008921899541746825, 0.02598991699051112, 0.04283606796525419, 0.059812608116772026, 0.07609078090172261, 0.09304069710196927, 0.10916253936011344, 0.12628482875879854, 0.1424872255884111, 0.15973785618552938, 0.176116039569024, 0.19305435044225305, 0.2092017926624976, 0.2265244445297867, 0.24252443085424602, 0.25975082686636597, 0.2760801995755173, 0.2931393423350528, 0.30917687533656135, 0.3262534260866232, 0.3425141908810474, 0.3597767681349069, 0.3758351224823855, 0.3931215930497274, 0.40938372316304594, 0.4264240926131606, 0.4428568892762996, 0.4597644801833667, 0.4761621195357293, 0.4931212516967207, 0.5092393392696977, 0.5262162208091468, 0.5427766760112718, 0.5596928002196364, 0.5760883915936574, 0.593012707773596, 0.6091540060006082, 0.6262165621155873, 0.6424472896032967, 0.6596852908842266, 0.6759371810476296, 0.692967310489621, 0.7093943044892512, 0.7263036020449363, 0.7428585959132761, 0.7596050776191987, 0.7760962422471493, 0.7929191825678572, 0.8091301126987673, 0.82612201286247, 0.8427951079793274, 0.8596388695877977, 0.8760959008941427, 0.8929509264999069, 0.9091512753511779, 0.9263326153741218, 0.9427927186479792, 0.9595914243254811, 0.9761228662100621, 0.9929437584942207, 1.009158102038782, 1.02625888743205, 1.0428251452976838, 1.0598054401343688, 1.0760563062503934, 1.0930007611168548, 1.109366315184161, 1.1262076874845661, 1.142686905397568, 1.159600981627591, 1.1760470902663656, 1.1928918759222142, 1.209127382026054, 1.2262346528004855, 1.2424431936233304, 1.2596559362718835, 1.2759170423960313, 1.2930294331163168, 1.3093704111524858, 1.326254450075794, 1.3427708733361214, 1.3596098563284613, 1.3760822475887835, 1.3929690171498805, 1.4091249927296303, 1.4262554740998894, 1.442491662921384, 1.4596214616321959]
21	images/0452.jpg	images/0527.jpg	left	1.037	[0.0, 0.0, 0.0, -1.0, -1.0, -1.0, -1.0, -1.0, -1.0, -1.0, -1.0, -1.0, -1.0, -1.0, -1.0, -1.0, -1.0, -1.0, -1.0, -1.0, -1.0, -1.0, -1.0, -1.0, -1.0, -1.0, -1.0, -1.0, -1.0, -1.0, -1.0, -1.0, -1.0, -1.0, -1.0, -1.0, -1.0, -1.0, -1.0, -1.0, -1.0, -1.0, -1.0, -8.0, -27.0, -72.0, -131.0, -219.0, -323.0, -492.0, -610.0, -694.0, -735.0, -754.0, -759.0, -759.0, -759.0, -759.0, -759.0, -759.0, -759.0, -759.0]	[-490.0, -490.0, -490.0, -491.0, -491.0, -491.0, -491.0, -491.0, -491.0, -491.0, -491.0, -491.0, -491.0, -491.0, -491.0, -491.0, -491.0, -491.0, -491.0, -491.0, -491.0, -491.0, -491.0, -491.0, -491.0, -491.0, -491.0, -491.0, -491.0, -491.0, -491.0, -491.0, -491.0, -491.0, -491.0, -491.0, -491.0, -491.0, -491.0, -491.0, -491.0, -491.0, -491.0, -470.0, -405.0, -300.0, -178.0, -30.0, 116.0, 318.0, 417.0, 476.0, 501.0, 512.0, 515.0, 515.0, 515.0, 515.0, 515.0, 515.0, 515.0, 515.0]	[0.00447774346685037, 0.009129430109169334, 0.025504200137220323, 0.041911055508535355, 0.0593439579824917, 0.07557844009716064, 0.09271813748637214, 0.10882700904039666, 0.12584314384730533, 0.14213770063361153, 0.15916339278919622, 0.17550539481453598, 0.19252596696605906, 0.20884783036308363, 0.22581788524985313, 0.24214384460356086, 0.25912140880245715, 0.275522802839987, 0.29245462839026004, 0.3088689930154942, 0.3257916026050225, 0.34217524726409465, 0.35918148345081136, 0.3755166588234715, 0.392483641684521, 0.408905174350366, 0.42578306928044185, 0.44217080995440483, 0.4593200646340847, 0.47548457351513207, 0.49260140158003196, 0.5088119903812185, 0.5258335865219124, 0.5421380419866182, 0.5591951367678121, 0.5756002854323015, 0.5926805908675306, 0.6088594357133843, 0.6258793252054602, 0.6421506712795235, 0.659186944772955, 0.675406749593094, 0.6924126443918794, 0.7089116596616805, 0.7258335865335539, 0.7421745646279305, 0.7590715741971508, 0.7755473788129166, 0.7924167403834872, 0.8088669450371526, 0.8257117306347936, 0.8419557700981386, 0.8590654301806353, 0.8755446481518447, 0.8924355137278326, 0.908851926389616, 0.925761223945301, 0.9419270981452428, 0.9590128649142571, 0.9756060880608857, 0.9924751083599404, 1.0088860596879385]
22	images/0318.jpg	images/0548.jpg	right	1.267	[0.0, 0.0, 0.0, 0.0, 0.0, 0.0, 0.0, 0.0, 0.0, 0.0, 0.0, 0.0, 0.0, 0.0, 0.0, 0.0, 0.0, 0.0, 0.0, 0.0, 0.0, 0.0, 0.0, 0.0, 0.0, 0.0, 0.0, 0.0, 0.0, 0.0, 0.0, 0.0, 0.0, 0.0, 0.0, 0.0, 6.0, 23.0, 58.0, 112.0, 207.0, 269.0, 328.0, 373.0, 408.0, 435.0, 457.0, 475.0, 490.0, 503.0, 513.0, 523.0, 539.0, 550.0, 561.0, 573.0, 585.0, 594.0, 600.0, 602.0, 602.0, 602.0, 602.0, 602.0, 602.0, 603.0, 603.0, 603.0, 603.0, 603.0, 603.0, 603.0, 603.0, 605.0, 605.0, 605.0]	[-490.0, -490.0, -490.0, -490.0, -490.0, -490.0, -490.0, -490.0, -490.0, -490.0, -490.0, -490.0, -490.0, -490.0, -490.0, -490.0, -490.0, -490.0, -490.0, -490.0, -490.0, -490.0, -490.0, -490.0, -490.0, -490.0, -490.0, -490.0, -490.0, -490.0, -490.0, -490.0, -490.0, -490.0, -490.0, -490.0, -488.0, -475.0, -444.0, -384.0, -268.0, -176.0, -91.0, -24.0, 26.0, 64.0, 99.0, 129.0, 153.0, 173.0, 188.0, 201.0, 228.0, 248.0, 268.0, 285.0, 302.0, 314.0, 322.0, 326.0, 326.0, 326.0, 326.0, 326.0, 326.0, 327.0, 327.0, 327.0, 327.0, 327.0, 327.0, 328.0, 329.0, 331.0, 331.0, 331.0]	[0.006114093994256109, 0.011460393434390426, 0.02867723209783435, 0.04549232171848416, 0.061589588003698736, 0.0789149705087766, 0.09523342060856521, 0.11217070749262348, 0.12854820815846324, 0.14550836436683312, 0.16188108641654253, 0.17887059721397236, 0.1951869993354194, 0.21221917675575241, 0.22858916816767305, 0.2455339643638581, 0.2616008519544266, 0.2785255095222965, 0.2950729940785095, 0.3123331820243038, 0.32856664014980197, 0.34559369762428105, 0.3616281586000696, 0.3785562295233831, 0.3952317139483057, 0.41216251550940797, 0.42857517348602414, 0.44561281229835004, 0.4618626544252038, 0.4788518239511177, 0.49533343117218465, 0.512485416547861, 0.5285775628290139, 0.5456363642588258, 0.5616138226469047, 0.578854895895347, 0.5951965566491708, 0.6122567233978771, 0.6285830241395161, 0.6455274790059775, 0.6618431984097697, 0.6788794719032012, 0.6952736979001202, 0.7121669528423809, 0.728605552110821, 0.7454148391261697, 0.7616527345962822, 0.7787763893138617, 0.7949658154975623, 0.8120911768637598, 0.8283055204083212, 0.8453424765029922, 0.8618418331025168, 0.8788661599392071, 0.8951996286632493, 0.9121307715540752, 0.9284997389186174, 0.9453749031526968, 0.961819646472577, 0.978656240098644, 0.9949644501903094, 1.0121000515646301, 1.028526704176329, 1.0454527270630933, 1.0618315931060351, 1.0787453280063346, 1.0952091859653592, 1.112103123567067, 1.1284959842450917, 1.1454008444561623, 1.161821011803113, 1.1787859466276132, 1.1952023592893966, 1.21211268089246, 1.2285267041879706, 1.2454076711437665]
23	images/0451.jpg	images/0021.jpg	left	1.652	[0.0, 0.0, 0.0, 0.0, 0.0, 0.0, 0.0, 0.0, 0.0, 0.0, 0.0, 0.0, 0.0, 0.0, 0.0, 0.0, 0.0, 0.0, 0.0, 0.0, 0.0, 0.0, 0.0, 0.0, 0.0, 0.0, 0.0, 0.0, 0.0, 0.0, 0.0, 0.0, 0.0, 0.0, 0.0, 0.0, 0.0, 19.0, 60.0, 131.0, 202.0, 285.0, 382.0, 489.0, 584.0, 648.0, 683.0, 698.0, 708.0, 711.0, 711.0, 711.0, 711.0, 712.0, 713.0, 716.0, 716.0, 717.0, 717.0, 717.0, 717.0, 717.0, 717.0, 717.0, 717.0, 717.0, 717.0, 717.0, 704.0, 641.0, 543.0, 422.0, 222.0, 82.0, -104.0, -334.0, -525.0, -682.0, -779.0, -824.0, -845.0, -848.0, -848.0, -848.0, -848.0, -848.0, -848.0, -848.0, -848.0, -848.0, -848.0, -848.0, -849.0, -845.0, -838.0, -829.0, -825.0, -823.0, -822.0]	[-490.0, -490.0, -490.0, -490.0, -490.0, -490.0, -490.0, -490.0, -490.0, -490.0, -490.0, -490.0, -490.0, -490.0, -490.0, -490.0, -490.0, -490.0, -490.0, -490.0, -490.0, -490.0, -490.0, -490.0, -490.0, -490.0, -490.0, -490.0, -490.0, -490.0, -490.0, -490.0, -490.0, -490.0, -490.0, -490.0, -490.0, -484.0, -454.0, -389.0, -308.0, -219.0, -113.0, 13.0, 138.0, 250.0, 324.0, 355.0, 371.0, 377.0, 378.0, 378.0, 380.0, 389.0, 400.0, 407.0, 410.0, 411.0, 411.0, 411.0, 411.0, 411.0, 411.0, 411.0, 411.0, 411.0, 411.0, 411.0, 409.0, 395.0, 378.0, 366.0, 366.0, 377.0, 404.0, 441.0, 468.0, 489.0, 503.0, 510.0, 514.0, 515.0, 515.0, 515.0, 515.0, 515.0, 515.0, 515.0, 515.0, 515.0, 515.0, 515.0, 514.0, 502.0, 481.0, 449.0, 436.0, 432.0, 431.0]	[0.004755247151479125, 0.008729387714993209, 0.026070130290463567, 0.04252647887915373, 0.05975048552500084, 0.07609043957199901, 0.09306459041545168, 0.10960183502174914, 0.12638176733162254, 0.14274766272865236, 0.15981260815169662, 0.1761276448960416, 0.1930328464950435, 0.20943526446353644, 0.22637562337331474, 0.24280466535128653, 0.25982421345543116, 0.276146418240387, 0.2931547023472376, 0.3094325338024646, 0.3263981513446197, 0.3426462868228555, 0.35989316273480654, 0.37612730357795954, 0.3930536677944474, 0.40918370202416554, 0.42626912746345624, 0.44252272421726957, 0.4596982615767047, 0.47609726624796167, 0.4930004198104143, 0.5092379739508033, 0.5262203168240376, 0.542769166699145, 0.5598146561533213, 0.5761215009260923, 0.5929847185034305, 0.6091707313898951, 0.6264585672761314, 0.6428633746108972, 0.6597163522383198, 0.6761607542284764, 0.6929700411856174, 0.7094103471608832, 0.7264121460029855, 0.7427879400202073, 0.7596518403152004, 0.7758866637595929, 0.7930168038001284, 0.809461205790285, 0.8263244233676232, 0.8427363987429999, 0.8597405868931673, 0.8760849782847799, 0.892984718491789, 0.909409323183354, 0.9265118152252398, 0.9427497106953524, 0.9597436588956043, 0.9759269410860725, 0.9930366011103615, 1.0094059098046273, 1.0264384286128916, 1.0427445907262154, 1.0597347842413, 1.0761122849071398, 1.0930581050924957, 1.1094007898354903, 1.1263981513329782, 1.1425554922316223, 1.1597344428882934, 1.1761583648622036, 1.193081657111179, 1.209383723209612, 1.2263414900517091, 1.2425008789286949, 1.25965559494216, 1.2761825995403342, 1.2929560465272516, 1.3093895258498378, 1.3263216927298345, 1.3427852093591355, 1.359702357556671, 1.376088391582016, 1.3930116838309914, 1.4093014619429596, 1.4263947380241007, 1.442770873371046, 1.459719765582122, 1.4760733729344793, 1.4929761851672083, 1.509433557803277, 1.5263831326738, 1.5427879400085658, 1.559638186939992, 1.5759955490357243, 1.593075513083022, 1.609177216712851, 1.6264111219788902]
24	images/0128.jpg	images/0057.jpg	right	2.035	[0.0, 0.0, 0.0, 0.0, 0.0, 0.0, 0.0, 0.0, 0.0, 0.0, 0.0, 0.0, 0.0, 0.0, 0.0, 0.0, 0.0, 0.0, 0.0, 0.0, 0.0, 0.0, 0.0, 0.0, 0.0, 0.0, 0.0, 0.0, 0.0, 0.0, 0.0, 0.0, 0.0, 0.0, 0.0, 0.0, 0.0, 0.0, 0.0, 0.0, 0.0, 0.0, 0.0, 0.0, 0.0, 0.0, 0.0, 0.0, 0.0, 0.0, 0.0, 0.0, 0.0, 0.0, 0.0, 0.0, 0.0, 0.0, 0.0, 0.0, 0.0, 0.0, 0.0, 0.0, 0.0, 0.0, 0.0, 0.0, 0.0, 0.0, 0.0, 0.0, 0.0, 0.0, 0.0, 0.0, 0.0, 0.0, 0.0, 0.0, 1.0, 12.0, 54.0, 181.0, 276.0, 371.0, 465.0, 561.0, 638.0, 690.0, 721.0, 739.0, 747.0, 750.0, 750.0, 750.0, 751.0, 751.0, 751.0, 751.0, 751.0, 751.0, 751.0, 751.0, 751.0, 751.0, 751.0, 751.0, 751.0, 751.0, 751.0, 751.0, 751.0, 750.0, 749.0, 748.0, 748.0, 746.0, 746.0, 746.0, 746.0, 746.0, 746.0]	[-490.0, -490.0, -490.0, -490.0, -490.0, -490.0, -490.0, -490.0, -490.0, -490.0, -490.0, -490.0, -490.0, -490.0, -490.0, -490.0, -490.0, -490.0, -490.0, -490.0, -490.0, -490.0, -490.0, -490.0, -490.0, -490.0, -490.0, -490.0, -490.0, -490.0, -490.0, -490.0, -490.0, -490.0, -490.0, -490.0, -490.0, -490.0, -490.0, -490.0, -490.0, -490.0, -490.0, -490.0, -490.0, -490.0, -490.0, -490.0, -490.0, -490.0, -490.0, -490.0, -490.0, -490.0, -490.0, -490.0, -490.0, -490.0, -490.0, -490.0, -490.0, -490.0, -490.0, -490.0, -490.0, -490.0, -490.0, -490.0, -490.0, -490.0, -490.0, -490.0, -490.0, -490.0, -490.0, -490.0, -490.0, -490.0, -490.0, -490.0, -490.0, -488.0, -456.0, -317.0, -204.0, -104.0, -15.0, 56.0, 114.0, 153.0, 182.0, 204.0, 216.0, 222.0, 223.0, 223.0, 223.0, 223.0, 223.0, 228.0, 230.0, 230.0, 230.0, 230.0, 230.0, 230.0, 232.0, 238.0, 239.0, 239.0, 239.0, 240.0, 244.0, 253.0, 262.0, 272.0, 280.0, 292.0, 305.0, 309.0, 312.0, 312.0, 312.0]	[0.007299202319700271, 0.011844393098726869, 0.015520891291089356, 0.03166048286948353, 0.047696991823613644, 0.06487389450194314, 0.08097013679798692, 0.0980285968980752, 0.11437332961941138, 0.13147786969784647, 0.14795640495140105, 0.16483259323285893, 0.1809189368505031, 0.19828425534069538, 0.21465219871606678, 0.23148879234213382, 0.2477372691500932, 0.2648650198825635, 0.2811930272728205, 0.29827333270804957, 0.31452180951600894, 0.3315277043147944, 0.3479246610077098, 0.3648971051443368, 0.38120224326848984, 0.3982129167416133, 0.4145668654819019, 0.43159870157251135, 0.44792329566553235, 0.46499677444808185, 0.48099983274005353, 0.49807945551583543, 0.5145808600937016, 0.5314874270115979, 0.5476116585778072, 0.5645977560780011, 0.5812176032341085, 0.5982159887207672, 0.6145556014380418, 0.6315017630113289, 0.6479468476609327, 0.6648496598936617, 0.6809592141071334, 0.698108468845021, 0.7144310149014927, 0.7315058590029366, 0.7478420583647676, 0.7649684437783435, 0.7811578699620441, 0.7983146340120584, 0.8144948441768065, 0.8315294109634124, 0.847830111742951, 0.8648612651741132, 0.8812179445521906, 0.8982047247700393, 0.9145518467994407, 0.9314604616956785, 0.9476857278496027, 0.964784465264529, 0.9812346699181944, 0.9984071352519095, 1.0145818840828724, 1.031540674972348, 1.0478994023287669, 1.0648394199088216, 1.0810479607316665, 1.0982033594045788, 1.1145504814921878, 1.1314468084019609, 1.147919199662283, 1.1648121132166125, 1.1809848141274415, 1.198055220884271, 1.2145470681134611, 1.2314833310083486, 1.2479765436146408, 1.2648349825758487, 1.2809517048299313, 1.298164106090553, 1.314311206981074, 1.3315669576404616, 1.3479506022995338, 1.364841126545798, 1.3813807604601607, 1.398279476677999, 1.4143214470241219, 1.4314864029875025, 1.4479451409424655, 1.4648319105617702, 1.48121248325333, 1.4980852581793442, 1.5145074735046364, 1.5315024456940591, 1.5479062289814465, 1.5648151852656156, 1.5812070218962617, 1.5981514768209308, 1.6145743748056702, 1.6314648990519345, 1.647894965019077, 1.6648145025828853, 1.6812954272027127, 1.6981968741165474, 1.7144839215325192, 1.731429741717875, 1.7479103250079788, 1.7648366892244667, 1.7809441954595968, 1.7978292584302835, 1.8145453614997678, 1.8315171229769476, 1.8479591356008314, 1.8647288279607892, 1.8811902966117486, 1.8981135888025165, 1.914566865481902, 1.9314143817173317, 1.947852639714256, 1.9647400919930078, 1.9809305421658792, 1.997892405022867, 2.0145289775100537]
25	images/0022.jpg	images/0385.jpg	left	1.287	[0.0, 0.0, 0.0, 0.0, 0.0, 0.0, 0.0, 0.0, 0.0, 0.0, 0.0, 0.0, 0.0, 0.0, 0.0, 0.0, 0.0, 0.0, 0.0, 0.0, 0.0, 0.0, 0.0, 0.0, 0.0, 0.0, 0.0, 0.0, 0.0, 0.0, 0.0, 0.0, 0.0, 0.0, 0.0, 0.0, 0.0, 0.0, 0.0, 0.0, 0.0, 0.0, 0.0, 0.0, 0.0, 0.0, 0.0, -1.0, -17.0, -51.0, -108.0, -184.0, -272.0, -353.0, -418.0, -462.0, -497.0, -521.0, -558.0, -582.0, -607.0, -633.0, -652.0, -666.0, -677.0, -681.0, -684.0, -684.0, -686.0, -688.0, -689.0, -690.0, -694.0, -695.0, -696.0, -696.0, -696.0, -696.0]	[-490.0, -490.0, -490.0, -490.0, -490.0, -490.0, -490.0, -490.0, -490.0, -490.0, -490.0, -490.0, -490.0, -490.0, -490.0, -490.0, -490.0, -490.0, -490.0, -490.0, -490.0, -490.0, -490.0, -490.0, -490.0, -490.0, -490.0, -490.0, -490.0, -490.0, -490.0, -490.0, -490.0, -490.0, -490.0, -490.0, -490.0, -490.0, -490.0, -490.0, -490.0, -490.0, -490.0, -490.0, -490.0, -491.0, -438.0, -394.0, -337.0, -273.0, -199.0, -113.0, -38.0, 28.0, 74.0, 105.0, 134.0, 152.0, 176.0, 189.0, 200.0, 211.0, 222.0, 230.0, 237.0, 241.0, 243.0, 244.0, 249.0, 257.0, 267.0, 279.0, 291.0, 297.0, 301.0, 301.0, 301.0, 301.0]	[0.0071811010129749775, 0.011343998776283115, 0.01522905146703124, 0.03128842980368063, 0.04741709865629673, 0.06430455093504861, 0.08094385406002402, 0.0980070928344503, 0.11435899353818968, 0.13129286712501198, 0.14768333843676373, 0.1646151639870368, 0.18103225930826738, 0.19796681555453688, 0.21435046021360904, 0.23137308040168136, 0.24737886938964948, 0.26457488670712337, 0.2809947127243504, 0.2979122022516094, 0.3143129135714844, 0.3312771657947451, 0.34737545606913045, 0.36461379867978394, 0.38102475000778213, 0.3979674982256256, 0.41429175093071535, 0.43127545912284404, 0.44763009052257985, 0.4646004866808653, 0.4809977847035043, 0.49805044214008376, 0.514320764283184, 0.5312911604414694, 0.5477635517017916, 0.5646738733048551, 0.5809506807127036, 0.5979401915683411, 0.6143149615963921, 0.6313659123843536, 0.6477642343961634, 0.6646537346532568, 0.681013144669123, 0.6979142502532341, 0.7143159856204875, 0.731295939127449, 0.7473382507450879, 0.7645987800206058, 0.7810244086431339, 0.7978797756368294, 0.81443579349434, 0.8311348299030215, 0.8474174400325865, 0.8645414360798895, 0.8807366649270989, 0.8979548689094372, 0.9143586521968246, 0.9312918431241997, 0.9473536107107066, 0.9647237079334445, 0.9810462539899163, 0.9979627195280045, 1.0142784389317967, 1.0312860404374078, 1.0476348691736348, 1.0644806787604466, 1.0809278114465997, 1.0978664636495523, 1.1141661403817125, 1.1311884191818535, 1.1473986667115241, 1.164567377360072, 1.1807981048477814, 1.197901279607322, 1.2143286149366759, 1.231268632458523, 1.2473600960802287, 1.264520273427479]
26	images/0571.jpg	images/0052.jpg	right	1.02	[0.0, 0.0, 0.0, 0.0, 0.0, 0.0, 0.0, 0.0, 0.0, 0.0, 0.0, 0.0, 0.0, 0.0, 0.0, 0.0, 0.0, 0.0, 0.0, 0.0, 0.0, 0.0, 0.0, 0.0, 0.0, 0.0, 0.0, 0.0, 0.0, 0.0, 0.0, 0.0, 0.0, 0.0, 0.0, 0.0, 0.0, 1.0, 14.0, 64.0, 137.0, 213.0, 297.0, 394.0, 492.0, 584.0, 653.0, 718.0, 737.0, 743.0, 746.0, 747.0, 750.0, 751.0, 751.0, 751.0, 751.0, 751.0, 751.0, 751.0, 751.0, 751.0]	[-490.0, -490.0, -490.0, -490.0, -490.0, -490.0, -490.0, -490.0, -490.0, -490.0, -490.0, -490.0, -490.0, -490.0, -490.0, -490.0, -490.0, -490.0, -490.0, -490.0, -490.0, -490.0, -490.0, -490.0, -490.0, -490.0, -490.0, -490.0, -490.0, -490.0, -490.0, -490.0, -490.0, -490.0, -490.0, -490.0, -490.0, -490.0, -486.0, -452.0, -386.0, -300.0, -208.0, -103.0, 0.0, 82.0, 151.0, 216.0, 239.0, 253.0, 266.0, 274.0, 287.0, 295.0, 299.0, 300.0, 304.0, 309.0, 316.0, 322.0, 322.0, 323.0]	[0.009840426791924983, 0.014161703118588775, 0.020068812707904726, 0.03609098569722846, 0.052967856638133526, 0.06956483446992934, 0.08639460144331679, 0.10278712079161778, 0.11971246101893485, 0.13610361504834145, 0.1529750246554613, 0.16950441856170073, 0.1863758281688206, 0.20277039549546316, 0.2196185944485478, 0.23609371640486643, 0.25297980330651626, 0.269266850722488, 0.2861962869646959, 0.3028229607734829, 0.3197523970156908, 0.3360735777532682, 0.35298662999412045, 0.3692217947682366, 0.38619423896307126, 0.4027697128476575, 0.4197356716613285, 0.43618485232582316, 0.45303646457614377, 0.46930098405573517, 0.4860699937562458, 0.5027751741581596, 0.5198134956299327, 0.5360855243634433, 0.5529777553165331, 0.5695371865294874, 0.586359785462264, 0.602781318128109, 0.6197168983635493, 0.6360602657659911, 0.6530122299445793, 0.6694248879211955, 0.6862515829270706, 0.7027249981765635, 0.7196981250308454, 0.7361090763588436, 0.7529245073674247, 0.7691815174766816, 0.7861519136931747, 0.8026154302642681, 0.8197247490170412, 0.8361019083531573, 0.8529931153170764, 0.8691886854940094, 0.886225982918404, 0.9027519635274075, 0.9196076717926189, 0.9360677750664763, 0.9529357713181525, 0.9691009628586471, 0.9862447562627494, 1.0024765077396296]
27	images/0077.jpg	images/0368.jpg	left	1.086	[0.0, 0.0, 0.0, 0.0, 0.0, 0.0, 0.0, 0.0, 0.0, 0.0, -1.0, -1.0, -1.0, -1.0, -1.0, -1.0, -1.0, -1.0, -1.0, -1.0, -1.0, -1.0, -1.0, -1.0, -1.0, -1.0, -1.0, -1.0, -1.0, -1.0, -1.0, -1.0, -1.0, -1.0, -1.0, -1.0, -1.0, -1.0, -1.0, -3.0, -6.0, -15.0, -40.0, -75.0, -128.0, -202.0, -318.0, -383.0, -429.0, -463.0, -483.0, -498.0, -512.0, -527.0, -543.0, -556.0, -564.0, -571.0, -584.0, -600.0, -605.0, -607.0, -607.0, -607.0, -607.0, -607.0]	[-490.0, -490.0, -490.0, -490.0, -490.0, -490.0, -490.0, -490.0, -490.0, -490.0, -490.0, -490.0, -490.0, -490.0, -490.0, -490.0, -490.0, -490.0, -490.0, -490.0, -490.0, -490.0, -490.0, -490.0, -490.0, -490.0, -490.0, -490.0, -490.0, -490.0, -490.0, -490.0, -490.0, -490.0, -490.0, -490.0, -490.0, -490.0, -485.0, -473.0, -443.0, -391.0, -319.0, -246.0, -160.0, -74.0, 55.0, 114.0, 153.0, 180.0, 196.0, 206.0, 216.0, 227.0, 234.0, 238.0, 241.0, 244.0, 252.0, 264.0, 267.0, 269.0, 269.0, 269.0, 269.0, 269.0]	[0.007906092389021069, 0.012805245583876967, 0.017499257577583194, 0.03204345848644152, 0.04911693726899102, 0.06560707784956321, 0.08252183673903346, 0.09871877223486081, 0.11583457631058991, 0.13224791694665328, 0.14911045192275196, 0.1653568806941621, 0.1824610794428736, 0.1989071880816482, 0.21580351499142125, 0.23221583163831383, 0.2491404892061837, 0.26566681114491075, 0.2825051114195958, 0.29886281478684396, 0.315940048196353, 0.3321673623868264, 0.34915721451397985, 0.3653514193720184, 0.3822398956399411, 0.39890138542978093, 0.4158448163070716, 0.43225747428368777, 0.44912785990163684, 0.4652742781327106, 0.4826136553310789, 0.49878089484991506, 0.5159369762404822, 0.53221583168488, 0.5492876037606038, 0.5653913553687744, 0.5826484712888487, 0.5989003614522517, 0.6158461816376075, 0.6322229996440001, 0.6490981639362872, 0.6653285500942729, 0.6823948608362116, 0.6986812255927362, 0.7157233017496765, 0.7322066156775691, 0.7490408199955709, 0.7656043471652083, 0.7823996394872665, 0.7988464307854883, 0.815707259112969, 0.8322414316353388, 0.8490633479668759, 0.8653316220734268, 0.8823634582222439, 0.8988143454771489, 0.9157181817572564, 0.9322383596445434, 0.949038089311216, 0.9655398352188058, 0.9825003327568993, 0.9987911348580383, 1.0158478883095086, 1.03214483440388, 1.0491087452392094, 1.065554853877984]
28	images/0570.jpg	images/0316.jpg	left	1.67	[0.0, 0.0, 0.0, 0.0, 0.0, 0.0, 0.0, -2.0, -2.0, -2.0, -2.0, -2.0, -2.0, -2.0, -2.0, -2.0, -2.0, -2.0, -2.0, -2.0, -2.0, 0.0, 2.0, 3.0, 4.0, 4.0, 4.0, 4.0, 4.0, 4.0, 4.0, 5.0, 5.0, 5.0, 5.0, 5.0, 5.0, 5.0, 5.0, 5.0, 5.0, 7.0, 12.0, 45.0, 86.0, 145.0, 202.0, 287.0, 409.0, 556.0, 677.0, 771.0, 837.0, 885.0, 914.0, 935.0, 938.0, 939.0, 939.0, 939.0, 939.0, 939.0, 939.0, 939.0, 939.0, 939.0, 939.0, 939.0, 938.0, 917.0, 892.0, 864.0, 810.0, 719.0, 598.0, 458.0, 312.0, 146.0, -2.0, -132.0, -277.0, -365.0, -425.0, -472.0, -500.0, -516.0, -525.0, -528.0, -528.0, -528.0, -529.0, -531.0, -539.0, -559.0, -586.0, -610.0, -631.0, -645.0, -652.0, -653.0, -653.0]	[-490.0, -490.0, -490.0, -490.0, -490.0, -490.0, -490.0, -491.0, -491.0, -491.0, -491.0, -491.0, -491.0, -491.0, -491.0, -491.0, -491.0, -491.0, -491.0, -491.0, -491.0, -491.0, -491.0, -491.0, -491.0, -490.0, -490.0, -490.0, -490.0, -490.0, -490.0, -490.0, -490.0, -490.0, -490.0, -490.0, -490.0, -490.0, -490.0, -490.0, -490.0, -489.0, -485.0, -461.0, -425.0, -373.0, -321.0, -251.0, -146.0, -23.0, 88.0, 183.0, 249.0, 289.0, 315.0, 336.0, 342.0, 346.0, 346.0, 346.0, 346.0, 346.0, 346.0, 346.0, 346.0, 346.0, 346.0, 346.0, 346.0, 346.0, 346.0, 346.0, 341.0, 330.0, 320.0, 320.0, 320.0, 325.0, 344.0, 361.0, 383.0, 387.0, 389.0, 389.0, 389.0, 389.0, 389.0, 389.0, 389.0, 389.0, 389.0, 389.0, 389.0, 386.0, 381.0, 380.0, 380.0, 380.0, 380.0, 380.0, 380.0]	[0.007870935078244656, 0.012970109411980957, 0.017410169646609575, 0.03217418905114755, 0.049146974575705826, 0.06528315279865637, 0.08238257287302986, 0.0987320842104964, 0.1157267150701955, 0.13209738908335567, 0.14903672400396317, 0.16529885411728173, 0.18215626903111115, 0.19866757228737697, 0.21573183505097404, 0.23217111703706905, 0.2490974812535569, 0.2652800807845779, 0.28229519160231575, 0.29881605214904994, 0.315670395095367, 0.3321591703570448, 0.3490991879370995, 0.36529509944375604, 0.3824033941491507, 0.39886998280417174, 0.41573251772206277, 0.4321107011055574, 0.44908587593818083, 0.46545928064733744, 0.48244845011504367, 0.4988191241864115, 0.5157116964110173, 0.5321018264512531, 0.5490691506420262, 0.5652203474892303, 0.5823399062501267, 0.598801716172602, 0.6157229603850283, 0.6321502957143821, 0.6490889479173347, 0.6654411899507977, 0.6824535701307468, 0.6987849908764474, 0.7156932644429617, 0.7321741890045814, 0.7491326385643333, 0.7654053500154987, 0.7824819007655606, 0.7985825803480111, 0.8157308110385202, 0.8318697199574672, 0.8489800626994111, 0.8652462888276204, 0.8822395543102175, 0.8988969480851665, 0.9156731257680804, 0.9320909037487581, 0.9490271666436456, 0.9652329768287018, 0.9823907648678869, 0.9988153695012443, 1.0158649549703114, 1.032027074485086, 1.0490705159609206, 1.0654882939415984, 1.0823709675460123, 1.0987174069159664, 1.1156765391351655, 1.13208714913344, 1.1489718707161956, 1.1655227685696445, 1.1823747222078964, 1.1985040737781674, 1.215646160475444, 1.2321158210979775, 1.248989961342886, 1.2653476647101343, 1.2822948502725922, 1.2986829322762787, 1.3156512804562226, 1.3321656556800008, 1.3490056626615115, 1.3653012434369884, 1.382471660792362, 1.3985341110965237, 1.415752656350378, 1.4321059224312194, 1.4489875720464624, 1.4651729022152722, 1.482322156894952, 1.4987348148715682, 1.5156560591422021, 1.5320806637755595, 1.5490053213434294, 1.565453136630822, 1.5823853035108186, 1.598503049754072, 1.6156499151256867, 1.6320642798091285, 1.6490278493147343]
29	images/0081.jpg	images/0393.jpg	left	2.333	[0.0, 0.0, 0.0, 0.0, 0.0, 0.0, -2.0, -3.0, -4.0, -4.0, -4.0, -4.0, -4.0, -4.0, -4.0, -4.0, -4.0, -4.0, -4.0, -4.0, -4.0, -4.0, -4.0, -4.0, -4.0, -4.0, -4.0, -4.0, -4.0, -4.0, -4.0, -4.0, -4.0, -4.0, -4.0, -4.0, -4.0, -4.0, -4.0, -4.0, -4.0, -4.0, -4.0, -4.0, -4.0, -4.0, -4.0, -4.0, -4.0, -4.0, -4.0, -4.0, -4.0, -4.0, -4.0, -4.0, -4.0, -4.0, -4.0, -4.0, -4.0, -4.0, -4.0, -4.0, -4.0, -4.0, -4.0, -4.0, -4.0, -4.0, -4.0, -4.0, -4.0, -4.0, -4.0, -4.0, -4.0, -4.0, -4.0, -4.0, -4.0, -4.0, -4.0, -4.0, -4.0, 1.0, 39.0, 85.0, 124.0, 167.0, 217.0, 291.0, 369.0, 437.0, 475.0, 497.0, 506.0, 507.0, 507.0, 479.0, 441.0, 370.0, 270.0, 145.0, 2.0, -167.0, -321.0, -491.0, -658.0, -796.0, -960.0, -960.0, -960.0, -960.0, -960.0, -960.0, -960.0, -960.0, -960.0, -960.0, -960.0, -960.0, -960.0, -960.0, -960.0, -960.0, -960.0, -960.0, -957.0, -946.0, -937.0, -917.0, -895.0, -874.0, -853.0, -838.0, -834.0, -831.0, -830.0, -830.0]	[-490.0, -490.0, -490.0, -490.0, -490.0, -490.0, -492.0, -493.0, -493.0, -493.0, -493.0, -493.0, -493.0, -493.0, -493.0, -493.0, -493.0, -493.0, -493.0, -493.0, -493.0, -493.0, -493.0, -493.0, -493.0, -493.0, -493.0, -493.0, -493.0, -493.0, -493.0, -493.0, -493.0, -493.0, -493.0, -493.0, -493.0, -493.0, -493.0, -493.0, -493.0, -493.0, -493.0, -493.0, -493.0, -493.0, -493.0, -493.0, -493.0, -493.0, -493.0, -493.0, -493.0, -493.0, -493.0, -493.0, -493.0, -493.0, -493.0, -493.0, -493.0, -493.0, -493.0, -493.0, -493.0, -493.0, -493.0, -493.0, -493.0, -493.0, -493.0, -493.0, -493.0, -493.0, -493.0, -493.0, -493.0, -493.0, -493.0, -493.0, -493.0, -493.0, -493.0, -493.0, -493.0, -492.0, -444.0, -361.0, -270.0, -180.0, -100.0, -11.0, 82.0, 161.0, 208.0, 234.0, 249.0, 252.0, 253.0, 254.0, 254.0, 254.0, 258.0, 260.0, 260.0, 275.0, 290.0, 314.0, 338.0, 357.0, 381.0, 393.0, 400.0, 401.0, 401.0, 401.0, 401.0, 401.0, 401.0, 401.0, 401.0, 401.0, 401.0, 401.0, 401.0, 401.0, 401.0, 401.0, 400.0, 395.0, 390.0, 382.0, 373.0, 368.0, 364.0, 363.0, 362.0, 362.0, 362.0, 362.0]	[0.005683331692125648, 0.01112110837129876, 0.027812635467853397, 0.04459632246289402, 0.06101751379901543, 0.07795172865735367, 0.09402100561419502, 0.11133512418018654, 0.12762933963676915, 0.14456628519110382, 0.16083182860165834, 0.17798620334360749, 0.19440602930262685, 0.2112474016030319, 0.22766825160942972, 0.24456560250837356, 0.26105471909977496, 0.2779128167312592, 0.2943780400091782, 0.31122350826626644, 0.32760169164976105, 0.3446314797620289, 0.3609990818076767, 0.37795445934170857, 0.39406981627689674, 0.41131259623216465, 0.42770511558046564, 0.4446625410928391, 0.4609693858656101, 0.47796879534143955, 0.4940626482712105, 0.5110565964132547, 0.5274436544277705, 0.544693261035718, 0.5610390178044327, 0.5779786939965561, 0.5940223709912971, 0.6112351135816425, 0.6277129662339576, 0.644714082358405, 0.6609226232394576, 0.677991664619185, 0.6943770159850828, 0.7112115616328083, 0.7276672275620513, 0.7447666476364248, 0.7610137591254897, 0.7780053179594688, 0.7943906693253666, 0.8112047349568456, 0.8276614249334671, 0.8446621997281909, 0.8610922657535411, 0.8779926886199974, 0.8942985094035976, 0.911238185595721, 0.9274183958186768, 0.9446847277577035, 0.9610076151438989, 0.9780025872751139, 0.9940667442861013, 1.0110542071051896, 1.0277167208842002, 1.0445727704791352, 1.0609898658003658, 1.0778892647358589, 1.0940667442628182, 1.111349118873477, 1.1276795155717991, 1.1446581037598662, 1.1610704204067588, 1.177912475366611, 1.1940609415760264, 1.2110255351290107, 1.22767303022556, 1.244591202470474, 1.261014441784937, 1.2779476326541044, 1.2940568455960602, 1.3111422710353509, 1.327672688930761, 1.3445816451567225, 1.3609943031333387, 1.3779469500295818, 1.3942817840725183, 1.4111876683309674, 1.4276685928925872, 1.4446260184631683, 1.4610410657478496, 1.4778585447347723, 1.4941319388453849, 1.5113293215399608, 1.5273921131738462, 1.5448888448881917, 1.5609844044665806, 1.5778370407642797, 1.5943800879758783, 1.6111931296181865, 1.62768361158669, 1.6444720772560686, 1.660825684608426, 1.6779018940287642, 1.6940831282408908, 1.7113197642029263, 1.7273630998679437, 1.7445109892287292, 1.7609792844741605, 1.7778537661070004, 1.794047970965039, 1.8111955189961009, 1.8276880488847382, 1.8445120131946169, 1.8609861111617647, 1.8778660540701821, 1.894379063975066, 1.911228286975529, 1.9275716543197632, 1.9445748184807599, 1.960981673852075, 1.9779094033874571, 1.9940319283050485, 2.011210537631996, 2.0276904382626526, 2.044581645168364, 2.060971775150392, 2.077856155403424, 2.0940544562763534, 2.111305769532919, 2.127350129187107, 2.144475831883028, 2.1610308258095756, 2.1778612754424103, 2.1940657202503644, 2.2111432950478047, 2.227641627599951, 2.2445471705286764, 2.2609431031742133, 2.277898822037969, 2.294090978917666, 2.311064788431395]
30	images/0236.jpg	images/0287.jpg	left	1.552	[0.0, 0.0, 0.0, 0.0, 0.0, 0.0, 0.0, 0.0, 0.0, 0.0, 0.0, 0.0, 0.0, 0.0, 0.0, 0.0, 0.0, 0.0, 0.0, 0.0, 0.0, 0.0, 0.0, 0.0, 0.0, 0.0, 0.0, 0.0, 0.0, 0.0, 0.0, 0.0, 0.0, 0.0, 0.0, 0.0, 0.0, 0.0, 0.0, 0.0, 0.0, 0.0, 0.0, 0.0, 0.0, 0.0, 0.0, 0.0, 0.0, 0.0, 0.0, 0.0, 0.0, 0.0, 0.0, 0.0, 0.0, 0.0, 0.0, 0.0, 0.0, 0.0, 0.0, 0.0, 0.0, 0.0, 0.0, -3.0, -31.0, -106.0, -194.0, -304.0, -409.0, -498.0, -557.0, -599.0, -620.0, -630.0, -640.0, -650.0, -671.0, -714.0, -737.0, -749.0, -752.0, -752.0, -752.0, -752.0, -752.0, -752.0, -752.0, -752.0, -752.0, -752.0]	[-490.0, -490.0, -490.0, -490.0, -490.0, -490.0, -490.0, -490.0, -490.0, -490.0, -490.0, -490.0, -490.0, -490.0, -490.0, -490.0, -490.0, -490.0, -490.0, -490.0, -490.0, -490.0, -490.0, -490.0, -490.0, -490.0, -490.0, -490.0, -490.0, -490.0, -490.0, -490.0, -490.0, -490.0, -490.0, -490.0, -490.0, -490.0, -490.0, -490.0, -490.0, -490.0, -490.0, -490.0, -490.0, -490.0, -490.0, -490.0, -490.0, -490.0, -490.0, -490.0, -490.0, -490.0, -490.0, -490.0, -490.0, -490.0, -490.0, -490.0, -490.0, -490.0, -490.0, -490.0, -490.0, -490.0, -469.0, -427.0, -362.0, -209.0, -85.0, 34.0, 122.0, 182.0, 218.0, 241.0, 252.0, 256.0, 260.0, 263.0, 272.0, 299.0, 315.0, 324.0, 327.0, 328.0, 329.0, 331.0, 332.0, 333.0, 334.0, 334.0, 334.0, 334.0]	[0.008672043797560036, 0.013649362255819142, 0.01818328903755173, 0.03358321188716218, 0.05065976263722405, 0.06711645261384547, 0.08397967024939135, 0.10027115500997752, 0.117286607157439, 0.13374671043129638, 0.1506280186586082, 0.1671222552540712, 0.18397591554094106, 0.20027525100158527, 0.2172944577760063, 0.23381053970661014, 0.25063689332455397, 0.267121231299825, 0.2840462301392108, 0.30028480832697824, 0.3173006018041633, 0.3338593502994627, 0.35074577858904377, 0.36713727394817397, 0.3839588488917798, 0.40025613631587476, 0.4173330284538679, 0.43381975567899644, 0.4506167547078803, 0.4671567298937589, 0.48400800087256357, 0.5005582160665654, 0.5173016258049756, 0.5336412385222502, 0.5506594213075005, 0.5671393219381571, 0.5840025395154953, 0.6003107496071607, 0.6173395137302577, 0.6338112223893404, 0.6506990159396082, 0.6671365912770852, 0.6839489502599463, 0.7002370216650888, 0.7173644310678355, 0.7338439903105609, 0.7506396240205504, 0.7671847192104906, 0.7840049288934097, 0.8003435176215135, 0.8173166444175877, 0.8336794677888975, 0.8506484986864962, 0.8671219139359891, 0.8839407582418062, 0.9002609149902128, 0.9172992364619859, 0.9337170144426636, 0.9506324559915811, 0.9671669699018821, 0.9839830835699104, 1.0005199867882766, 1.0172961644711904, 1.033800641016569, 1.0506549840210937, 1.0671369325718842, 1.0839772808831185, 1.10020630172221, 1.1173442924045958, 1.1337654837407172, 1.1505792080424726, 1.1669905007001944, 1.1839008223032579, 1.2001370111247525, 1.2172620311612263, 1.2334637453313917, 1.2505498534301296, 1.2670085913850926, 1.2838574729976244, 1.3001093631028198, 1.3172405271907337, 1.3335057292715646, 1.3506703439634293, 1.367013028706424, 1.3838953609811142, 1.4005066747777164, 1.417302991147153, 1.4334401933592744, 1.4505658960551955, 1.46699425537372, 1.4839390515699051, 1.5000892244861461, 1.5172637377982028, 1.5337299851235002]
31	images/0561.jpg	images/0109.jpg	left	1.733	[0.0, 0.0, 0.0, 0.0, 0.0, 0.0, -1.0, 2.0, 6.0, 9.0, 9.0, 9.0, 9.0, 9.0, 9.0, 9.0, 9.0, 9.0, 9.0, 9.0, 9.0, 9.0, 9.0, 9.0, 9.0, 9.0, 9.0, 9.0, 9.0, 9.0, 9.0, 9.0, 9.0, 9.0, 9.0, 9.0, 9.0, 9.0, 9.0, 9.0, 9.0, 9.0, 9.0, 9.0, 9.0, 9.0, 9.0, 9.0, 9.0, 9.0, 9.0, 9.0, 9.0, 9.0, 9.0, 9.0, 9.0, 9.0, 9.0, 9.0, 9.0, 9.0, 9.0, 9.0, 9.0, 9.0, 9.0, 9.0, 9.0, 9.0, 9.0, 9.0, 9.0, 9.0, 9.0, 9.0, 9.0, 10.0, 6.0, -1.0, -12.0, -34.0, -66.0, -117.0, -190.0, -280.0, -377.0, -460.0, -521.0, -571.0, -616.0, -635.0, -651.0, -667.0, -683.0, -706.0, -727.0, -735.0, -736.0, -736.0, -736.0, -736.0, -736.0, -736.0]	[-490.0, -490.0, -490.0, -490.0, -490.0, -490.0, -490.0, -490.0, -490.0, -490.0, -490.0, -490.0, -490.0, -490.0, -490.0, -490.0, -490.0, -490.0, -490.0, -490.0, -490.0, -490.0, -490.0, -490.0, -490.0, -490.0, -490.0, -490.0, -490.0, -490.0, -490.0, -490.0, -490.0, -490.0, -490.0, -490.0, -490.0, -490.0, -490.0, -490.0, -490.0, -490.0, -490.0, -490.0, -490.0, -490.0, -490.0, -490.0, -490.0, -490.0, -490.0, -490.0, -490.0, -490.0, -490.0, -490.0, -490.0, -490.0, -490.0, -490.0, -490.0, -490.0, -490.0, -490.0, -490.0, -490.0, -490.0, -490.0, -490.0, -490.0, -490.0, -490.0, -490.0, -490.0, -490.0, -490.0, -490.0, -489.0, -482.0, -469.0, -451.0, -411.0, -340.0, -237.0, -129.0, -25.0, 60.0, 112.0, 145.0, 173.0, 197.0, 207.0, 215.0, 225.0, 239.0, 266.0, 287.0, 295.0, 295.0, 295.0, 295.0, 296.0, 297.0, 297.0]	[0.004959364247042686, 0.009543808351736516, 0.02669067372335121, 0.04360509128309786, 0.060029013257008046, 0.07707962271524593, 0.0933772514690645, 0.110294058395084, 0.12672651367029175, 0.14357129932614043, 0.16015633050119504, 0.1769079322111793, 0.19347043539164588, 0.21026299707591534, 0.2266821403754875, 0.2435979233123362, 0.2599918079795316, 0.27696971350815147, 0.29352163535077125, 0.3102500264067203, 0.32667326572118327, 0.3436364939552732, 0.36012356251012534, 0.3769147588755004, 0.39310486771864817, 0.4102199891349301, 0.42671115370467305, 0.44371875521028414, 0.4600180906127207, 0.4770379801047966, 0.49309394508600235, 0.5103350183344446, 0.5267940976191312, 0.5436207926250063, 0.5600471039069816, 0.5769966787775047, 0.5930915557546541, 0.6102984957396984, 0.6266794097609818, 0.64357812597882, 0.660187050467357, 0.6770246680825949, 0.6930881423759274, 0.7103244370082393, 0.7267483590403572, 0.7436808672500774, 0.760041642584838, 0.7769587908405811, 0.7930888250702992, 0.8102418344351463, 0.8267063750536181, 0.8436259126174264, 0.860059050610289, 0.8769219268579036, 0.8931215930497274, 0.9101995091186836, 0.9265961244818754, 0.943711587227881, 0.9599921493208967, 0.9769369455170818, 0.9930758544360287, 1.010055125283543, 1.0265841778018512, 1.0435521846520714, 1.0600443732691929, 1.0770362734328955, 1.0932594916084781, 1.1103592530125752, 1.1267200283473358, 1.1437307018786669, 1.1600071679567918, 1.176986438804306, 1.1931035023881122, 1.2101708371774293, 1.2266964763985015, 1.243565155309625, 1.2601020585279912, 1.276913734851405, 1.2930888250702992, 1.3102182824513875, 1.326749383006245, 1.3435921206255443, 1.3600368639454246, 1.3768628762336448, 1.3933615501737222, 1.4102851837524213, 1.4266889670398086, 1.4435665206401609, 1.4600180906127207, 1.477000433485955, 1.4935113953542896, 1.5102903037331998, 1.5265428764978424, 1.5436211339547299, 1.5600750932353549, 1.5769062255276367, 1.5934287927811965, 1.6102858663653024, 1.6266852124244906, 1.6436081632855348, 1.659980202675797, 1.676936262869276, 1.6931639183312654, 1.710232618439477]
32	images/0486.jpg	images/0521.jpg	left	1.266	[0.0, 0.0, 0.0, 0.0, 0.0, 0.0, 0.0, 0.0, 0.0, 0.0, 0.0, 0.0, 0.0, 0.0, 0.0, 0.0, 0.0, 0.0, 0.0, 0.0, 0.0, 0.0, 0.0, 0.0, 0.0, 0.0, 0.0, 0.0, 0.0, 0.0, 0.0, 0.0, 0.0, 0.0, 0.0, 0.0, 0.0, 0.0, 0.0, 0.0, 0.0, 0.0, 0.0, 0.0, 0.0, 0.0, 0.0, 0.0, 0.0, 0.0, -6.0, -20.0, -50.0, -97.0, -159.0, -232.0, -313.0, -417.0, -462.0, -494.0, -513.0, -526.0, -536.0, -543.0, -552.0, -561.0, -582.0, -601.0, -637.0, -653.0, -657.0, -657.0, -658.0, -658.0, -658.0, -658.0]	[-490.0, -490.0, -490.0, -490.0, -490.0, -490.0, -490.0, -490.0, -490.0, -490.0, -490.0, -490.0, -490.0, -490.0, -490.0, -490.0, -490.0, -490.0, -490.0, -490.0, -490.0, -490.0, -490.0, -490.0, -490.0, -490.0, -490.0, -490.0, -490.0, -490.0, -490.0, -490.0, -490.0, -490.0, -490.0, -490.0, -490.0, -490.0, -490.0, -490.0, -490.0, -490.0, -490.0, -490.0, -490.0, -490.0, -490.0, -490.0, -490.0, -488.0, -465.0, -423.0, -363.0, -283.0, -206.0, -127.0, -54.0, 37.0, 76.0, 102.0, 120.0, 135.0, 147.0, 156.0, 162.0, 171.0, 188.0, 204.0, 231.0, 242.0, 245.0, 245.0, 246.0, 247.0, 247.0, 249.0]	[0.004007045121397823, 0.008476118673570454, 0.02461161423707381, 0.04109936545137316, 0.05821858288254589, 0.07465957151725888, 0.09164532768772915, 0.10775283392285928, 0.12486556597286835, 0.14114578679436818, 0.15823701483896002, 0.17463499552104622, 0.19153337040916085, 0.2079572924412787, 0.22486010467400774, 0.2411225761170499, 0.25805576698621735, 0.27459540090058, 0.29155623976839706, 0.3079528550733812, 0.3248816086561419, 0.34105055482359603, 0.3580352870048955, 0.3744076677248813, 0.3916023197234608, 0.4079429564299062, 0.4248293847194873, 0.44103758421260864, 0.4582039055530913, 0.4746216835337691, 0.4916115357191302, 0.5079897190444171, 0.5249645526055247, 0.5410143735352904, 0.5582530574756674, 0.574523038289044, 0.591609146387782, 0.6080057616927661, 0.6249283712822944, 0.6413468319224194, 0.6582667108159512, 0.6746954114641994, 0.6916511303279549, 0.7078173458576202, 0.7249474858981557, 0.7410863948171027, 0.7580192443565466, 0.7743769477237947, 0.7915599943953566, 0.8080228283652104, 0.8247853527427651, 0.8410362188587897, 0.858120278979186, 0.8745691182557493, 0.8916217756923288, 0.9080282896757126, 0.9248478166991845, 0.9410539681557566, 0.9581602149410173, 0.9745698008919135, 0.9915500957285985, 1.00799210841069, 1.0248403073637746, 1.0413727732375264, 1.0581670415704139, 1.0746496728388593, 1.0916893596295267, 1.107954903098289, 1.1248290433431976, 1.1410140322404914, 1.1581735269282945, 1.1745861849049106, 1.1915384904132225, 1.2080033723614179, 1.2248314326861873, 1.241032122867182]
33	images/0482.jpg	images/0174.jpg	left	1.683	[0.0, 0.0, 0.0, 0.0, 0.0, 0.0, -1.0, -2.0, -4.0, -4.0, -4.0, -4.0, -4.0, -4.0, -4.0, -4.0, -4.0, -4.0, -4.0, -4.0, -4.0, -4.0, -4.0, -4.0, -4.0, -4.0, -4.0, -4.0, -4.0, -4.0, -4.0, -4.0, -4.0, -4.0, -4.0, -4.0, -4.0, -4.0, -4.0, -4.0, -4.0, -4.0, -4.0, -4.0, -4.0, 0.0, 16.0, 36.0, 64.0, 100.0, 147.0, 222.0, 291.0, 351.0, 388.0, 409.0, 416.0, 418.0, 412.0, 385.0, 331.0, 241.0, 134.0, 12.0, -125.0, -272.0, -412.0, -625.0, -766.0, -912.0, -960.0, -960.0, -960.0, -960.0, -960.0, -960.0, -960.0, -960.0, -960.0, -960.0, -960.0, -960.0, -960.0, -960.0, -960.0, -960.0, -960.0, -946.0, -913.0, -878.0, -843.0, -823.0, -810.0, -810.0, -810.0, -810.0, -810.0, -810.0, -810.0, -810.0, -810.0]	[-490.0, -490.0, -490.0, -490.0, -490.0, -490.0, -490.0, -491.0, -492.0, -492.0, -492.0, -492.0, -492.0, -492.0, -492.0, -492.0, -492.0, -492.0, -492.0, -492.0, -492.0, -492.0, -492.0, -492.0, -492.0, -492.0, -492.0, -492.0, -492.0, -492.0, -492.0, -492.0, -492.0, -492.0, -492.0, -492.0, -492.0, -492.0, -492.0, -492.0, -492.0, -492.0, -492.0, -492.0, -492.0, -489.0, -477.0, -459.0, -424.0, -377.0, -299.0, -191.0, -73.0, 31.0, 112.0, 161.0, 178.0, 186.0, 186.0, 186.0, 186.0, 186.0, 194.0, 213.0, 232.0, 259.0, 295.0, 355.0, 395.0, 438.0, 471.0, 496.0, 511.0, 515.0, 516.0, 516.0, 516.0, 516.0, 516.0, 516.0, 516.0, 516.0, 516.0, 516.0, 516.0, 516.0, 516.0, 503.0, 465.0, 423.0, 384.0, 365.0, 356.0, 356.0, 356.0, 356.0, 356.0, 356.0, 356.0, 356.0, 356.0]	[0.0036718560731969774, 0.007750103250145912, 0.023939188104122877, 0.04033580346731469, 0.057587799383327365, 0.07389327883720398, 0.09089746698737144, 0.10699541593203321, 0.1242518491926603, 0.14038700342644006, 0.1573454529279843, 0.17395062278956175, 0.19081998436013237, 0.20723469037329778, 0.22416753991274163, 0.24034126481274143, 0.25731746363453567, 0.2739980680635199, 0.29082783503690735, 0.30726267967838794, 0.324247753189411, 0.34032453945837915, 0.3572812823113054, 0.3737881482229568, 0.3908568483311683, 0.40729886101325974, 0.424326601147186, 0.4403470674296841, 0.457342722278554, 0.4739987507346086, 0.4908988323295489, 0.5072896449710242, 0.5242224945686758, 0.5403375101159327, 0.5574901781510562, 0.5739096628385596, 0.5909121442819014, 0.6070742638548836, 0.6242480945074931, 0.6403607207466848, 0.6574577515129931, 0.6739233161206357, 0.6908070137142204, 0.7072114797192626, 0.7242061105789617, 0.7404149927315302, 0.7575789247639477, 0.7738277429016307, 0.7908752803341486, 0.807404674240388, 0.8241747079300694, 0.8405566459405236, 0.8574997354880907, 0.8738922548363917, 0.8908309070393443, 0.9072650690213777, 0.9241535452893004, 0.9402849448379129, 0.9574324928689748, 0.9739700787467882, 0.9908715256606229, 1.0072544877184555, 1.0240982493269257, 1.040330683463253, 1.0575867753941566, 1.0739833907573484, 1.090833296359051, 1.1073411862598732, 1.124236830510199, 1.1403494568075985, 1.157470039499458, 1.1739912414341234, 1.190792677749414, 1.2073917035595514, 1.2243095344747417, 1.2403446781099774, 1.25737207691418, 1.273674143012613, 1.2909278456354514, 1.3072756503243, 1.3242156679043546, 1.3403323901584372, 1.3575086101191118, 1.3739519881200977, 1.390849680348765, 1.4072763330186717, 1.4242207878851332, 1.4403306834865361, 1.4574615061865188, 1.473945161444135, 1.490773563098628, 1.5072285463684238, 1.524150473298505, 1.5406450512236916, 1.557420204859227, 1.5739680307451636, 1.5908438776968978, 1.6071985090966336, 1.6241692465846427, 1.640341947437264, 1.6574485355522484]
34	images/0014.jpg	images/0365.jpg	right	1.152	[0.0, 0.0, 0.0, 0.0, 0.0, 0.0, 0.0, 0.0, 0.0, 0.0, 0.0, 0.0, 0.0, 0.0, 0.0, 0.0, 0.0, 0.0, 0.0, 0.0, 0.0, 0.0, 0.0, 0.0, 0.0, 0.0, 0.0, 0.0, 0.0, 0.0, 0.0, 0.0, 0.0, 0.0, 0.0, 0.0, 0.0, 0.0, 0.0, 0.0, 0.0, 0.0, 0.0, 0.0, 0.0, 0.0, 0.0, -2.0, 39.0, 112.0, 214.0, 321.0, 407.0, 477.0, 526.0, 566.0, 597.0, 614.0, 624.0, 635.0, 639.0, 642.0, 643.0, 643.0, 643.0, 643.0, 643.0, 643.0, 644.0, 644.0]	[-490.0, -490.0, -490.0, -490.0, -490.0, -490.0, -490.0, -490.0, -490.0, -490.0, -490.0, -490.0, -490.0, -490.0, -490.0, -490.0, -490.0, -490.0, -490.0, -490.0, -490.0, -490.0, -490.0, -490.0, -490.0, -490.0, -490.0, -490.0, -490.0, -490.0, -490.0, -490.0, -490.0, -490.0, -490.0, -490.0, -490.0, -490.0, -490.0, -490.0, -490.0, -490.0, -490.0, -490.0, -490.0, -490.0, -490.0, -490.0, -451.0, -367.0, -239.0, -110.0, -1.0, 97.0, 163.0, 211.0, 249.0, 274.0, 288.0, 307.0, 318.0, 324.0, 326.0, 326.0, 326.0, 326.0, 326.0, 326.0, 328.0, 328.0]	[0.007597527408506721, 0.012398717983160168, 0.01710331131471321, 0.031501080316957086, 0.04863872972782701, 0.06477832124801353, 0.08193337864940986, 0.09802927955752239, 0.11518501961836591, 0.13161747489357367, 0.14854998310329393, 0.16471142001682892, 0.18174871744122356, 0.1983559352811426, 0.21517170761944726, 0.23153999232454225, 0.24853837781120092, 0.2647097133449279, 0.28185965068405494, 0.29837334324838594, 0.3152802514960058, 0.3316673095105216, 0.34853291645413265, 0.3647387266391888, 0.3817780721001327, 0.3981152955093421, 0.4152556755580008, 0.4316260082414374, 0.44850287918234244, 0.4647240493213758, 0.48195761325769126, 0.49828801001422107, 0.5153116541332565, 0.5315034696832299, 0.5484687458374538, 0.5647097133332863, 0.5819316720007919, 0.5982832313748077, 0.6153075581532903, 0.6315635442733765, 0.6485428151208907, 0.6647260973113589, 0.6816316402400844, 0.6982241807272658, 0.715216422220692, 0.7316004082676955, 0.7484697698382661, 0.7646817240165547, 0.7818265414098278, 0.798365151276812, 0.8151607849285938, 0.8316382962511852, 0.8483745379489847, 0.8646479320595972, 0.8817446214379743, 0.8980313275824301, 0.9150891050230712, 0.9315922162495553, 0.9483980899094604, 0.9646516867214814, 0.9817490588175133, 0.9982095034210943, 1.0152331475401297, 1.0312945738551207, 1.0484185699024238, 1.0645950254402123, 1.0815749789471738, 1.0982204260653816, 1.1150949076982215, 1.1314952776883729]
