trialIndex	stimulus	isAnimate	left_option	right_option	response	response_time	xTrajectory	yTrajectory	tTrajectory
0	老鹰	True	animate	inanimate	left	1.369	[0.0, 0.0, 0.0, 0.0, 0.0, 0.0, 0.0, 0.0, 0.0, 0.0, 0.0, 0.0, 0.0, 0.0, 0.0, 0.0, 0.0, 0.0, 0.0, 0.0, 0.0, 0.0, 0.0, 0.0, 0.0, 0.0, 0.0, 0.0, 0.0, 0.0, 0.0, 0.0, 0.0, 0.0, 0.0, 0.0, 0.0, 0.0, 0.0, 0.0, 0.0, 13.0, 23.0, 74.0, 114.0, 154.0, 176.0, 184.0, 184.0, 159.0, 105.0, -11.0, -174.0, -433.0, -508.0, -674.0, -726.0, -746.0, -751.0, -751.0, -751.0, -751.0, -751.0, -751.0, -751.0, -751.0, -751.0, -751.0, -751.0, -747.0, -744.0, -742.0, -742.0, -742.0, -742.0, -742.0, -742.0, -742.0, -742.0, -742.0, -742.0, -742.0]	[-490.0, -490.0, -490.0, -490.0, -490.0, -490.0, -490.0, -490.0, -490.0, -490.0, -490.0, -490.0, -490.0, -490.0, -490.0, -490.0, -490.0, -490.0, -490.0, -490.0, -490.0, -490.0, -490.0, -490.0, -490.0, -490.0, -490.0, -490.0, -490.0, -490.0, -490.0, -490.0, -490.0, -490.0, -490.0, -490.0, -490.0, -490.0, -490.0, -490.0, -484.0, -433.0, -405.0, -307.0, -238.0, -154.0, -78.0, -18.0, 13.0, 52.0, 96.0, 150.0, 200.0, 249.0, 264.0, 306.0, 322.0, 331.0, 335.0, 335.0, 335.0, 335.0, 335.0, 335.0, 335.0, 335.0, 335.0, 335.0, 340.0, 355.0, 366.0, 374.0, 379.0, 382.0, 383.0, 384.0, 384.0, 384.0, 384.0, 384.0, 384.0, 384.0]	[0.012915466446429491, 0.018155613099224865, 0.026892376627074555, 0.0424660433200188, 0.06011808761104476, 0.07426976037095301, 0.09620451180671807, 0.10960866493405774, 0.12528370757354423, 0.14238210949406493, 0.15976620725996327, 0.1743049518117914, 0.19267174774722662, 0.20919534462154843, 0.22396995038434397, 0.242130581085803, 0.2612558192922734, 0.27424218064697925, 0.2934892747871345, 0.30908922413073014, 0.32432053367665503, 0.3423572604369838, 0.3597867555072298, 0.3741695108183194, 0.39247111210715957, 0.4089694503345527, 0.42442399174615275, 0.44231189726269804, 0.4593123365630163, 0.47469110201927833, 0.4925435088807717, 0.5090278524294263, 0.524253700641566, 0.5423013500694651, 0.5592359120637411, 0.5740934617933817, 0.5926220496330643, 0.608839470660314, 0.6242841134226182, 0.6422180989029584, 0.6593386874737917, 0.6742068185267271, 0.6924712145118974, 0.7090036860463442, 0.7244227288174443, 0.7422642130113672, 0.7592257403302938, 0.7739525594661245, 0.7926361125573749, 0.8087661523022689, 0.8243661016458645, 0.8419908392970683, 0.8590523772290908, 0.8742724227631697, 0.8923593255021842, 0.9086269225081196, 0.924230285178055, 0.9420123774179956, 0.9591063419939019, 0.9738645637698937, 0.99232078899513, 1.0086501672922168, 1.0242057433351874, 1.0420373288652627, 1.0591807867604075, 1.0739314992097206, 1.0924638417200185, 1.1087659133627312, 1.1242129454622045, 1.1421988135844003, 1.1591132369212573, 1.1739656666468363, 1.1923908305470832, 1.2088529874599772, 1.2241928409348475, 1.242124095762847, 1.2590770897368202, 1.2745643991511315, 1.2924041766818846, 1.3109061405411921, 1.3242747950280318, 1.3440984008775558]
1	公鸡	True	animate	inanimate	left	1.098	[0.0, 0.0, 0.0, 0.0, 0.0, 0.0, 0.0, 0.0, 0.0, 0.0, 0.0, 0.0, 0.0, 0.0, 0.0, 0.0, 0.0, 0.0, 0.0, 0.0, 0.0, 0.0, 0.0, 0.0, 0.0, 0.0, 0.0, 0.0, 0.0, 0.0, 0.0, 0.0, 0.0, 0.0, 0.0, 0.0, 0.0, 0.0, 0.0, 0.0, 0.0, 0.0, 0.0, 0.0, 0.0, 0.0, 0.0, 0.0, 0.0, 8.0, 13.0, 25.0, 34.0, -3.0, -35.0, -211.0, -355.0, -497.0, -606.0, -684.0, -732.0, -755.0, -768.0, -779.0, -786.0, -795.0, -795.0]	[-490.0, -489.0, -489.0, -489.0, -489.0, -489.0, -489.0, -489.0, -489.0, -489.0, -489.0, -489.0, -489.0, -489.0, -489.0, -489.0, -489.0, -489.0, -489.0, -489.0, -489.0, -489.0, -489.0, -489.0, -489.0, -489.0, -489.0, -489.0, -489.0, -489.0, -489.0, -489.0, -489.0, -489.0, -489.0, -489.0, -489.0, -489.0, -489.0, -489.0, -489.0, -489.0, -489.0, -489.0, -488.0, -488.0, -487.0, -486.0, -482.0, -457.0, -445.0, -393.0, -264.0, -183.0, -149.0, -33.0, 51.0, 129.0, 208.0, 262.0, 298.0, 317.0, 329.0, 338.0, 343.0, 348.0, 348.0]	[0.012149480724474415, 0.0161939373210771, 0.022431118137319572, 0.041168943207594566, 0.05726996963494457, 0.07295764159061946, 0.09070730717212427, 0.10757018921140116, 0.12230076300329529, 0.14091741479933262, 0.1571986651251791, 0.17255729193857405, 0.1905766107083764, 0.20764087930729147, 0.2223584824387217, 0.24107446218840778, 0.2574488964746706, 0.2726829366729362, 0.29077905540179927, 0.3075446574948728, 0.3223656845657388, 0.3409410350577673, 0.35979081739787944, 0.37261470417433884, 0.3928718031384051, 0.4076088622532552, 0.42256778792943805, 0.4409738371759886, 0.460163587340503, 0.4725833356496878, 0.49245029081066605, 0.5075996803934686, 0.5251674153987551, 0.540915503341239, 0.558467537019169, 0.5726854284002911, 0.5918942932330538, 0.6075754798657726, 0.6253981907502748, 0.6409858520928537, 0.6584931711404352, 0.6726557665533619, 0.6917083008011105, 0.7075939459900837, 0.7250992170302197, 0.740902600940899, 0.7582327680720482, 0.7727677579678129, 0.7947629253612831, 0.8074652975337813, 0.8229836682439782, 0.8408538244402735, 0.8572774106869474, 0.8726585654803785, 0.8907041669153841, 0.9074796676577535, 0.9225618146010675, 0.9405248133989517, 0.9589462226431351, 0.9725237730162917, 0.9916677845467348, 1.0073226885288022, 1.023313464349485, 1.0407211140991421, 1.0578417026699753, 1.0725657911243616, 1.091035669669509]
2	酒精	False	animate	inanimate	right	0.929	[0.0, 0.0, 0.0, 0.0, 0.0, 0.0, 0.0, 0.0, 0.0, 0.0, 0.0, 0.0, 0.0, 0.0, 0.0, 0.0, 0.0, 0.0, 0.0, 0.0, 0.0, 0.0, 0.0, 0.0, 0.0, 0.0, 0.0, 0.0, 0.0, 0.0, 0.0, 0.0, 0.0, 0.0, 0.0, 0.0, 0.0, 0.0, 0.0, 0.0, 0.0, 0.0, 1.0, 6.0, 27.0, 46.0, 176.0, 300.0, 417.0, 510.0, 594.0, 659.0, 708.0, 730.0, 739.0, 740.0, 740.0]	[-490.0, -490.0, -490.0, -490.0, -490.0, -490.0, -490.0, -490.0, -490.0, -490.0, -490.0, -490.0, -490.0, -490.0, -490.0, -490.0, -490.0, -490.0, -490.0, -490.0, -490.0, -490.0, -490.0, -490.0, -490.0, -490.0, -490.0, -490.0, -490.0, -490.0, -490.0, -490.0, -490.0, -490.0, -490.0, -490.0, -490.0, -490.0, -490.0, -490.0, -490.0, -490.0, -477.0, -461.0, -395.0, -350.0, -151.0, -16.0, 94.0, 189.0, 299.0, 401.0, 453.0, 469.0, 476.0, 477.0, 477.0]	[0.014944657959858887, 0.022771427291445434, 0.027886987329111435, 0.04621657794632483, 0.06317059593857266, 0.07797284968546592, 0.09662841347744688, 0.11292536513064988, 0.12816691465559416, 0.14630843070335686, 0.16322899803344626, 0.17801316113036592, 0.19668408490542788, 0.21315614048216958, 0.2283062127244193, 0.24636649146850687, 0.26323517617129255, 0.2780118299415335, 0.29663803907169495, 0.3159325785236433, 0.32822910556569695, 0.3493378307466628, 0.36323623430507723, 0.3782494319457328, 0.39665718785545323, 0.41441572809708305, 0.42845953957294114, 0.44724037262494676, 0.46308949518424924, 0.47924650023924187, 0.4964817767468048, 0.5138150158745702, 0.5283421550993808, 0.547107969498029, 0.5631048892973922, 0.5786393026792211, 0.5964947815373307, 0.6128794558171649, 0.628046936049941, 0.6490174213104183, 0.6630581607896602, 0.6811396022094414, 0.6962473491294077, 0.714400470504188, 0.7279940635489766, 0.7477872907475103, 0.7628448617033428, 0.7792916586186038, 0.7961094846687047, 0.8136932623310713, 0.8279797616851283, 0.8465083495393628, 0.8627571732213255, 0.8782786159281386, 0.8963307026861003, 0.9131666194007266, 0.9282279450271744]
3	母鸡	True	animate	inanimate	left	1.303	[0.0, 0.0, 0.0, 0.0, 0.0, 0.0, 0.0, 0.0, 0.0, 0.0, 0.0, 0.0, 0.0, 0.0, 0.0, 0.0, 0.0, 0.0, 0.0, 0.0, 0.0, 0.0, 0.0, 0.0, 0.0, 0.0, 0.0, 0.0, 0.0, 0.0, 0.0, 0.0, 0.0, 0.0, 0.0, 0.0, 0.0, 0.0, 0.0, -4.0, -7.0, -7.0, -7.0, -7.0, -7.0, -7.0, -7.0, -7.0, -7.0, -14.0, -27.0, -59.0, -139.0, -252.0, -399.0, -547.0, -673.0, -753.0, -793.0, -794.0, -794.0, -794.0, -794.0, -794.0, -794.0, -794.0, -794.0, -794.0, -794.0, -794.0, -794.0, -794.0, -794.0, -794.0, -795.0, -795.0, -795.0, -795.0, -796.0]	[-490.0, -490.0, -490.0, -490.0, -490.0, -490.0, -490.0, -490.0, -490.0, -490.0, -490.0, -490.0, -490.0, -490.0, -490.0, -490.0, -490.0, -490.0, -490.0, -490.0, -490.0, -490.0, -490.0, -490.0, -490.0, -490.0, -490.0, -490.0, -490.0, -490.0, -490.0, -490.0, -490.0, -490.0, -490.0, -490.0, -490.0, -489.0, -487.0, -486.0, -484.0, -484.0, -484.0, -484.0, -484.0, -484.0, -484.0, -484.0, -484.0, -479.0, -471.0, -441.0, -360.0, -218.0, -66.0, 61.0, 163.0, 245.0, 296.0, 302.0, 303.0, 303.0, 304.0, 304.0, 304.0, 304.0, 304.0, 304.0, 304.0, 304.0, 304.0, 315.0, 325.0, 339.0, 346.0, 364.0, 384.0, 396.0, 399.0]	[0.013938407792011276, 0.018218042940134183, 0.026146188218262978, 0.0447287067072466, 0.06112737563671544, 0.07651194375648629, 0.09580341121181846, 0.11131973394367378, 0.12631791293097194, 0.1447847194649512, 0.16305662477680016, 0.1765628365392331, 0.19638610105903354, 0.21143513868446462, 0.22642580834508408, 0.24489773488312494, 0.2665604437934235, 0.2763577294390416, 0.2973657613474643, 0.31136281018552836, 0.3263804451562464, 0.3448619290284114, 0.3632365756202489, 0.37656904879258946, 0.39590284157020506, 0.41143384161114227, 0.42908281390555203, 0.4449203311378369, 0.4624515434989007, 0.4765083256352227, 0.49571411845681723, 0.5113710704463301, 0.5275639154860983, 0.5447053253737977, 0.5618593645922374, 0.5765100664284546, 0.5946403184789233, 0.6112652912997873, 0.6261562916770345, 0.6444520903023658, 0.6632387260178803, 0.6764172579423757, 0.6956664000899764, 0.7111533681600122, 0.7278186182957143, 0.7444374471233459, 0.7615239023725735, 0.7764288973994553, 0.7948738586273976, 0.8112479515693849, 0.8266065783827798, 0.8445996145019308, 0.8614317765459418, 0.8764262008771766, 0.8946400795393856, 0.9111251057765912, 0.9266666871553753, 0.9445214833394857, 0.9615168026357424, 0.9761535098077729, 0.9948353562504053, 1.0111295772367157, 1.026781409222167, 1.0447959493321832, 1.061475194132072, 1.0764027171535417, 1.0946394651400624, 1.1110999153897865, 1.1265350008179666, 1.1447898394690128, 1.1615472495614085, 1.1764119672734523, 1.194870240491582, 1.2112177094531944, 1.226708773523569, 1.2443966577993706, 1.2616687982954318, 1.276266252156347, 1.294747736028512]
4	奶牛	True	inanimate	animate	right	1.005	[0.0, 0.0, 0.0, 0.0, 0.0, 0.0, 0.0, 0.0, 0.0, 0.0, 0.0, 0.0, 0.0, 0.0, 0.0, 0.0, 0.0, 0.0, 0.0, 0.0, 0.0, 0.0, 0.0, 0.0, 0.0, 0.0, 0.0, 0.0, 0.0, 0.0, 0.0, -1.0, -1.0, -1.0, -1.0, -1.0, -1.0, -1.0, -1.0, -1.0, -1.0, -1.0, -4.0, -11.0, -23.0, -46.0, -63.0, -67.0, -60.0, 44.0, 159.0, 236.0, 495.0, 665.0, 788.0, 874.0, 930.0, 959.0, 959.0, 959.0, 959.0]	[-490.0, -490.0, -490.0, -490.0, -490.0, -490.0, -490.0, -490.0, -490.0, -490.0, -490.0, -490.0, -490.0, -490.0, -490.0, -489.0, -489.0, -489.0, -489.0, -487.0, -487.0, -487.0, -487.0, -487.0, -487.0, -487.0, -487.0, -487.0, -487.0, -487.0, -487.0, -485.0, -485.0, -485.0, -485.0, -485.0, -485.0, -485.0, -485.0, -485.0, -485.0, -485.0, -482.0, -480.0, -477.0, -463.0, -452.0, -436.0, -392.0, -214.0, -72.0, 6.0, 214.0, 339.0, 433.0, 486.0, 512.0, 524.0, 525.0, 526.0, 526.0]	[0.01274309320433531, 0.016936371044721454, 0.0233285171125317, 0.04202128620818257, 0.058422003145096824, 0.07358572870725766, 0.09183886069513392, 0.10872666005161591, 0.12375590036390349, 0.14207388565409929, 0.1612735344824614, 0.1736956721288152, 0.19235635591030587, 0.2087126995320432, 0.22374023316660896, 0.24213262907869648, 0.2639161699335091, 0.27359979164612014, 0.29297829905408435, 0.308749938980327, 0.3250465493038064, 0.3420234366058139, 0.3596724089002237, 0.37388483896211255, 0.39305957047326956, 0.4087643091042992, 0.4248905941785779, 0.4420361000666162, 0.46294821736228187, 0.47369987051934004, 0.49245271425752435, 0.5087199699191842, 0.5239543514617253, 0.5420211155433208, 0.5583900884957984, 0.5735940913727973, 0.5918380073708249, 0.6085507028183201, 0.6237209137179889, 0.6417385258246213, 0.6585785385250347, 0.6738395440479508, 0.6918851454829564, 0.7086807848827448, 0.7237363078311319, 0.7417604052752722, 0.7585543380118906, 0.7738378715148428, 0.7919186302606249, 0.8085610110720154, 0.8237581872963347, 0.8416454101388808, 0.8584741588565521, 0.8738932016276522, 0.8917814484593691, 0.9086740264756372, 0.9237182854412822, 0.9418813054799102, 0.9586137982405489, 0.9738993797509465, 0.9917521279421635]
5	蝙蝠	True	animate	inanimate	left	1.031	[0.0, 0.0, 0.0, 0.0, 0.0, 0.0, 0.0, 2.0, 10.0, 22.0, 34.0, 43.0, 47.0, 49.0, 49.0, 49.0, 49.0, 49.0, 49.0, 49.0, 49.0, 49.0, 49.0, 49.0, 49.0, 49.0, 49.0, 49.0, 42.0, 38.0, 36.0, 36.0, 34.0, 32.0, 32.0, 32.0, 32.0, 30.0, 25.0, 17.0, 10.0, 10.0, 10.0, 26.0, 62.0, 124.0, 212.0, 306.0, 375.0, 403.0, 401.0, 327.0, 93.0, -129.0, -355.0, -538.0, -687.0, -782.0, -809.0, -814.0, -814.0, -814.0]	[-490.0, -490.0, -490.0, -490.0, -490.0, -489.0, -489.0, -488.0, -487.0, -482.0, -477.0, -473.0, -472.0, -471.0, -471.0, -471.0, -471.0, -471.0, -471.0, -471.0, -471.0, -471.0, -471.0, -471.0, -471.0, -471.0, -471.0, -471.0, -461.0, -459.0, -458.0, -457.0, -454.0, -451.0, -448.0, -448.0, -447.0, -444.0, -439.0, -431.0, -427.0, -427.0, -425.0, -414.0, -386.0, -318.0, -211.0, -96.0, 4.0, 73.0, 122.0, 185.0, 295.0, 372.0, 441.0, 492.0, 535.0, 540.0, 540.0, 540.0, 540.0, 540.0]	[0.007306987186893821, 0.012090088741388172, 0.018319077556952834, 0.031682953384006396, 0.04792904639907647, 0.06344809978327248, 0.08126261866709683, 0.0981193566985894, 0.11306770103692543, 0.1315184649283765, 0.14793522452237085, 0.16343516325287055, 0.18140771938487887, 0.19822076677519362, 0.21326912174117751, 0.23148743774800096, 0.2480673545942409, 0.2635150693531614, 0.28121865495631937, 0.2981822302681394, 0.31294864403025713, 0.3314093065855559, 0.34806909538747277, 0.36352193015045486, 0.38125077440054156, 0.39815564041782636, 0.41324734468071256, 0.4314919433381874, 0.4480032522260444, 0.4634724709758302, 0.4814074804598931, 0.49816489053773694, 0.5132422588212648, 0.5315541001182282, 0.5480264970101416, 0.5634335931245005, 0.5813750879315194, 0.5981161140371114, 0.6132556049415143, 0.631468118284829, 0.6479661151679466, 0.663425093924161, 0.6813645407382865, 0.6981731507985387, 0.7132314044283703, 0.7314446004311321, 0.7479849226365332, 0.7634432187187485, 0.7812550069356803, 0.7980550836655311, 0.8132225638983073, 0.8313654452795163, 0.8477518262225203, 0.8634545168461045, 0.8812516277394025, 0.8980547764658695, 0.9132007527077803, 0.9314296500378987, 0.9478474336356157, 0.9634736656298628, 0.9812089952174574, 0.9981039625708945]
6	婴儿	True	animate	inanimate	left	0.903	[0.0, 0.0, 0.0, 0.0, 0.0, 0.0, 0.0, 0.0, 0.0, 0.0, 0.0, 0.0, 0.0, 1.0, 1.0, 1.0, 1.0, 1.0, 1.0, 1.0, 1.0, 1.0, 1.0, 1.0, 1.0, 1.0, 1.0, 1.0, 1.0, 1.0, 1.0, 1.0, 1.0, 1.0, 1.0, 1.0, 1.0, 1.0, 1.0, 2.0, 7.0, 11.0, 11.0, 8.0, -28.0, -117.0, -258.0, -436.0, -612.0, -757.0, -849.0, -893.0, -901.0, -901.0, -901.0]	[-490.0, -490.0, -490.0, -490.0, -490.0, -490.0, -490.0, -490.0, -490.0, -490.0, -490.0, -490.0, -490.0, -490.0, -490.0, -490.0, -490.0, -490.0, -490.0, -490.0, -490.0, -490.0, -490.0, -490.0, -490.0, -490.0, -490.0, -490.0, -490.0, -490.0, -490.0, -490.0, -490.0, -490.0, -490.0, -490.0, -490.0, -490.0, -486.0, -474.0, -437.0, -403.0, -346.0, -261.0, -172.0, -60.0, 76.0, 231.0, 363.0, 461.0, 502.0, 522.0, 526.0, 527.0, 527.0]	[0.006749248816049658, 0.011709160942700692, 0.017194043466588482, 0.030437428678851575, 0.046940886895754375, 0.06243946029280778, 0.08013417123584077, 0.09713802386249881, 0.1119972802553093, 0.1303289188654162, 0.14698427033727057, 0.16237805446144193, 0.1802328506601043, 0.19707491136796307, 0.2120143810461741, 0.2303818596410565, 0.24694778182310984, 0.2623746752651641, 0.280320948746521, 0.29707528682774864, 0.3122011244267924, 0.3303880377789028, 0.3469560079538496, 0.362338528080727, 0.3800950203294633, 0.39709545961522963, 0.41219672122679185, 0.43036349592148326, 0.4469567247579107, 0.4623982955235988, 0.48028756635903846, 0.4970903737557819, 0.5121957313531311, 0.5304014180292143, 0.5469820175494533, 0.5623665856692242, 0.5800725606095511, 0.5971084985503694, 0.6121599255129695, 0.6303509348654188, 0.6469086650467943, 0.6623413611523574, 0.6802920719637768, 0.6971494926547166, 0.7122155969409505, 0.7303332196752308, 0.7468571578792762, 0.7623502699425444, 0.7801647888263687, 0.7970385935186641, 0.8119374445523135, 0.8302117392013315, 0.8468425146857044, 0.8624318827060051, 0.88019929760776]
7	米饭	False	inanimate	animate	left	1.297	[0.0, 0.0, 0.0, 0.0, 0.0, 0.0, 0.0, 0.0, 0.0, 0.0, 0.0, 0.0, 0.0, 0.0, -2.0, -2.0, -2.0, -2.0, -2.0, -2.0, -2.0, -2.0, -2.0, -2.0, -2.0, -2.0, -2.0, -2.0, -2.0, -2.0, -2.0, -2.0, -2.0, -2.0, -2.0, -2.0, -2.0, 4.0, 4.0, 4.0, 4.0, 0.0, -27.0, -69.0, -133.0, -206.0, -344.0, -451.0, -525.0, -531.0, -530.0, -511.0, -487.0, -458.0, -376.0, -122.0, 114.0, 216.0, 440.0, 503.0, 526.0, 540.0, 553.0, 568.0, 571.0, 571.0, 509.0, 272.0, 161.0, -68.0, -408.0, -586.0, -715.0, -804.0, -861.0, -889.0, -894.0, -894.0]	[-490.0, -490.0, -490.0, -490.0, -490.0, -490.0, -490.0, -490.0, -490.0, -490.0, -490.0, -490.0, -490.0, -490.0, -490.0, -490.0, -490.0, -490.0, -490.0, -490.0, -490.0, -490.0, -490.0, -490.0, -490.0, -490.0, -490.0, -490.0, -490.0, -490.0, -490.0, -490.0, -490.0, -490.0, -490.0, -490.0, -490.0, -488.0, -487.0, -487.0, -486.0, -476.0, -458.0, -423.0, -374.0, -295.0, -97.0, 47.0, 133.0, 146.0, 151.0, 154.0, 154.0, 151.0, 150.0, 182.0, 228.0, 253.0, 340.0, 387.0, 411.0, 423.0, 429.0, 430.0, 430.0, 430.0, 430.0, 430.0, 430.0, 430.0, 433.0, 459.0, 486.0, 513.0, 529.0, 537.0, 539.0, 539.0]	[0.00622086510702502, 0.011436435772338882, 0.027894838000065647, 0.04574861019500531, 0.06270604151359294, 0.07758236456720624, 0.09591639251448214, 0.11248777603032067, 0.12789418947068043, 0.1457814123132266, 0.16263337168493308, 0.17762131067865994, 0.19602053325797897, 0.21246562351007015, 0.2278652102831984, 0.24585141974966973, 0.26261292582785245, 0.2776227101421682, 0.2959277247719001, 0.31250934828130994, 0.3278618310869206, 0.3458005952415988, 0.36262251729203854, 0.3775978269550251, 0.39589226026146207, 0.4124469184462214, 0.4279212571855169, 0.4458146240358474, 0.46268638072069734, 0.4774258291727165, 0.4958131050952943, 0.5160231000918429, 0.5277103474363685, 0.5456436502572615, 0.5626789055240806, 0.5774589726352133, 0.5959308991732541, 0.6122613014740637, 0.6278909468092024, 0.6458375616202829, 0.6625666410545819, 0.6775856413587462, 0.6959336639702087, 0.7124272235232638, 0.7278404636308551, 0.7457068651565351, 0.7625571178650716, 0.7776699847890995, 0.7958360768243438, 0.8123241750436136, 0.8279060337372357, 0.8456939286261331, 0.8625175573397428, 0.8773467764258385, 0.8957203990139533, 0.9123371798341395, 0.9278299505676841, 0.9456618774420349, 0.9625595754623646, 0.977592229100992, 0.9959081663837424, 1.0123566699621733, 1.0279344326554565, 1.0457643115223618, 1.0624974869569996, 1.0776048925617943, 1.0959402858279645, 1.1123788907570997, 1.1278375281690387, 1.145692324367701, 1.1625156117515871, 1.1776257480087224, 1.1959102826513117, 1.2123099755845033, 1.2278617969568586, 1.24577223045344, 1.2625760618539061, 1.2776117874891497]
8	绳子	False	animate	inanimate	right	0.933	[0.0, 0.0, 0.0, 0.0, 0.0, 0.0, 0.0, 0.0, 0.0, 0.0, 0.0, 0.0, 0.0, 0.0, 0.0, 0.0, 0.0, 0.0, 0.0, 0.0, 0.0, 0.0, 0.0, 0.0, 0.0, 0.0, 0.0, -1.0, -1.0, -1.0, -1.0, -1.0, -1.0, -1.0, -1.0, -1.0, -1.0, -1.0, -1.0, -1.0, -1.0, -1.0, -1.0, 4.0, 45.0, 61.0, 101.0, 156.0, 178.0, 264.0, 344.0, 385.0, 514.0, 596.0, 647.0, 666.0, 669.0]	[-490.0, -490.0, -490.0, -490.0, -490.0, -490.0, -490.0, -490.0, -490.0, -490.0, -490.0, -490.0, -490.0, -490.0, -490.0, -490.0, -490.0, -490.0, -490.0, -490.0, -490.0, -490.0, -490.0, -490.0, -490.0, -490.0, -490.0, -489.0, -489.0, -489.0, -489.0, -489.0, -489.0, -489.0, -489.0, -489.0, -489.0, -489.0, -489.0, -489.0, -489.0, -489.0, -489.0, -476.0, -404.0, -365.0, -269.0, -121.0, -68.0, 117.0, 223.0, 257.0, 335.0, 381.0, 412.0, 424.0, 427.0]	[0.00707488066109363, 0.011950824831728823, 0.018653925391845405, 0.031048415054101497, 0.04756450260174461, 0.06301290002011228, 0.08090456019272096, 0.09772750624688342, 0.11269803725008387, 0.130903723926167, 0.14749831809604075, 0.1628726462222403, 0.1808240396931069, 0.1977053537266329, 0.21269738870614674, 0.2309409633744508, 0.24734680030087475, 0.2628747283597477, 0.280833631157293, 0.2977050465269713, 0.3126854761794675, 0.33092529617715627, 0.3474891703663161, 0.36287100781919435, 0.3808534626150504, 0.39771156597998925, 0.4127134996379027, 0.431033532920992, 0.4475274338183226, 0.46286523930029944, 0.4807623607921414, 0.4976918027969077, 0.5124087232543388, 0.5307744951860514, 0.5475117666210281, 0.5628570814296836, 0.5808542135491734, 0.597646439622622, 0.6126927465811605, 0.6309492918953765, 0.6475036087649642, 0.662874523550272, 0.6809040823281975, 0.6976973323908169, 0.7126784447173122, 0.7309377207129728, 0.7511934543435927, 0.7627311977557838, 0.780761097863433, 0.7976086199050769, 0.8126579988602316, 0.8309575521707302, 0.8473743117647246, 0.8628448958334047, 0.8807467959995847, 0.8976366433635121, 0.9126361876842566]
9	蜜蜂	True	animate	inanimate	left	0.879	[0.0, 0.0, 0.0, 0.0, 0.0, 0.0, 0.0, 0.0, 0.0, 0.0, 0.0, 0.0, 0.0, 0.0, 0.0, 0.0, 0.0, 0.0, 0.0, 0.0, 0.0, 0.0, 0.0, -2.0, -2.0, -2.0, -2.0, -3.0, -5.0, -5.0, -5.0, -5.0, -7.0, -10.0, -10.0, -10.0, -10.0, -10.0, -14.0, -17.0, -39.0, -81.0, -146.0, -231.0, -323.0, -410.0, -490.0, -553.0, -621.0, -681.0, -702.0, -703.0, -707.0, -708.0]	[-490.0, -490.0, -490.0, -490.0, -490.0, -490.0, -490.0, -490.0, -490.0, -490.0, -490.0, -490.0, -490.0, -490.0, -490.0, -490.0, -490.0, -490.0, -490.0, -490.0, -490.0, -490.0, -490.0, -490.0, -490.0, -490.0, -490.0, -489.0, -489.0, -489.0, -489.0, -489.0, -487.0, -485.0, -485.0, -485.0, -485.0, -485.0, -485.0, -485.0, -480.0, -463.0, -420.0, -352.0, -266.0, -151.0, 16.0, 190.0, 349.0, 460.0, 500.0, 504.0, 511.0, 512.0]	[0.013766717223916203, 0.019653348877909593, 0.02569426310947165, 0.04438430153822992, 0.060700709189404733, 0.07617846126959193, 0.09405680945201311, 0.11090740349027328, 0.12589909714006353, 0.14420854909985792, 0.16079187927243765, 0.176145386081771, 0.19403977692127228, 0.21084770430752542, 0.22590595793735702, 0.24425295654509682, 0.2607379827677505, 0.27611470023111906, 0.29403503239154816, 0.3108832370926393, 0.3259326160623459, 0.3442526493454352, 0.3607339209120255, 0.37612736369192135, 0.3939248159149429, 0.410839921925799, 0.4259179728687741, 0.44421889149816707, 0.4607527283660602, 0.47615265648346394, 0.49406343130976893, 0.5108737480331911, 0.5259528229798889, 0.544307672244031, 0.5608179571281653, 0.5761468879500171, 0.5939211295190034, 0.6109031368250726, 0.6259480784501648, 0.6441551304596942, 0.660647324679303, 0.6761281487561064, 0.6941058248921763, 0.7108983922953485, 0.726000336551806, 0.7441213726124261, 0.7606115188391414, 0.7760626469244016, 0.7939307551132515, 0.8107659891538788, 0.8258863654191373, 0.8441145800752565, 0.860592438315507, 0.8760981797095155]
10	鸡蛋	False	inanimate	animate	left	1.998	[0.0, 0.0, 0.0, 0.0, 0.0, 0.0, 0.0, 0.0, 0.0, 0.0, 0.0, 0.0, 0.0, 0.0, 0.0, 0.0, 0.0, 0.0, 0.0, -1.0, -3.0, -10.0, -22.0, -29.0, -33.0, -34.0, -35.0, -39.0, -51.0, -66.0, -76.0, -78.0, -79.0, -79.0, -79.0, -79.0, -79.0, -79.0, -79.0, -79.0, -79.0, -79.0, -79.0, -79.0, -79.0, -79.0, -79.0, -77.0, -76.0, -72.0, -62.0, -45.0, -10.0, 33.0, 79.0, 126.0, 178.0, 246.0, 351.0, 427.0, 464.0, 552.0, 586.0, 606.0, 611.0, 610.0, 600.0, 575.0, 522.0, 424.0, 182.0, -21.0, -202.0, -337.0, -469.0, -604.0, -745.0, -864.0, -933.0, -957.0, -960.0, -960.0, -960.0, -960.0, -960.0, -960.0, -960.0, -960.0, -960.0, -960.0, -960.0, -960.0, -960.0, -960.0, -960.0, -960.0, -960.0, -956.0, -939.0, -895.0, -814.0, -713.0, -612.0, -506.0, -426.0, -367.0, -299.0, -281.0, -280.0, -280.0, -291.0, -351.0, -454.0, -571.0, -665.0, -740.0, -789.0, -815.0, -819.0, -819.0]	[-490.0, -490.0, -490.0, -490.0, -490.0, -490.0, -490.0, -490.0, -490.0, -490.0, -490.0, -490.0, -490.0, -490.0, -490.0, -490.0, -490.0, -490.0, -490.0, -486.0, -481.0, -473.0, -457.0, -449.0, -445.0, -442.0, -442.0, -438.0, -430.0, -416.0, -405.0, -401.0, -400.0, -400.0, -400.0, -400.0, -400.0, -400.0, -400.0, -400.0, -400.0, -400.0, -400.0, -400.0, -400.0, -400.0, -398.0, -392.0, -390.0, -386.0, -381.0, -373.0, -356.0, -315.0, -257.0, -174.0, -79.0, 14.0, 153.0, 228.0, 260.0, 326.0, 353.0, 373.0, 384.0, 393.0, 398.0, 399.0, 399.0, 399.0, 399.0, 399.0, 401.0, 401.0, 401.0, 401.0, 401.0, 401.0, 406.0, 408.0, 411.0, 411.0, 411.0, 411.0, 411.0, 411.0, 411.0, 411.0, 411.0, 411.0, 411.0, 411.0, 411.0, 411.0, 411.0, 411.0, 411.0, 411.0, 412.0, 412.0, 403.0, 380.0, 346.0, 298.0, 231.0, 166.0, 78.0, 51.0, 48.0, 48.0, 60.0, 118.0, 215.0, 300.0, 343.0, 374.0, 395.0, 406.0, 408.0, 408.0]	[0.0002267134841531515, 0.005169558950001374, 0.015207825810648501, 0.033785224295570515, 0.05017331191629637, 0.06548688274051528, 0.08340755623066798, 0.10023562227434013, 0.1154488411557395, 0.1335855785291642, 0.1500805034302175, 0.1655681541597005, 0.18343045968504157, 0.2002076670905808, 0.21540279530745465, 0.23354192201804835, 0.25018874017405324, 0.265583889617119, 0.2835305044281995, 0.3002486612094799, 0.31505466962698847, 0.33345832953637, 0.3499768064066302, 0.3654528518236475, 0.38345169060630724, 0.40022582601523027, 0.4153567836037837, 0.433545403619064, 0.45013829112576786, 0.46563242719275877, 0.4834414847427979, 0.5001637375098653, 0.5153097137663281, 0.5335106217680732, 0.5500622079707682, 0.5655396187066799, 0.5834739455312956, 0.6002402302692644, 0.6153903025115142, 0.6335659518808825, 0.649887479521567, 0.6655304368468933, 0.6834780756616965, 0.7002235390827991, 0.7153145606862381, 0.7334850900515448, 0.7500435029069195, 0.7654697136749746, 0.7834610431309557, 0.8003054931759834, 0.8151821575593203, 0.8335294974967837, 0.8500780116883107, 0.8655226544506149, 0.8833562879881356, 0.9000979967531748, 0.915312239623745, 0.933410747689777, 0.9498053206334589, 0.9654878725996241, 0.9833385727979476, 1.0002205694909208, 1.0152764337835833, 1.0335951017332263, 1.0500565759721212, 1.0654681094165426, 1.083358404255705, 1.1001089876808692, 1.1150474333553575, 1.1334271999512566, 1.1499473834846867, 1.1654592688864795, 1.1832884650939377, 1.2002588670729892, 1.2152915206970647, 1.2335412393586012, 1.2500057855941122, 1.2655248389783083, 1.2832966912101256, 1.3000875519501278, 1.3152915548416786, 1.3334395562123973, 1.3499290197651135, 1.3655357957759406, 1.3833294933283469, 1.4001998846943025, 1.4153601969301235, 1.433467238326557, 1.4499570432235487, 1.4655337819131091, 1.4833097301452653, 1.5001767081703292, 1.514994663259131, 1.5334440618025837, 1.5499683413509047, 1.5655157253931975, 1.5833623295766301, 1.600317030242877, 1.6153332998801488, 1.6334935892518843, 1.6500069461326348, 1.6655198555235984, 1.6831660971511155, 1.7000699391646776, 1.715347670004121, 1.733427746090456, 1.7498202710266924, 1.7654714203381445, 1.7833627391810296, 1.8002669225243153, 1.8153019655001117, 1.8335530494805425, 1.8501008810126223, 1.865576585085364, 1.8833327360043768, 1.9001451007206924, 1.9153364742815029, 1.93353567563463, 1.9500343551771948, 1.965579008552595]
11	饭店	False	animate	inanimate	right	1.509	[0.0, 0.0, 0.0, 0.0, 0.0, 0.0, 0.0, 0.0, 0.0, 0.0, 0.0, 0.0, 0.0, 0.0, 0.0, 0.0, 0.0, 0.0, 0.0, 0.0, 0.0, 0.0, 0.0, 0.0, 0.0, 0.0, 0.0, 0.0, 0.0, 0.0, 0.0, 0.0, 0.0, 0.0, 0.0, 0.0, 0.0, 0.0, 0.0, 0.0, 3.0, 3.0, 3.0, 3.0, -6.0, -21.0, -42.0, -69.0, -97.0, -112.0, -116.0, -119.0, -123.0, -128.0, -135.0, -143.0, -158.0, -188.0, -275.0, -310.0, -392.0, -458.0, -525.0, -538.0, -590.0, -634.0, -687.0, -727.0, -747.0, -750.0, -750.0, -714.0, -622.0, -569.0, -555.0, -555.0, -555.0, -555.0, -527.0, -422.0, -244.0, 15.0, 414.0, 543.0, 753.0, 907.0, 959.0, 959.0, 959.0, 958.0, 958.0]	[-490.0, -490.0, -490.0, -490.0, -490.0, -490.0, -490.0, -490.0, -490.0, -490.0, -490.0, -490.0, -490.0, -490.0, -490.0, -490.0, -490.0, -490.0, -490.0, -490.0, -490.0, -490.0, -490.0, -490.0, -490.0, -490.0, -490.0, -490.0, -490.0, -490.0, -490.0, -490.0, -490.0, -490.0, -490.0, -490.0, -490.0, -490.0, -490.0, -490.0, -487.0, -487.0, -486.0, -483.0, -477.0, -465.0, -452.0, -434.0, -414.0, -403.0, -400.0, -398.0, -395.0, -391.0, -386.0, -380.0, -365.0, -330.0, -225.0, -173.0, -77.0, -1.0, 78.0, 100.0, 169.0, 220.0, 282.0, 326.0, 344.0, 348.0, 353.0, 364.0, 391.0, 410.0, 417.0, 419.0, 419.0, 419.0, 424.0, 424.0, 424.0, 424.0, 424.0, 424.0, 424.0, 424.0, 430.0, 430.0, 432.0, 433.0, 433.0]	[0.00036631873808801174, 0.005520449441974051, 0.015463143019587733, 0.03400879752007313, 0.050448085108655505, 0.06584869588550646, 0.08376390804187395, 0.10056842210178729, 0.11536316653655376, 0.13392452236439567, 0.15023205534089357, 0.16583678335882723, 0.18379978215671144, 0.20051247760420665, 0.21560861921170726, 0.23388871650968213, 0.25041436139144935, 0.26574329219874926, 0.28382746428542305, 0.30058111970720347, 0.31558202936139423, 0.33396145461301785, 0.35044477417250164, 0.3658447022899054, 0.3837926824344322, 0.4005408765224274, 0.41564179678971414, 0.4338901501178043, 0.4504372989758849, 0.4657454084663186, 0.48373503125912976, 0.5005897212977288, 0.5154121137020411, 0.5337693523033522, 0.5504346024390543, 0.565767629261245, 0.58356712947716, 0.6005720061075408, 0.6157217370200669, 0.6338639357272768, 0.6504441939032404, 0.6658048687095288, 0.6838863101147581, 0.7005730642413255, 0.7157016324927099, 0.733913804506301, 0.7503227134293411, 0.7657424388744403, 0.7837675603077514, 0.8005519357102457, 0.8155859546823194, 0.8338619559945073, 0.8503599528776249, 0.865725747687975, 0.8837419944611611, 0.9005939538328676, 0.9156276314606657, 0.9338903207826661, 0.9503422376874369, 0.9657762991264462, 0.9837143806071253, 1.0004192253836663, 1.0155631536326837, 1.0338514429313364, 1.0503084798401687, 1.0658043225703295, 1.0836355667706812, 1.1005148327967618, 1.115377502530464, 1.1339112103742082, 1.1501931433595018, 1.165786948709865, 1.1835335422947537, 1.200424413647852, 1.2155744858901016, 1.233821815214469, 1.250082585553173, 1.2658470574824605, 1.283706632340909, 1.3007012689777184, 1.3156332293292508, 1.3339433639484923, 1.3502556755993282, 1.3657214810227742, 1.3837442131189164, 1.4004801192204468, 1.4155438341695117, 1.433842022132012, 1.4503529896901455, 1.4658112857723609, 1.4838118312181905]
12	牙齿	False	animate	inanimate	right	1.048	[0.0, 0.0, 0.0, 0.0, 0.0, 0.0, 0.0, 0.0, 0.0, 0.0, 0.0, 0.0, 0.0, 0.0, 0.0, 0.0, 0.0, 0.0, 0.0, 0.0, 0.0, 0.0, 0.0, 0.0, 0.0, 0.0, 0.0, 0.0, 0.0, 0.0, 0.0, 0.0, 0.0, 0.0, 0.0, 2.0, 2.0, 2.0, 2.0, 2.0, 2.0, 2.0, 2.0, 6.0, 19.0, 34.0, 38.0, 38.0, 38.0, 42.0, 53.0, 74.0, 118.0, 196.0, 309.0, 449.0, 595.0, 743.0, 926.0, 959.0, 959.0, 959.0, 959.0, 959.0]	[-490.0, -490.0, -490.0, -490.0, -490.0, -490.0, -490.0, -490.0, -490.0, -490.0, -490.0, -490.0, -490.0, -490.0, -490.0, -490.0, -490.0, -490.0, -490.0, -490.0, -490.0, -490.0, -490.0, -490.0, -490.0, -490.0, -490.0, -490.0, -490.0, -490.0, -490.0, -490.0, -490.0, -490.0, -490.0, -490.0, -490.0, -490.0, -490.0, -490.0, -490.0, -490.0, -490.0, -489.0, -480.0, -473.0, -469.0, -469.0, -469.0, -465.0, -447.0, -407.0, -337.0, -205.0, -35.0, 116.0, 227.0, 322.0, 406.0, 430.0, 435.0, 437.0, 438.0, 439.0]	[0.014158909034449607, 0.019817188804154284, 0.02668788394657895, 0.04513898916775361, 0.06160251139954198, 0.07697649819601793, 0.09489239302638453, 0.1117464004055364, 0.12679782735358458, 0.14502399403136224, 0.16160015620698687, 0.17701305498485453, 0.1947043525869958, 0.21171469055116177, 0.22689957877446432, 0.24504996948235203, 0.2617002009501448, 0.277019915782148, 0.2949617519188905, 0.3117618286632933, 0.32677434364450164, 0.34496774231956806, 0.36162172845797613, 0.3770380405767355, 0.3949611033895053, 0.41175230545923114, 0.42688189771433827, 0.44502955775533337, 0.4615971866151085, 0.4771193119959207, 0.49492871087568346, 0.5117530222632922, 0.526820833212696, 0.5450732825411251, 0.5614473754831124, 0.5771080821286887, 0.5948785690416116, 0.6116946884285426, 0.6268102860194631, 0.6450187033624388, 0.6614996335847536, 0.6769814816652797, 0.6948786031716736, 0.7116786799015244, 0.7268236321397126, 0.7450282948266249, 0.7616362009866862, 0.7770204277767334, 0.7949062852858333, 0.8117333273403347, 0.8267792929691495, 0.8449819076486165, 0.8615689924918115, 0.8769542432855815, 0.894818596803816, 0.9116302788606845, 0.9265775992098497, 0.9450229017675156, 0.9616396825877018, 0.9770406346942764, 0.994916252209805, 1.0117187182768248, 1.0267889185633976, 1.04504682921106]
13	黑猫	True	animate	inanimate	left	0.893	[0.0, 0.0, 0.0, 0.0, 0.0, 0.0, 0.0, 0.0, 0.0, 0.0, 0.0, 0.0, 0.0, 0.0, 0.0, 0.0, 0.0, 0.0, 0.0, 0.0, 0.0, 0.0, 0.0, 0.0, 0.0, 0.0, 0.0, 0.0, 0.0, 0.0, 0.0, 0.0, 0.0, 0.0, 0.0, 0.0, 0.0, 0.0, 0.0, 0.0, 0.0, 0.0, -4.0, -35.0, -102.0, -195.0, -309.0, -414.0, -507.0, -583.0, -655.0, -672.0, -705.0, -710.0, -710.0]	[-490.0, -490.0, -490.0, -490.0, -490.0, -490.0, -490.0, -490.0, -490.0, -490.0, -490.0, -490.0, -490.0, -490.0, -490.0, -490.0, -490.0, -490.0, -490.0, -490.0, -490.0, -490.0, -490.0, -490.0, -490.0, -490.0, -491.0, -491.0, -491.0, -491.0, -491.0, -491.0, -491.0, -491.0, -491.0, -491.0, -491.0, -491.0, -491.0, -491.0, -491.0, -476.0, -442.0, -357.0, -242.0, -114.0, 18.0, 149.0, 276.0, 380.0, 462.0, 476.0, 497.0, 499.0, 499.0]	[0.006245441079954617, 0.010747625448857434, 0.01605603873031214, 0.02928577062266413, 0.04575816751457751, 0.06115331697219517, 0.07917536640889011, 0.09591741650365293, 0.11093812348553911, 0.12934280739864334, 0.1457500096585136, 0.16112126578809693, 0.17915765121870209, 0.19586795732902829, 0.21090026963793207, 0.2292807188932784, 0.24576745177910198, 0.2611271025816677, 0.2790470934123732, 0.2958901781239547, 0.31090883709839545, 0.32924798503518105, 0.3457985472341534, 0.3611380593793001, 0.379050540868775, 0.39585539627296384, 0.41072864731540903, 0.4292108138615731, 0.44574738139635883, 0.4611353628424695, 0.4790963136474602, 0.49591652903473005, 0.5108621427207254, 0.529183541337261, 0.5457443435298046, 0.5611224263266195, 0.579089179795119, 0.5958561472070869, 0.6108925555017777, 0.6292081514548045, 0.6455590337573085, 0.6611839004181093, 0.6790994539187523, 0.6958606186672114, 0.7109383282804629, 0.7291371883038664, 0.745592518534977, 0.7611515079042874, 0.7789697814441752, 0.7958599701378262, 0.8109318770875689, 0.8291744277375983, 0.8456290753238136, 0.8611484700377332, 0.8790739222022239]
14	松鼠	True	inanimate	animate	right	0.889	[0.0, 0.0, 0.0, 0.0, 0.0, 0.0, 0.0, 0.0, 0.0, 0.0, 0.0, 0.0, 0.0, 0.0, 0.0, 0.0, 0.0, 0.0, 0.0, 0.0, 0.0, 0.0, 0.0, 0.0, 0.0, 0.0, 0.0, 0.0, 0.0, 0.0, 0.0, 0.0, 0.0, 0.0, 0.0, 0.0, 0.0, 0.0, 0.0, 0.0, 0.0, -1.0, 16.0, 68.0, 163.0, 232.0, 461.0, 575.0, 662.0, 728.0, 777.0, 798.0, 804.0, 805.0]	[-490.0, -490.0, -490.0, -490.0, -490.0, -490.0, -490.0, -490.0, -490.0, -490.0, -490.0, -490.0, -490.0, -490.0, -490.0, -490.0, -490.0, -490.0, -490.0, -490.0, -490.0, -490.0, -490.0, -490.0, -490.0, -490.0, -490.0, -490.0, -490.0, -490.0, -490.0, -490.0, -490.0, -490.0, -490.0, -490.0, -490.0, -490.0, -490.0, -490.0, -490.0, -489.0, -467.0, -395.0, -267.0, -175.0, 95.0, 227.0, 312.0, 358.0, 392.0, 407.0, 415.0, 417.0]	[0.008097173456917517, 0.01299701095558703, 0.01752923263120465, 0.03310597132076509, 0.04939814431418199, 0.06487214172375388, 0.08271226059878245, 0.09970587321731728, 0.11468869222153444, 0.1329554775293218, 0.14956338370393496, 0.1649677491368493, 0.18269659340148792, 0.1997646166564664, 0.21447675846866332, 0.23291250369220506, 0.2495296258421149, 0.2649292126297951, 0.28281165681255516, 0.2996834134974051, 0.3146764724951936, 0.33295759379689116, 0.3495340973167913, 0.3649900040618377, 0.382786773625412, 0.3996919809578685, 0.4147201972664334, 0.43297913191781845, 0.4495348141063005, 0.46500403285608627, 0.4827393624436809, 0.4997261484095361, 0.5146461621043272, 0.5330010113830213, 0.5494208429736318, 0.5649982643226394, 0.582931908473256, 0.5997111638862407, 0.6145202443003654, 0.6328768002422294, 0.6493628504686058, 0.6649218398379162, 0.6828332973236684, 0.699848755277344, 0.7144216331507778, 0.732817442403757, 0.749475524542504, 0.7648529246653197, 0.7827619928284548, 0.7995644588954747, 0.8146838111570105, 0.8328068952105241, 0.8492792921024375, 0.8648724147933535]
15	太阳	False	animate	inanimate	right	0.929	[0.0, 0.0, 0.0, 0.0, 0.0, 0.0, 0.0, 0.0, 0.0, 0.0, 0.0, 0.0, 0.0, 0.0, 0.0, 0.0, 0.0, 0.0, 0.0, 0.0, 0.0, 0.0, 0.0, 0.0, 0.0, 0.0, 0.0, 0.0, 0.0, 0.0, 0.0, 0.0, 0.0, 0.0, 0.0, 0.0, 0.0, 0.0, 0.0, 0.0, 0.0, 0.0, 4.0, 8.0, 18.0, 45.0, 168.0, 296.0, 444.0, 597.0, 771.0, 932.0, 959.0, 959.0, 959.0, 959.0]	[-490.0, -490.0, -490.0, -490.0, -490.0, -490.0, -490.0, -489.0, -489.0, -489.0, -489.0, -489.0, -489.0, -489.0, -489.0, -489.0, -489.0, -489.0, -489.0, -489.0, -489.0, -489.0, -489.0, -489.0, -489.0, -489.0, -489.0, -489.0, -489.0, -489.0, -489.0, -489.0, -489.0, -489.0, -489.0, -489.0, -489.0, -489.0, -489.0, -489.0, -489.0, -489.0, -486.0, -478.0, -457.0, -393.0, -174.0, 10.0, 220.0, 421.0, 540.0, 540.0, 540.0, 540.0, 540.0, 540.0]	[0.01307896502839867, 0.02050023055926431, 0.025959854436223395, 0.04284697111870628, 0.05922106407524552, 0.07470052281860262, 0.09261573497497011, 0.10935846772918012, 0.12412897750618868, 0.14253639208618551, 0.159219050212414, 0.17461727165209595, 0.19256627580034547, 0.209362597859581, 0.22450413678598125, 0.24261527416820172, 0.25915627903304994, 0.27463983377674595, 0.29255914193345234, 0.3093653626710875, 0.32441235228907317, 0.34267231094418094, 0.35921980114653707, 0.37464498791086953, 0.3923468668508576, 0.4094322980963625, 0.42416457855142653, 0.44256482513446826, 0.45922188326949254, 0.4746463873743778, 0.4925636475381907, 0.5093944442487555, 0.524454404541757, 0.5426839845458744, 0.5592628773883916, 0.5746672428358579, 0.5925787003216101, 0.609368195728166, 0.624434982688399, 0.6426447653648211, 0.6593127461528638, 0.6746949249500176, 0.6925616678054212, 0.709361744535272, 0.7244732461258536, 0.7426137381698936, 0.759153719045571, 0.7747024684067583, 0.7924429179984145, 0.8093235493579414, 0.8244538242724957, 0.8426796496059978, 0.8592308944644174, 0.8746431105828378, 0.892505416093627, 0.9094413434213493]
16	电线	False	animate	inanimate	right	0.826	[0.0, 0.0, 0.0, 0.0, 0.0, 0.0, 0.0, 0.0, 0.0, 0.0, 0.0, 0.0, 0.0, 0.0, 0.0, 0.0, 0.0, 0.0, 0.0, 0.0, 0.0, 0.0, 0.0, 0.0, 0.0, 0.0, 0.0, 0.0, 0.0, 0.0, 0.0, 0.0, 0.0, 0.0, 0.0, 0.0, 0.0, 0.0, 5.0, 21.0, 44.0, 96.0, 192.0, 316.0, 519.0, 598.0, 777.0, 875.0, 931.0, 946.0, 946.0]	[-490.0, -490.0, -490.0, -490.0, -490.0, -490.0, -490.0, -490.0, -489.0, -489.0, -489.0, -489.0, -489.0, -489.0, -489.0, -489.0, -489.0, -489.0, -489.0, -489.0, -489.0, -489.0, -489.0, -489.0, -489.0, -489.0, -489.0, -489.0, -489.0, -489.0, -489.0, -489.0, -489.0, -489.0, -489.0, -489.0, -489.0, -489.0, -488.0, -477.0, -457.0, -405.0, -289.0, -152.0, 81.0, 174.0, 397.0, 469.0, 503.0, 513.0, 514.0]	[0.007477312436094508, 0.012140264705521986, 0.016110993339680135, 0.03187580659869127, 0.048143403604626656, 0.06366825966688339, 0.08175891706196126, 0.09844294052163605, 0.11315644765272737, 0.13164783018874004, 0.14810725643474143, 0.16370788843778428, 0.18163299925799947, 0.19847642529930454, 0.21317218311014585, 0.2315795976901427, 0.24823972782178316, 0.2636283919418929, 0.28165248938603327, 0.298378496823716, 0.31339579046471044, 0.3316666717728367, 0.34828550060046837, 0.36370454337156843, 0.38163613952929154, 0.39840276561153587, 0.41339343527215533, 0.4317322418792173, 0.44806776418408845, 0.4636311908834614, 0.4816133043350419, 0.49842123173584696, 0.5134433040366275, 0.5317114546924131, 0.5480783796374453, 0.5636547769972822, 0.5816747784410836, 0.598426044525695, 0.6134890768153127, 0.6316790621785913, 0.6482214323768858, 0.663667781787808, 0.68158743128879, 0.6983090013964102, 0.7135652282449882, 0.731595469682361, 0.7481286238908069, 0.763652455934789, 0.7814376201567939, 0.7983810568257468, 0.8134652517619543]
17	孔雀	True	animate	inanimate	right	0.881	[0.0, 0.0, 0.0, 0.0, 0.0, 0.0, 0.0, 0.0, 0.0, 0.0, 0.0, 0.0, 0.0, 0.0, 0.0, 0.0, 0.0, 0.0, 0.0, 0.0, 0.0, 0.0, 0.0, 0.0, 0.0, 0.0, 0.0, 0.0, 0.0, 0.0, 0.0, 0.0, 0.0, 0.0, 1.0, 1.0, 2.0, 2.0, 2.0, 2.0, 2.0, 2.0, 2.0, 4.0, 46.0, 148.0, 394.0, 487.0, 647.0, 795.0, 849.0, 873.0, 921.0, 921.0]	[-490.0, -490.0, -490.0, -490.0, -490.0, -490.0, -490.0, -490.0, -490.0, -490.0, -490.0, -490.0, -490.0, -490.0, -490.0, -490.0, -490.0, -490.0, -490.0, -490.0, -490.0, -490.0, -490.0, -490.0, -490.0, -490.0, -490.0, -490.0, -490.0, -490.0, -490.0, -490.0, -490.0, -490.0, -490.0, -490.0, -490.0, -490.0, -490.0, -490.0, -490.0, -490.0, -490.0, -487.0, -433.0, -323.0, -77.0, 16.0, 202.0, 400.0, 469.0, 493.0, 519.0, 522.0]	[0.014157885030726902, 0.020210063259582967, 0.026770145239424892, 0.04527415710617788, 0.06170013269002084, 0.07707582614966668, 0.09498284631990828, 0.11181978702370543, 0.12677939537388738, 0.14505198334518354, 0.16160118021070957, 0.17703216963855084, 0.19504329642222729, 0.21184644514869433, 0.22683643213531468, 0.24508751613029744, 0.2616602649795823, 0.2769960224541137, 0.2949184026074363, 0.3118259992916137, 0.32686274893058, 0.34509130493097473, 0.361596811140771, 0.37711279252835084, 0.3949849967175396, 0.411847537412541, 0.42667436716146767, 0.44513127504615113, 0.46172621054574847, 0.4770380747067975, 0.4949696708499687, 0.5117950062413001, 0.5268317558802664, 0.5450944451877149, 0.5617160046822391, 0.5770575648202794, 0.5949888196482789, 0.6118202990328427, 0.6268181366758654, 0.6451036953221774, 0.6617143321491312, 0.6769906976551283, 0.6950209390925011, 0.711810434499057, 0.7268205601430964, 0.7449494468601188, 0.7615843183448305, 0.777049782424001, 0.7948598639777629, 0.811724111350486, 0.8267632503120694, 0.84505802494823, 0.8616471577843186, 0.8769682379352162]
18	海鸥	True	animate	inanimate	right	1.029	[0.0, 0.0, 0.0, 0.0, 0.0, 0.0, 0.0, 0.0, 0.0, 0.0, 0.0, 0.0, 0.0, 0.0, 0.0, 0.0, 0.0, 0.0, 0.0, 0.0, 0.0, 0.0, 0.0, 0.0, 0.0, 0.0, 0.0, 0.0, 0.0, 0.0, 0.0, 0.0, 0.0, 0.0, 0.0, 0.0, 0.0, 0.0, 0.0, 0.0, 0.0, 0.0, 0.0, -1.0, 0.0, 5.0, 12.0, 39.0, 122.0, 239.0, 391.0, 548.0, 689.0, 811.0, 829.0, 841.0, 841.0, 841.0, 841.0, 841.0, 841.0, 841.0, 841.0]	[-490.0, -490.0, -490.0, -490.0, -490.0, -490.0, -490.0, -490.0, -490.0, -490.0, -490.0, -490.0, -490.0, -490.0, -490.0, -490.0, -490.0, -490.0, -490.0, -490.0, -490.0, -490.0, -490.0, -490.0, -490.0, -490.0, -490.0, -490.0, -490.0, -490.0, -490.0, -490.0, -490.0, -490.0, -490.0, -490.0, -490.0, -490.0, -490.0, -490.0, -490.0, -490.0, -490.0, -489.0, -484.0, -476.0, -463.0, -425.0, -323.0, -161.0, 47.0, 261.0, 443.0, 540.0, 540.0, 540.0, 540.0, 540.0, 540.0, 540.0, 540.0, 540.0, 540.0]	[0.013317864111741073, 0.01830542422248982, 0.024566498352214694, 0.042953091600793414, 0.05977160032489337, 0.07480630195641425, 0.09315398323815316, 0.10958917482639663, 0.12495053229213227, 0.1429521017416846, 0.15974159714824054, 0.17477288545342162, 0.1930901880696183, 0.20962129427061882, 0.22497036374988966, 0.2429968505166471, 0.2597358286147937, 0.2747828182473313, 0.2930670115456451, 0.30956603243248537, 0.32498029654379934, 0.34295285267580766, 0.3597426894120872, 0.3747988950344734, 0.3931144909875002, 0.4094414799619699, 0.4249827200110303, 0.44296824680350255, 0.4597478435462108, 0.47477913183683995, 0.49309029047435615, 0.5094087461184245, 0.5249650048208423, 0.5429631609295029, 0.5597837176610483, 0.5748573312739609, 0.5930971512716496, 0.6095770574902417, 0.6250739242241252, 0.6429819683835376, 0.6597479118063347, 0.6747607681172667, 0.6930285774287768, 0.709609859608463, 0.7249350357596995, 0.7429741518571973, 0.7597059619583888, 0.774893580848584, 0.7930176889058203, 0.8095344591129106, 0.8249671552184736, 0.8429103566886624, 0.8597353507502703, 0.8748345643543871, 0.893108176329406, 0.9096181198692648, 0.9250091733265435, 0.9428970788285369, 0.9597575715306448, 0.974804902492906, 0.993215389069519, 1.0093884367961437, 1.0249279701674823]
19	鲨鱼	True	animate	inanimate	left	1.115	[0.0, 0.0, 0.0, 0.0, 0.0, 0.0, 0.0, 0.0, 0.0, 1.0, 2.0, 2.0, 2.0, 2.0, 2.0, 2.0, 2.0, 2.0, 2.0, 1.0, 1.0, 1.0, 1.0, 1.0, 1.0, 1.0, 1.0, 0.0, -2.0, -8.0, -12.0, -17.0, -20.0, -20.0, -20.0, -20.0, -20.0, -20.0, -20.0, -20.0, -20.0, -20.0, -20.0, -20.0, -21.0, -23.0, -37.0, -71.0, -138.0, -231.0, -326.0, -431.0, -539.0, -646.0, -745.0, -828.0, -850.0, -857.0, -865.0, -867.0, -867.0, -867.0, -867.0, -867.0, -867.0, -867.0, -867.0, -867.0]	[-490.0, -490.0, -490.0, -490.0, -490.0, -490.0, -490.0, -490.0, -490.0, -490.0, -490.0, -490.0, -490.0, -490.0, -490.0, -490.0, -490.0, -490.0, -491.0, -493.0, -493.0, -493.0, -493.0, -493.0, -493.0, -493.0, -493.0, -494.0, -495.0, -502.0, -506.0, -512.0, -515.0, -516.0, -516.0, -516.0, -516.0, -516.0, -516.0, -516.0, -516.0, -516.0, -516.0, -516.0, -516.0, -516.0, -488.0, -448.0, -365.0, -258.0, -147.0, -19.0, 122.0, 271.0, 397.0, 488.0, 519.0, 529.0, 540.0, 540.0, 540.0, 540.0, 540.0, 540.0, 540.0, 540.0, 540.0, 540.0]	[0.014051389080123045, 0.019782372808549553, 0.026546572014922276, 0.04497139458544552, 0.061309306212933734, 0.07683211426774506, 0.09451385455031414, 0.11158563247590791, 0.12656947546929587, 0.14482533812406473, 0.16143119629123248, 0.17682839374174364, 0.19473950989777222, 0.2115853252762463, 0.22658043226692826, 0.2447854362835642, 0.2613516997953411, 0.2768205772154033, 0.2946753733995138, 0.31153415943845175, 0.3266760396800237, 0.3448407663818216, 0.3614097605604911, 0.37672776872932445, 0.394714660855243, 0.41161850285425317, 0.4265163298987318, 0.44475341922952794, 0.4614285680290777, 0.47677422416745685, 0.4945723590499256, 0.511544467692147, 0.5265682466706494, 0.5448169413284631, 0.5614272368256934, 0.5767254476522794, 0.5945334812131478, 0.6115513284894405, 0.6265481421432924, 0.6448135621321853, 0.6613330630061682, 0.6768227617430966, 0.6947560645639896, 0.711636354579241, 0.7265611469483702, 0.7448528495733626, 0.761169598554261, 0.7768012918822933, 0.794706605389365, 0.8114162288256921, 0.8265335330943344, 0.844688019802561, 0.8612529179808917, 0.8767095073999371, 0.894577615588787, 0.9114927215850912, 0.9264280952775152, 0.9448201498598792, 0.9613427227304783, 0.9768075041502016, 0.9946121243701782, 1.011505726390169, 1.026562956001726, 1.044694573385641, 1.0611809649562929, 1.0768235809373436, 1.0946264944941504, 1.1115357978414977]
20	骆驼	True	inanimate	animate	right	1.026	[0.0, 0.0, 0.0, 0.0, 0.0, 0.0, 0.0, 0.0, 0.0, 0.0, 0.0, 0.0, 0.0, 0.0, 0.0, 0.0, 0.0, 0.0, 0.0, 0.0, 0.0, 0.0, 0.0, 0.0, 0.0, 0.0, 0.0, 0.0, 0.0, 0.0, 0.0, 0.0, -1.0, -1.0, -2.0, -2.0, -2.0, -2.0, -2.0, -2.0, -2.0, -1.0, -1.0, -1.0, 0.0, 0.0, 0.0, 1.0, 4.0, 11.0, 18.0, 33.0, 64.0, 111.0, 166.0, 250.0, 448.0, 522.0, 728.0, 829.0, 874.0, 883.0]	[-490.0, -490.0, -490.0, -490.0, -490.0, -490.0, -490.0, -490.0, -490.0, -490.0, -490.0, -490.0, -490.0, -490.0, -490.0, -490.0, -490.0, -490.0, -490.0, -490.0, -490.0, -490.0, -490.0, -490.0, -490.0, -490.0, -490.0, -490.0, -490.0, -490.0, -490.0, -490.0, -490.0, -490.0, -494.0, -495.0, -495.0, -495.0, -495.0, -495.0, -495.0, -495.0, -495.0, -495.0, -494.0, -494.0, -494.0, -492.0, -488.0, -477.0, -463.0, -423.0, -330.0, -220.0, -114.0, 13.0, 237.0, 302.0, 427.0, 475.0, 499.0, 504.0]	[0.009133460931479931, 0.013967079794383608, 0.01896419722470455, 0.035087068972643465, 0.051493929902790114, 0.0669320873421384, 0.0848718754859874, 0.10174260818166658, 0.1166486272122711, 0.1349935778271174, 0.15154414001153782, 0.16688433483068366, 0.18482070964819286, 0.20167301034962293, 0.21666402133996598, 0.23500282794702798, 0.2515066275082063, 0.26691543028573506, 0.28486818909004796, 0.3016583671560511, 0.31645686624688096, 0.33498545408656355, 0.35148549897712655, 0.3668704084411729, 0.38488460720691364, 0.40164406529220287, 0.41642447373305913, 0.4348510029667523, 0.4514664184534922, 0.4668468905874761, 0.4848556280339835, 0.501671406076639, 0.5165641131316079, 0.5349885943578556, 0.551588308531791, 0.5668902740289923, 0.5848792141478043, 0.6016891895415029, 0.6165006592927966, 0.634930260523106, 0.6516115533158882, 0.6669121534796432, 0.6848242936393945, 0.7016540663607884, 0.7166826239990769, 0.735010849282844, 0.7512968782684766, 0.7668394836509833, 0.7848878157383297, 0.8016370338300476, 0.8167686740926001, 0.8349538807815406, 0.8514785016450332, 0.8668907177634537, 0.8846857806493063, 0.9015565133449854, 0.9165195350215072, 0.9348566349653993, 0.9513628238346428, 0.9669163518847199, 0.9848906146798981, 1.001656899417867]
21	河流	False	inanimate	animate	left	1.619	[0.0, 0.0, 0.0, 0.0, 0.0, 0.0, 0.0, 0.0, 0.0, 0.0, 0.0, 0.0, 2.0, 2.0, 2.0, 2.0, 2.0, 2.0, 2.0, 3.0, 3.0, 3.0, 3.0, 3.0, 3.0, 3.0, 3.0, 3.0, 3.0, 5.0, 5.0, 5.0, 5.0, 5.0, 5.0, 5.0, 5.0, 5.0, 5.0, 5.0, 5.0, 5.0, 5.0, 5.0, 5.0, 5.0, 5.0, 8.0, 16.0, 40.0, 45.0, 37.0, -20.0, -148.0, -336.0, -575.0, -758.0, -882.0, -946.0, -960.0, -960.0, -960.0, -960.0, -960.0, -960.0, -960.0, -960.0, -960.0, -960.0, -949.0, -918.0, -864.0, -787.0, -650.0, -553.0, -461.0, -384.0, -333.0, -300.0, -271.0, -264.0, -255.0, -248.0, -248.0, -248.0, -256.0, -288.0, -359.0, -467.0, -588.0, -697.0, -774.0, -813.0, -823.0, -823.0, -823.0, -823.0, -823.0]	[-490.0, -490.0, -490.0, -490.0, -490.0, -490.0, -490.0, -490.0, -490.0, -490.0, -490.0, -490.0, -490.0, -490.0, -490.0, -490.0, -490.0, -490.0, -490.0, -490.0, -490.0, -490.0, -490.0, -490.0, -490.0, -490.0, -490.0, -490.0, -490.0, -490.0, -490.0, -490.0, -490.0, -490.0, -490.0, -490.0, -490.0, -490.0, -490.0, -490.0, -490.0, -490.0, -490.0, -490.0, -490.0, -490.0, -489.0, -477.0, -464.0, -382.0, -299.0, -210.0, -107.0, 12.0, 136.0, 270.0, 399.0, 500.0, 540.0, 540.0, 540.0, 540.0, 540.0, 540.0, 540.0, 540.0, 540.0, 540.0, 540.0, 531.0, 507.0, 469.0, 414.0, 311.0, 222.0, 136.0, 45.0, -29.0, -89.0, -158.0, -178.0, -210.0, -235.0, -253.0, -257.0, -257.0, -228.0, -144.0, -5.0, 142.0, 268.0, 351.0, 390.0, 405.0, 407.0, 408.0, 408.0, 408.0]	[0.01464428476174362, 0.019256719737313688, 0.02731627828325145, 0.04568682887475006, 0.06252479358226992, 0.07749259391857777, 0.09584402985638008, 0.11230994142533746, 0.1276887068815995, 0.14568310834874865, 0.16245553709450178, 0.17751071871316526, 0.19583689598948695, 0.21213862631702796, 0.2277051250130171, 0.24570669446256943, 0.2625310058501782, 0.27751211817667354, 0.295808599476004, 0.3122963563655503, 0.32776079645555, 0.345678056604811, 0.36247267201542854, 0.377510104313842, 0.39587314557866193, 0.41218511589977425, 0.42770314528024755, 0.4457176853902638, 0.4626594153814949, 0.4775330077682156, 0.4958076437469572, 0.5124196459073573, 0.5277468700660393, 0.5457235221838346, 0.5625130175903905, 0.5774954952503322, 0.5957810538966442, 0.6123138667608146, 0.6276871708832914, 0.6456740630092099, 0.6625683477031998, 0.6775081587111345, 0.6959411732823355, 0.7122196929412894, 0.7277465969964396, 0.7456676118163159, 0.7624263872421579, 0.7775218461756594, 0.7958405141253024, 0.8122859457071172, 0.8277196658018511, 0.8456577472825302, 0.8624301760282833, 0.8775652296171756, 0.89576511362975, 0.9122142998821801, 0.927643923976575, 0.9455420694866916, 0.962357847543899, 0.9775662877509603, 0.9957221397926332, 1.0122317420027684, 1.0277016434120014, 1.0455250369559508, 1.06241351897188, 1.0774854259216227, 1.0958283285290236, 1.112187744161929, 1.1276975815562764, 1.1456786710041342, 1.162402971778647, 1.1774902387260227, 1.1957734080351656, 1.2122584342578193, 1.2277290183410514, 1.2455309078795835, 1.2624146112357266, 1.277523040844244, 1.2957072235294618, 1.3120550338207977, 1.3276570311718388, 1.3456333419744624, 1.3623914347263053, 1.3775049843097804, 1.3956625430146232, 1.4122581611882197, 1.4276956359535689, 1.4454367682046723, 1.4624341354938224, 1.4774841971229762, 1.4956690624821931, 1.5120353047677781, 1.5276710940961493, 1.5455791382555617, 1.5623805803334108, 1.5774879859236535, 1.5957162005943246, 1.6122042988135945]
22	钉子	False	animate	inanimate	right	1.132	[0.0, 0.0, 0.0, 0.0, 0.0, 0.0, 0.0, 0.0, 0.0, 0.0, 0.0, 0.0, 0.0, 0.0, 0.0, 0.0, 0.0, 0.0, 0.0, 0.0, 0.0, 0.0, 0.0, 0.0, 0.0, 0.0, 0.0, 0.0, 0.0, 0.0, 0.0, 0.0, 0.0, 0.0, 0.0, 0.0, 0.0, 0.0, 0.0, 0.0, 0.0, 0.0, 0.0, 0.0, 0.0, 0.0, 0.0, 0.0, 0.0, 0.0, 0.0, 0.0, -6.0, -11.0, -17.0, -24.0, -24.0, -24.0, -13.0, 28.0, 110.0, 233.0, 381.0, 535.0, 686.0, 825.0, 914.0, 937.0, 937.0]	[-490.0, -490.0, -490.0, -490.0, -490.0, -490.0, -490.0, -490.0, -490.0, -490.0, -490.0, -490.0, -490.0, -490.0, -490.0, -490.0, -490.0, -490.0, -490.0, -490.0, -490.0, -490.0, -490.0, -490.0, -490.0, -490.0, -490.0, -490.0, -490.0, -490.0, -490.0, -490.0, -490.0, -490.0, -490.0, -490.0, -490.0, -490.0, -490.0, -490.0, -490.0, -490.0, -490.0, -490.0, -490.0, -490.0, -490.0, -490.0, -490.0, -490.0, -490.0, -490.0, -489.0, -487.0, -485.0, -478.0, -468.0, -456.0, -382.0, -290.0, -178.0, -31.0, 131.0, 285.0, 414.0, 499.0, 537.0, 540.0, 540.0]	[0.007897152230725624, 0.012434152566129342, 0.016649617071379907, 0.03266599288326688, 0.04929369637102354, 0.06446356592641678, 0.08222244749777019, 0.09928603343723807, 0.11423540177929681, 0.13252471508167218, 0.14897833866416477, 0.1645287947030738, 0.18234638556896243, 0.19925295824941713, 0.2142446519137593, 0.23250938922865316, 0.2489077168283984, 0.26445987953047734, 0.2824983129685279, 0.29928268837102223, 0.3142682380275801, 0.33255174866644666, 0.3490889988752315, 0.36449507098586764, 0.3823584005003795, 0.3992721411777893, 0.41426451750157867, 0.4324992174952058, 0.4489743450540118, 0.4644927157787606, 0.4824287492665462, 0.4992858286277624, 0.5141761463455623, 0.5325709315948188, 0.5490720004745526, 0.5645507765584625, 0.5823898714152165, 0.5991960921528516, 0.614281993752229, 0.6325293230765965, 0.6488853253686102, 0.6645450080250157, 0.68239673221251, 0.6992824835760985, 0.7142499425681308, 0.7325529092049692, 0.7490819674130762, 0.764519783508149, 0.7823769690294284, 0.8053647332562832, 0.81421345405397, 0.8325549913279247, 0.8488922202959657, 0.8645290336280596, 0.8824032858101418, 0.899215991870733, 0.914298138814047, 0.9325533187948167, 0.9488867931067944, 0.9644529504730599, 0.9824463279219344, 0.9991402500454569, 1.014138429032755, 1.0323946330172475, 1.0489093552314444, 1.0644239712855779, 1.082475716713816, 1.0992020654812222, 1.114247348436038]
23	海鸥	True	inanimate	animate	right	0.957	[0.0, 0.0, 0.0, 0.0, 0.0, 0.0, 0.0, 0.0, 0.0, 0.0, 0.0, 0.0, 0.0, 0.0, 0.0, 0.0, 0.0, 0.0, 0.0, 0.0, 0.0, 0.0, 0.0, 0.0, 0.0, 0.0, 0.0, 0.0, 0.0, 0.0, 0.0, 0.0, 0.0, 0.0, 0.0, 0.0, 0.0, 0.0, 0.0, 0.0, 0.0, 0.0, 0.0, 0.0, -1.0, -1.0, 2.0, 16.0, 52.0, 119.0, 216.0, 330.0, 499.0, 591.0, 642.0, 666.0, 673.0, 674.0]	[-490.0, -490.0, -490.0, -490.0, -490.0, -490.0, -490.0, -490.0, -490.0, -490.0, -490.0, -490.0, -490.0, -490.0, -490.0, -490.0, -490.0, -490.0, -490.0, -490.0, -490.0, -490.0, -490.0, -490.0, -490.0, -490.0, -490.0, -490.0, -490.0, -490.0, -490.0, -490.0, -490.0, -490.0, -490.0, -490.0, -490.0, -490.0, -490.0, -490.0, -490.0, -490.0, -490.0, -490.0, -487.0, -474.0, -450.0, -408.0, -322.0, -209.0, -63.0, 83.0, 301.0, 406.0, 450.0, 467.0, 469.0, 471.0]	[0.007924800214823335, 0.01302329360623844, 0.017127824830822647, 0.03268613154068589, 0.04887385659094434, 0.06452500590239652, 0.08237536477099638, 0.09920582015183754, 0.11422755112289451, 0.13248409643711057, 0.1490537732897792, 0.16446564806392416, 0.18220302565896418, 0.199178888957249, 0.21400230536528397, 0.23250665856176056, 0.2491159300552681, 0.26448172486561816, 0.2823180890554795, 0.2991792644315865, 0.3142876940255519, 0.3325636953377398, 0.34907056688098237, 0.36449199898925144, 0.38239970181894023, 0.39919568254845217, 0.41423140818369575, 0.43252686549385544, 0.4491316996573005, 0.4646647477056831, 0.4823905199591536, 0.49917933269171044, 0.5142563596455147, 0.5325569369451841, 0.5490388911712216, 0.5644869472598657, 0.5823519834375475, 0.5992203268106095, 0.6143990710406797, 0.6324996270996053, 0.6490949039434781, 0.6644129120977595, 0.6823905882192776, 0.6992056836170377, 0.7143253772082971, 0.7325457412080141, 0.7492219140112866, 0.7643921249109553, 0.7823165530571714, 0.7991480324417353, 0.8142417847120669, 0.8324269914010074, 0.8489912069198908, 0.8644542816764442, 0.8822213552484754, 0.8991484079160728, 0.9143705014430452, 0.9324976814968977]
24	黑板	False	inanimate	animate	left	0.98	[0.0, 0.0, 0.0, 0.0, 0.0, 0.0, 0.0, 0.0, 0.0, 0.0, 0.0, 0.0, 0.0, 0.0, 0.0, 0.0, 0.0, 0.0, 0.0, 0.0, 0.0, 0.0, 0.0, 0.0, 0.0, 0.0, 0.0, 0.0, 0.0, 0.0, 0.0, 0.0, 0.0, 0.0, 0.0, 0.0, 0.0, 0.0, 0.0, 0.0, 0.0, 1.0, 1.0, 1.0, 1.0, 0.0, -2.0, -9.0, -15.0, -62.0, -141.0, -268.0, -418.0, -574.0, -697.0, -775.0, -814.0, -827.0, -830.0, -831.0]	[-490.0, -490.0, -490.0, -490.0, -490.0, -490.0, -490.0, -490.0, -490.0, -489.0, -489.0, -489.0, -489.0, -489.0, -489.0, -489.0, -489.0, -489.0, -489.0, -489.0, -489.0, -489.0, -489.0, -489.0, -489.0, -489.0, -489.0, -489.0, -489.0, -489.0, -489.0, -489.0, -489.0, -489.0, -489.0, -489.0, -489.0, -489.0, -489.0, -489.0, -489.0, -487.0, -481.0, -475.0, -470.0, -465.0, -460.0, -449.0, -438.0, -362.0, -238.0, -47.0, 140.0, 315.0, 455.0, 540.0, 540.0, 540.0, 540.0, 540.0]	[0.014878439324093051, 0.021693497168598697, 0.02806857657560613, 0.04662890839972533, 0.06300095334881917, 0.0785544813843444, 0.0962928829685552, 0.11315337567066308, 0.12815667466202285, 0.14647500128194224, 0.16295866217114963, 0.17846372090571094, 0.19615604251157492, 0.21314521781459916, 0.22819493811402936, 0.2464272487704875, 0.26303344826737884, 0.27849276835331693, 0.29627349524525926, 0.31311111863760743, 0.3281314842752181, 0.346425234907656, 0.3630362130643334, 0.3784535491722636, 0.39632097468711436, 0.41318078472977504, 0.4279413958429359, 0.44643823969818186, 0.4630150845478056, 0.47844266064930707, 0.49628789951384533, 0.5131552188686328, 0.5281465712032514, 0.5464338364981813, 0.5629994173505111, 0.5784358681121375, 0.5963104616384953, 0.6131579836801393, 0.6282230639626505, 0.6464413799694739, 0.6630315368092852, 0.6784004036016995, 0.6963077651016647, 0.713176791134174, 0.7281517594674369, 0.7464137661154382, 0.7630087016150355, 0.7783717657439411, 0.7961296233261237, 0.8131600999331567, 0.828170225591748, 0.846428477569134, 0.8629452477762243, 0.878514477139106, 0.8961924627656117, 0.9130570514535066, 0.9282712943386286, 0.9464097383752232, 0.9629265085968655, 0.9784100633260095]
25	皇帝	True	animate	inanimate	left	2.001	[0.0, 1.0, 1.0, 1.0, 2.0, 2.0, 2.0, 2.0, 2.0, 2.0, 2.0, 2.0, 2.0, 2.0, 2.0, 2.0, 2.0, 2.0, 2.0, 2.0, 2.0, 2.0, 2.0, 2.0, 2.0, 2.0, 2.0, 2.0, 2.0, 2.0, 2.0, 2.0, 2.0, 2.0, 2.0, 2.0, 2.0, 2.0, 2.0, 2.0, 2.0, 2.0, 2.0, 2.0, 2.0, 2.0, 2.0, 2.0, 2.0, 2.0, 2.0, 2.0, 2.0, 2.0, 2.0, 2.0, 2.0, 2.0, 2.0, 2.0, 2.0, 2.0, 2.0, 2.0, 2.0, 5.0, 20.0, 73.0, 168.0, 303.0, 461.0, 690.0, 761.0, 908.0, 945.0, 953.0, 953.0, 953.0, 953.0, 953.0, 953.0, 953.0, 953.0, 953.0, 953.0, 953.0, 953.0, 953.0, 953.0, 953.0, 953.0, 953.0, 953.0, 953.0, 953.0, 953.0, 953.0, 944.0, 927.0, 918.0, 917.0, 917.0, 917.0, 917.0, 917.0, 917.0, 915.0, 880.0, 841.0, 591.0, 319.0, -1.0, -289.0, -527.0, -670.0, -735.0, -751.0, -753.0, -753.0, -753.0, -753.0]	[-490.0, -489.0, -489.0, -489.0, -489.0, -489.0, -489.0, -489.0, -489.0, -488.0, -488.0, -488.0, -488.0, -488.0, -488.0, -488.0, -488.0, -488.0, -488.0, -488.0, -488.0, -488.0, -488.0, -488.0, -488.0, -488.0, -488.0, -487.0, -486.0, -486.0, -486.0, -486.0, -486.0, -486.0, -486.0, -486.0, -486.0, -486.0, -486.0, -486.0, -486.0, -486.0, -486.0, -486.0, -486.0, -486.0, -486.0, -486.0, -486.0, -486.0, -486.0, -486.0, -486.0, -486.0, -486.0, -486.0, -486.0, -486.0, -486.0, -486.0, -486.0, -486.0, -486.0, -485.0, -481.0, -474.0, -454.0, -381.0, -238.0, -20.0, 199.0, 476.0, 540.0, 540.0, 540.0, 540.0, 540.0, 540.0, 540.0, 540.0, 540.0, 540.0, 540.0, 540.0, 540.0, 540.0, 540.0, 540.0, 540.0, 540.0, 540.0, 540.0, 540.0, 540.0, 540.0, 540.0, 540.0, 535.0, 525.0, 520.0, 520.0, 520.0, 520.0, 520.0, 520.0, 520.0, 519.0, 513.0, 507.0, 499.0, 499.0, 499.0, 499.0, 499.0, 499.0, 499.0, 499.0, 499.0, 499.0, 499.0, 499.0]	[0.007963029536767863, 0.012832147040171549, 0.017408742030966096, 0.032894003437832, 0.04925102973356843, 0.06475404046068434, 0.08257709266035818, 0.09937307340442203, 0.11444054302410223, 0.13268036302179098, 0.14931182116561104, 0.1646960479556583, 0.18255903614044655, 0.1993556995439576, 0.21448665713251103, 0.23271009312884416, 0.24913538605323993, 0.26465136744081974, 0.2825133316364372, 0.2994212696503382, 0.3144566539413063, 0.33271217526635155, 0.34922416681365576, 0.3646415029215859, 0.3825300910975784, 0.39937010379799176, 0.41444678942207247, 0.4326374574302463, 0.44927403557812795, 0.4645961397473002, 0.4823659439716721, 0.49943499123037327, 0.514464914202108, 0.5326757208822528, 0.549214336409932, 0.5646340618550312, 0.5825752153323265, 0.5994005507236579, 0.6144335456920089, 0.6327484589855885, 0.649085346609354, 0.6646183946577366, 0.6825592068053083, 0.6994121901807375, 0.7144178784947144, 0.7327184557943838, 0.74919017002685, 0.7646771380968858, 0.7825643609394319, 0.7993862829898717, 0.8145991605415475, 0.8326734339498216, 0.8492079534917139, 0.8647198388789548, 0.8825415257451823, 0.8993487704865402, 0.9143913227744633, 0.932626364112366, 0.9492472409328911, 0.9646273717225995, 0.9825879811978666, 0.9993290072889067, 1.0144811275386019, 1.0327591768436832, 1.0492506884038448, 1.0645499232341535, 1.0825275993556716, 1.09932323875546, 1.1144207456964068, 1.1325864964019274, 1.1491206745995441, 1.164574533351697, 1.1825423108239193, 1.1994266968395095, 1.214494849118637, 1.2326978051423794, 1.249229594002827, 1.2646220127935521, 1.2825696516083553, 1.299424682976678, 1.3144580192747526, 1.332667460621451, 1.3491818415059242, 1.3646176095935516, 1.3825642244046321, 1.3993366531503852, 1.4144126561004668, 1.4326326787704602, 1.4491948462964501, 1.4646135477378266, 1.4824249946104828, 1.4993575086118653, 1.5144420448923483, 1.5326473902387079, 1.5490252378513105, 1.5646893578232266, 1.5825161646935157, 1.5994346840307117, 1.614438324351795, 1.6326525443582796, 1.649252258532215, 1.6645985973445931, 1.6826445400947705, 1.6993937581864884, 1.714436651818687, 1.7326218585076276, 1.7492048473504838, 1.7645965834672097, 1.7824271450081142, 1.7993111896939809, 1.8142417847266188, 1.8325355353590567, 1.8491867908305721, 1.8645990069344407, 1.8824316164682386, 1.8992453465325525, 1.9143814241106156, 1.932581990797189, 1.949152350309305, 1.9646372703864472, 1.9824115119554335]
26	农民	True	animate	inanimate	left	1.068	[0.0, 0.0, 0.0, 0.0, 1.0, 1.0, 1.0, 1.0, 1.0, 1.0, 1.0, 1.0, 1.0, 1.0, 1.0, 1.0, 2.0, 2.0, 4.0, 5.0, 6.0, 9.0, 13.0, 20.0, 27.0, 33.0, 40.0, 47.0, 56.0, 69.0, 91.0, 145.0, 189.0, 223.0, 324.0, 377.0, 414.0, 435.0, 449.0, 460.0, 462.0, 462.0, 462.0, 463.0, 463.0, 463.0, 455.0, 424.0, 343.0, 205.0, 18.0, -191.0, -369.0, -509.0, -614.0, -682.0, -699.0, -706.0, -717.0, -722.0, -727.0, -734.0, -741.0, -743.0, -743.0]	[-490.0, -490.0, -490.0, -490.0, -491.0, -491.0, -491.0, -491.0, -491.0, -491.0, -491.0, -490.0, -490.0, -489.0, -486.0, -484.0, -482.0, -479.0, -474.0, -465.0, -454.0, -440.0, -423.0, -405.0, -387.0, -371.0, -356.0, -341.0, -321.0, -299.0, -253.0, -147.0, -62.0, -21.0, 82.0, 134.0, 173.0, 191.0, 202.0, 211.0, 213.0, 213.0, 213.0, 214.0, 214.0, 219.0, 230.0, 237.0, 237.0, 237.0, 250.0, 284.0, 315.0, 349.0, 379.0, 402.0, 413.0, 417.0, 425.0, 429.0, 430.0, 433.0, 433.0, 433.0, 433.0]	[0.013593319978099316, 0.01960351422894746, 0.02549219389038626, 0.04399415774969384, 0.060408186676795594, 0.07582552278472576, 0.0936574496445246, 0.11061249164049514, 0.12550178534002043, 0.14381260263326112, 0.16038944748288486, 0.1757354449655395, 0.19375339840189554, 0.21052275515103247, 0.22556291811633855, 0.2437843061197782, 0.26036285763257183, 0.2757368444290478, 0.2937278325407533, 0.31053849060845096, 0.3253294803726021, 0.3438188149011694, 0.3603792757494375, 0.37575053187902085, 0.3937329866748769, 0.4104716234432999, 0.4255558183795074, 0.44373761174210813, 0.4604014965443639, 0.47573213402938563, 0.49364666352630593, 0.5104866762267193, 0.5253524179570377, 0.5437178485590266, 0.5602800160704646, 0.5758038481289987, 0.5936255349952262, 0.6104931956942892, 0.6255261906626401, 0.6437468960066326, 0.6603438795136753, 0.6757475622871425, 0.6934572918835329, 0.7104631925176363, 0.7255497767910128, 0.7437032394955168, 0.7602722336741863, 0.7758005030627828, 0.7936443765938748, 0.8104488906537881, 0.8254846162890317, 0.8436940576357301, 0.8601879585185088, 0.8757408038945869, 0.8933416482177563, 0.9104690634412691, 0.9255477970582433, 0.943724811746506, 0.9601449846813921, 0.9757131900405511, 0.9936239648668561, 1.0104411082575098, 1.0254983378836187, 1.0437808245187625, 1.0600231628777692]
27	病人	True	animate	inanimate	left	1.099	[0.0, 0.0, 0.0, 0.0, 0.0, 0.0, 0.0, 0.0, 0.0, 0.0, 0.0, 0.0, 0.0, 0.0, 0.0, 0.0, 0.0, 0.0, 0.0, 0.0, 4.0, 11.0, 24.0, 46.0, 75.0, 106.0, 139.0, 186.0, 233.0, 328.0, 371.0, 519.0, 611.0, 689.0, 735.0, 767.0, 781.0, 785.0, 785.0, 785.0, 785.0, 785.0, 785.0, 782.0, 757.0, 661.0, 510.0, 302.0, 91.0, -107.0, -255.0, -363.0, -448.0, -476.0, -482.0, -486.0, -489.0, -503.0, -536.0, -603.0, -666.0, -721.0, -757.0, -777.0, -779.0, -779.0, -779.0]	[-490.0, -490.0, -490.0, -490.0, -490.0, -490.0, -490.0, -490.0, -490.0, -490.0, -490.0, -490.0, -490.0, -490.0, -490.0, -490.0, -490.0, -490.0, -490.0, -490.0, -489.0, -483.0, -470.0, -448.0, -407.0, -353.0, -311.0, -257.0, -210.0, -134.0, -105.0, -14.0, 46.0, 98.0, 137.0, 170.0, 196.0, 219.0, 238.0, 254.0, 268.0, 298.0, 308.0, 336.0, 349.0, 364.0, 364.0, 358.0, 349.0, 347.0, 347.0, 347.0, 354.0, 362.0, 363.0, 364.0, 366.0, 368.0, 374.0, 379.0, 383.0, 390.0, 396.0, 400.0, 400.0, 400.0, 400.0]	[0.014332988939713687, 0.020490297785727307, 0.02672235859790817, 0.04541512769355904, 0.061933604563819245, 0.07741238063317724, 0.09527605149196461, 0.11206793623568956, 0.12716373649891466, 0.14533972719800659, 0.16196231068170164, 0.1773567774653202, 0.19525014430109877, 0.21204885571205523, 0.22723067193874158, 0.2454093932901742, 0.26178689957305323, 0.2772547529893927, 0.29524574110109825, 0.3120734658295987, 0.32720715407049283, 0.34535549678548705, 0.361725835071411, 0.37734660574642476, 0.39510924197384156, 0.4120325399853755, 0.42710410559084266, 0.4453388055990217, 0.46188936778344214, 0.47739510917745065, 0.4951853934035171, 0.5120745580934454, 0.5270908277307171, 0.5453931116935564, 0.5620344685157761, 0.5773490633437177, 0.59512979023566, 0.6120169069181429, 0.6271273845195537, 0.6453241965355119, 0.6617761134402826, 0.6773398814693792, 0.6951837550004711, 0.711977346407366, 0.7271007946692407, 0.7452528920402983, 0.7616658969636774, 0.7772139636799693, 0.7951127918495331, 0.8120224365120521, 0.8271359861100791, 0.8452744301612256, 0.8616782190947561, 0.8772925044322619, 0.8951428633008618, 0.911991068001953, 0.9268516897282097, 0.9450877550552832, 0.9618308291537687, 0.9773010718927253, 0.9950981827860232, 1.0119422914867755, 1.0271278623840772, 1.045310338406125, 1.0618223299534293, 1.0773482100048568, 1.0952524995082058]
28	蜻蜓	True	animate	inanimate	left	1.083	[0.0, 0.0, 0.0, 0.0, 0.0, 0.0, 0.0, 0.0, 0.0, 0.0, 0.0, 0.0, 0.0, 0.0, 0.0, 0.0, 0.0, 0.0, 0.0, 0.0, 0.0, 0.0, 0.0, 0.0, 0.0, 0.0, 0.0, 0.0, 0.0, 0.0, 0.0, 0.0, 0.0, 0.0, 0.0, 0.0, 0.0, 0.0, 0.0, 0.0, 0.0, 0.0, 0.0, 0.0, 0.0, 0.0, 0.0, 0.0, 0.0, -21.0, -63.0, -139.0, -228.0, -325.0, -413.0, -510.0, -601.0, -680.0, -734.0, -784.0, -836.0, -877.0, -887.0, -892.0, -896.0, -898.0]	[-490.0, -490.0, -490.0, -490.0, -490.0, -490.0, -490.0, -490.0, -490.0, -490.0, -490.0, -490.0, -490.0, -490.0, -490.0, -490.0, -490.0, -490.0, -490.0, -490.0, -490.0, -490.0, -490.0, -490.0, -490.0, -490.0, -490.0, -490.0, -490.0, -490.0, -490.0, -491.0, -491.0, -491.0, -491.0, -491.0, -491.0, -491.0, -491.0, -491.0, -491.0, -491.0, -491.0, -491.0, -491.0, -491.0, -491.0, -491.0, -491.0, -463.0, -415.0, -343.0, -264.0, -175.0, -87.0, 36.0, 146.0, 225.0, 285.0, 353.0, 434.0, 485.0, 502.0, 514.0, 527.0, 531.0]	[0.014866151337628253, 0.01995474606519565, 0.027837152694701217, 0.04620667929702904, 0.0630326973478077, 0.07805818298947997, 0.09632940562732983, 0.1127628905524034, 0.1282587332825642, 0.1459705108864, 0.16296924350899644, 0.17783600922848564, 0.19622703982167877, 0.21281685533176642, 0.2282502340967767, 0.2459920490073273, 0.2629699603130575, 0.2779732593044173, 0.29623867927875835, 0.3128114281280432, 0.32823422556975856, 0.34613953906227835, 0.3629897917708149, 0.37792072811862454, 0.39628103873110376, 0.41279473694157787, 0.42822606769914273, 0.44618497051123995, 0.4629717352509033, 0.47798322622838896, 0.49631486483849585, 0.5127097791119013, 0.5281929925258737, 0.5461894419713644, 0.5629710867069662, 0.5780102256831015, 0.5962329790199874, 0.6128330345236463, 0.6282114586501848, 0.6461532947869273, 0.6629789715079824, 0.6777791772619821, 0.6961476798605872, 0.7127893780125305, 0.7282053487870144, 0.7461447956011398, 0.7629766163154272, 0.7780283846077509, 0.7963136019097874, 0.812633422887302, 0.8282647748856107, 0.846139027067693, 0.8629094078060007, 0.8779942854162073, 0.8963375293678837, 0.9126566676713992, 0.9282613956893329, 0.9461332585342461, 0.9629456232651137, 0.9780171888705809, 0.9962307262176182, 1.0126949311234057, 1.028164491202915, 1.0460834580298979, 1.0629787667130586, 1.0779704603628488]
29	抽屉	False	animate	inanimate	right	1.481	[0.0, 0.0, 0.0, 0.0, 0.0, 0.0, 0.0, 0.0, 0.0, 0.0, 0.0, 0.0, 0.0, 0.0, 0.0, 0.0, 0.0, 0.0, 0.0, 0.0, 0.0, 0.0, 0.0, 0.0, 0.0, 0.0, 0.0, 0.0, 0.0, 0.0, -2.0, -6.0, -8.0, -8.0, -8.0, -8.0, -8.0, -8.0, -8.0, -8.0, -8.0, -8.0, -8.0, -8.0, -8.0, -9.0, -9.0, -9.0, -9.0, -9.0, -12.0, -20.0, -30.0, -35.0, -38.0, -42.0, -42.0, -43.0, -44.0, -47.0, -52.0, -60.0, -67.0, -72.0, -88.0, -96.0, -122.0, -170.0, -194.0, -215.0, -241.0, -260.0, -266.0, -268.0, -268.0, -268.0, -268.0, -266.0, -229.0, -29.0, 191.0, 426.0, 657.0, 829.0, 936.0, 959.0, 959.0, 959.0, 959.0, 959.0]	[-490.0, -490.0, -490.0, -490.0, -490.0, -490.0, -490.0, -490.0, -490.0, -490.0, -490.0, -490.0, -490.0, -490.0, -490.0, -490.0, -490.0, -490.0, -490.0, -490.0, -490.0, -490.0, -490.0, -490.0, -490.0, -490.0, -490.0, -490.0, -490.0, -490.0, -489.0, -489.0, -489.0, -489.0, -489.0, -489.0, -489.0, -489.0, -489.0, -489.0, -489.0, -489.0, -489.0, -489.0, -489.0, -489.0, -489.0, -489.0, -489.0, -489.0, -490.0, -486.0, -480.0, -478.0, -476.0, -474.0, -473.0, -473.0, -473.0, -472.0, -470.0, -469.0, -469.0, -468.0, -460.0, -454.0, -432.0, -394.0, -377.0, -354.0, -314.0, -288.0, -280.0, -278.0, -278.0, -278.0, -277.0, -273.0, -251.0, -114.0, 17.0, 132.0, 234.0, 304.0, 348.0, 375.0, 385.0, 389.0, 390.0, 391.0]	[0.01433367159916088, 0.020222351246047765, 0.027097825062810443, 0.04550080231274478, 0.06176942330785096, 0.077322268683929, 0.0952484035078669, 0.11211708819610067, 0.12711253651650622, 0.14542164714657702, 0.16195616668846924, 0.1773820361122489, 0.1952815469558118, 0.21214511165453587, 0.2270910666702548, 0.24536570264899638, 0.2619664408121025, 0.27732916361128446, 0.2952822637598729, 0.3120918978092959, 0.3271706314262701, 0.3454015767638339, 0.3619948056002613, 0.37738312839064747, 0.39530550854397006, 0.4120820332900621, 0.42709488960099407, 0.44539137090032455, 0.4619743597431807, 0.4773493705288274, 0.4952584386919625, 0.5120875287539093, 0.5270979957276722, 0.5453726317064138, 0.5619842925370904, 0.5773688606568612, 0.5952960194845218, 0.6121356908552116, 0.6270724298810819, 0.645469945797231, 0.6619396120222518, 0.6773712841240922, 0.6951683950173901, 0.7120889623474795, 0.7270799733378226, 0.7453518786496716, 0.7618321262125392, 0.7773897502484033, 0.7952517144294688, 0.8121105004684068, 0.8270421194902156, 0.845361128784134, 0.8619994135951856, 0.8773365364031633, 0.8953360578598222, 0.9121081452758517, 0.927108713585767, 0.9453427309199469, 0.9620591810235055, 0.9773379358812235, 0.9952913773449836, 1.012111934076529, 1.0269500278081978, 1.0453226263925899, 1.061905615235446, 1.0786476653302088, 1.0952729794953484, 1.1121194775332697, 1.1271487178310053, 1.1454011671594344, 1.1619739160087192, 1.1773700894555077, 1.1952665282879025, 1.212065239698859, 1.2271439733012812, 1.2453175746632041, 1.2619302594976034, 1.2772707956464728, 1.2952017091301968, 1.3119898392033065, 1.3269487648794893, 1.3453094168071402, 1.3616599577653687, 1.3773571870697197, 1.3953515885223169, 1.4121185559342848, 1.4270959136047168, 1.4454340375377797, 1.4620057623978937, 1.4772848585707834]
30	孕妇	True	inanimate	animate	right	1.345	[0.0, 0.0, 0.0, 0.0, 0.0, 0.0, 0.0, 0.0, 2.0, 3.0, 6.0, 9.0, 12.0, 16.0, 16.0, 16.0, 16.0, 16.0, 16.0, 16.0, 16.0, 16.0, 16.0, 16.0, 16.0, 16.0, 16.0, 16.0, 16.0, 16.0, 16.0, 16.0, 16.0, 16.0, 16.0, 16.0, 16.0, 16.0, 16.0, 16.0, 16.0, 18.0, 28.0, 53.0, 61.0, 64.0, 71.0, 85.0, 115.0, 164.0, 245.0, 373.0, 575.0, 627.0, 732.0, 860.0, 918.0, 937.0, 959.0, 959.0, 959.0, 959.0, 959.0, 959.0, 959.0, 959.0, 959.0, 959.0, 959.0, 959.0, 959.0, 959.0, 959.0, 959.0, 959.0, 959.0, 959.0, 959.0, 959.0, 959.0, 959.0]	[-490.0, -490.0, -490.0, -490.0, -490.0, -490.0, -490.0, -490.0, -494.0, -496.0, -503.0, -509.0, -515.0, -520.0, -524.0, -525.0, -525.0, -525.0, -525.0, -526.0, -526.0, -527.0, -527.0, -527.0, -527.0, -527.0, -527.0, -527.0, -527.0, -527.0, -527.0, -527.0, -527.0, -527.0, -527.0, -527.0, -527.0, -527.0, -527.0, -527.0, -527.0, -527.0, -523.0, -501.0, -488.0, -482.0, -450.0, -401.0, -321.0, -235.0, -129.0, 1.0, 164.0, 206.0, 271.0, 364.0, 404.0, 419.0, 440.0, 448.0, 450.0, 451.0, 451.0, 451.0, 451.0, 451.0, 451.0, 451.0, 451.0, 451.0, 451.0, 451.0, 451.0, 451.0, 451.0, 451.0, 451.0, 451.0, 451.0, 451.0, 451.0]	[0.0004376573779154569, 0.005052823020378128, 0.015738940215669572, 0.03420984274998773, 0.05062079968047328, 0.06600605047424324, 0.08394344929547515, 0.10081281665770803, 0.11579802498454228, 0.13403921031567734, 0.15060752182034776, 0.16602315126510803, 0.18396328075323254, 0.2007961254566908, 0.21574924846936483, 0.2340245671221055, 0.25063964127912186, 0.2659890520881163, 0.2839141629083315, 0.30079445292358287, 0.31576669060450513, 0.3340450812393101, 0.35063387274567503, 0.3660559875133913, 0.3839295570360264, 0.40077332440705504, 0.41571108742209617, 0.43395466209040023, 0.4506380028760759, 0.46598297635500785, 0.4839579218241852, 0.5007808678637957, 0.5157769988582004, 0.5340762108244235, 0.5506260903493967, 0.5660471811133903, 0.5838828626583563, 0.6008423419698374, 0.6156521050579613, 0.6339117223687936, 0.6506421671365388, 0.6660205912630772, 0.6839583314140327, 0.7008027814590605, 0.7157531738048419, 0.7339987964660395, 0.7506084092892706, 0.7660264280711999, 0.7838068136334186, 0.8010451621375978, 0.8157385306112701, 0.8339640146150487, 0.8504814674961381, 0.8659657048992813, 0.8838245970837306, 0.900767692408408, 0.9157587033987511, 0.9340128593903501, 0.9506054055673303, 0.9659456003719242, 0.9839860818028683, 1.0008182438468793, 1.0157669295294909, 1.0340518055018038, 1.0506276263477048, 1.0660145838046446, 1.083744452058454, 1.1007455740182195, 1.1158096303115599, 1.1340730022930074, 1.1505989884899464, 1.1659879939543316, 1.1839410940883681, 1.200820018784725, 1.2156850778410444, 1.2340351484454004, 1.2506891345838085, 1.266027281395509, 1.2839360082289204, 1.3007691942766542, 1.3158308612328256]
31	鳄鱼	True	inanimate	animate	right	1.049	[0.0, 0.0, 0.0, 0.0, 0.0, 0.0, 0.0, 0.0, 0.0, 0.0, 0.0, 0.0, 0.0, 0.0, 0.0, 0.0, 0.0, 0.0, 0.0, 0.0, 0.0, 0.0, 0.0, 0.0, 0.0, 0.0, 0.0, 0.0, 0.0, 0.0, 0.0, 0.0, 0.0, 0.0, 0.0, 0.0, 0.0, 0.0, 0.0, 0.0, 0.0, 0.0, 0.0, 0.0, 0.0, 0.0, 0.0, 6.0, 13.0, 18.0, 20.0, 20.0, 20.0, 20.0, 26.0, 64.0, 156.0, 295.0, 531.0, 658.0, 708.0, 815.0, 840.0, 842.0]	[-490.0, -490.0, -490.0, -490.0, -490.0, -490.0, -490.0, -490.0, -490.0, -490.0, -490.0, -490.0, -490.0, -490.0, -490.0, -490.0, -490.0, -490.0, -490.0, -490.0, -490.0, -490.0, -490.0, -490.0, -490.0, -490.0, -490.0, -490.0, -490.0, -490.0, -490.0, -490.0, -489.0, -489.0, -489.0, -489.0, -489.0, -489.0, -489.0, -489.0, -489.0, -489.0, -489.0, -489.0, -489.0, -489.0, -486.0, -475.0, -462.0, -455.0, -453.0, -453.0, -453.0, -453.0, -444.0, -387.0, -265.0, -98.0, 205.0, 366.0, 419.0, 496.0, 509.0, 511.0]	[0.012277821981115267, 0.01741181401303038, 0.022583352707442828, 0.041024900594493374, 0.05786149996856693, 0.0728668469528202, 0.09114694426534697, 0.10762616782449186, 0.12308924258104526, 0.14097032141580712, 0.1578321794513613, 0.17282660378259607, 0.19108144243364222, 0.20743744472565595, 0.2230414900695905, 0.24103213685157243, 0.257833237585146, 0.2725675660476554, 0.29119411650754046, 0.30767026807006914, 0.3230964788381243, 0.3408034777676221, 0.35783224772603717, 0.372817797382595, 0.3910811693640426, 0.4076907821872737, 0.42305896632024087, 0.44097656781377736, 0.4578128258581273, 0.4728396768332459, 0.4911091928224778, 0.5076167470251676, 0.5230398857966065, 0.54101960992557, 0.5577930626750458, 0.572813769656932, 0.5910901122988435, 0.6074549892509822, 0.6230706399219343, 0.6407595482014585, 0.6578087981324643, 0.67282028910995, 0.6910764930944424, 0.707530116676935, 0.7230911540391389, 0.740893043592223, 0.7578579842374893, 0.7728926858690102, 0.7912792791321408, 0.8076868227217346, 0.8230311135412194, 0.8410425816546194, 0.8578549463709351, 0.8728422027052147, 0.8911270786775276, 0.9076264408940915, 0.9230263690114953, 0.9409422638418619, 0.9576785112731159, 0.9728197088406887, 0.991001843533013, 1.007557525721495, 1.023016163147986, 1.0410498179116985]
32	医生	True	inanimate	animate	right	0.9	[0.0, 0.0, 0.0, 0.0, 0.0, 0.0, 0.0, 0.0, 0.0, 0.0, 0.0, 0.0, 0.0, 0.0, 0.0, 0.0, 0.0, 0.0, 0.0, 0.0, 0.0, 0.0, 0.0, 0.0, 0.0, 0.0, 0.0, 0.0, 0.0, 0.0, 0.0, 0.0, 0.0, 0.0, 0.0, 0.0, 0.0, 0.0, 0.0, 0.0, 0.0, 0.0, 0.0, 6.0, 36.0, 123.0, 255.0, 416.0, 600.0, 755.0, 863.0, 930.0, 958.0, 959.0, 959.0]	[-490.0, -490.0, -490.0, -490.0, -490.0, -490.0, -490.0, -490.0, -490.0, -490.0, -490.0, -490.0, -490.0, -490.0, -490.0, -490.0, -490.0, -490.0, -490.0, -490.0, -490.0, -490.0, -490.0, -490.0, -490.0, -490.0, -490.0, -490.0, -490.0, -490.0, -490.0, -490.0, -490.0, -490.0, -490.0, -490.0, -490.0, -490.0, -490.0, -490.0, -490.0, -490.0, -490.0, -486.0, -460.0, -395.0, -281.0, -113.0, 74.0, 251.0, 395.0, 468.0, 498.0, 504.0, 504.0]	[0.014295442291768268, 0.020334649860160425, 0.02697255580278579, 0.04551035964686889, 0.06189025525236502, 0.07724956472520716, 0.09517774754203856, 0.11203482691780664, 0.12715588584251236, 0.1453735191753367, 0.1618708333990071, 0.1773618974693818, 0.19526174962811638, 0.212020866383682, 0.22704635202535428, 0.24534556399157736, 0.2619111448439071, 0.2771991156769218, 0.29521843446127605, 0.3120461591752246, 0.3271081674611196, 0.34534116079157684, 0.3619145923148608, 0.37728721377789043, 0.3952099352609366, 0.41201717998774257, 0.4271027402719483, 0.4453568962489953, 0.46193032777227927, 0.4773046558984788, 0.4952782360196579, 0.5120622700924287, 0.5270679584209574, 0.5453159704047721, 0.5617405806697207, 0.5773712499940302, 0.5952226328518009, 0.6120349975826684, 0.6271144138590898, 0.6453282925358508, 0.661936198695912, 0.6772791241819505, 0.6952189123257995, 0.7119616450800095, 0.7270891893422231, 0.7452986306889215, 0.7616689689748455, 0.7773849715886172, 0.795074221197865, 0.8119326658925274, 0.8270779594749911, 0.8452737475017784, 0.8618877976550721, 0.8772433524572989, 0.895210447255522]
33	面包	False	animate	inanimate	right	1.173	[0.0, 0.0, 0.0, 0.0, 0.0, 0.0, 0.0, 0.0, 0.0, 0.0, 0.0, 0.0, 0.0, 0.0, 0.0, 0.0, 0.0, 0.0, 0.0, 0.0, 0.0, 0.0, 1.0, 3.0, 3.0, 6.0, 8.0, 8.0, 8.0, 8.0, 8.0, 8.0, 8.0, 8.0, 8.0, 8.0, 8.0, 8.0, 8.0, 8.0, 8.0, 8.0, 8.0, 8.0, 8.0, 8.0, 8.0, 8.0, 9.0, -8.0, -32.0, -79.0, -174.0, -307.0, -462.0, -554.0, -571.0, -572.0, -554.0, -438.0, -348.0, 26.0, 306.0, 558.0, 764.0, 928.0, 959.0, 959.0, 959.0, 959.0]	[-490.0, -490.0, -490.0, -490.0, -490.0, -490.0, -490.0, -490.0, -490.0, -490.0, -490.0, -490.0, -490.0, -490.0, -490.0, -490.0, -490.0, -490.0, -490.0, -490.0, -490.0, -490.0, -490.0, -490.0, -490.0, -490.0, -490.0, -490.0, -490.0, -490.0, -490.0, -490.0, -490.0, -490.0, -490.0, -490.0, -490.0, -490.0, -490.0, -490.0, -490.0, -490.0, -490.0, -490.0, -490.0, -490.0, -490.0, -490.0, -481.0, -391.0, -320.0, -230.0, -118.0, 6.0, 95.0, 124.0, 129.0, 129.0, 129.0, 143.0, 159.0, 219.0, 295.0, 387.0, 464.0, 533.0, 540.0, 540.0, 540.0, 540.0]	[0.00042263871000614017, 0.0054299961484503, 0.015636881595128216, 0.03409105881291907, 0.0504559357650578, 0.06584152788855135, 0.08379121469624806, 0.10060255542339291, 0.11562667573161889, 0.13388424504955765, 0.1505136552004842, 0.1657995780406054, 0.18375028885202482, 0.2006217042217031, 0.21562466186878737, 0.23391943650494795, 0.25043450004886836, 0.2657914201845415, 0.2837615869793808, 0.30056917303591035, 0.3157199279521592, 0.3338897746434668, 0.35046866748598404, 0.3658825902675744, 0.3837831251003081, 0.40062620981188957, 0.4155888901441358, 0.4338741074607242, 0.4504410536465002, 0.4658754564006813, 0.483807393888128, 0.5005740199703723, 0.5156018949492136, 0.5338850642438047, 0.5502922665182268, 0.5659014318516711, 0.5837937746982789, 0.6005709821038181, 0.6156237743998645, 0.6338926077150973, 0.6504250792495441, 0.6658864473283757, 0.6837999528215732, 0.7005771602416644, 0.7156398511870066, 0.7338820605218643, 0.7504636840312742, 0.7658496174844913, 0.7836375123733887, 0.8005724157119403, 0.8157231706136372, 0.8338561533309985, 0.8504234408464981, 0.8658656942716334, 0.8836648531578248, 0.9004949672089424, 0.915658010111656, 0.9338531154644443, 0.9503579390147934, 0.9658124804409454, 0.9836758099554572, 1.000520260000485, 1.0156484869221458, 1.0338555389316753, 1.0504474024346564, 1.0658712238800945, 1.0837471827253466, 1.100589584762929, 1.1156188250752166, 1.133928277035011]
34	老师	True	animate	inanimate	left	1.26	[0.0, 2.0, 2.0, 2.0, 2.0, 3.0, 3.0, 3.0, 3.0, 3.0, 3.0, 3.0, 3.0, 3.0, 4.0, 4.0, 5.0, 5.0, 5.0, 5.0, 7.0, 8.0, 12.0, 14.0, 18.0, 22.0, 24.0, 25.0, 28.0, 28.0, 29.0, 30.0, 30.0, 31.0, 31.0, 32.0, 33.0, 36.0, 37.0, 37.0, 37.0, 37.0, 38.0, 38.0, 38.0, 38.0, 38.0, 39.0, 40.0, 45.0, 57.0, 61.0, 74.0, 88.0, 106.0, 115.0, 116.0, 116.0, 116.0, 116.0, 116.0, 116.0, 116.0, 116.0, 93.0, 47.0, -23.0, -126.0, -272.0, -434.0, -612.0, -739.0, -795.0, -809.0, -815.0, -815.0]	[-490.0, -489.0, -489.0, -489.0, -489.0, -488.0, -488.0, -488.0, -488.0, -488.0, -488.0, -488.0, -488.0, -488.0, -488.0, -488.0, -488.0, -488.0, -487.0, -487.0, -487.0, -485.0, -482.0, -480.0, -478.0, -475.0, -474.0, -474.0, -472.0, -472.0, -471.0, -470.0, -470.0, -469.0, -469.0, -469.0, -468.0, -466.0, -466.0, -465.0, -465.0, -465.0, -465.0, -464.0, -464.0, -464.0, -464.0, -463.0, -462.0, -457.0, -439.0, -434.0, -416.0, -402.0, -391.0, -385.0, -384.0, -384.0, -384.0, -384.0, -384.0, -384.0, -384.0, -383.0, -340.0, -272.0, -181.0, -80.0, 54.0, 195.0, 328.0, 416.0, 458.0, 470.0, 475.0, 475.0]	[0.013853757176548243, 0.02123030806251336, 0.025644769804785028, 0.04478570933861192, 0.06106900767190382, 0.07633479185460601, 0.09433875064132735, 0.1111548700282583, 0.12615680367161985, 0.14449117296317127, 0.16099770317669027, 0.17648023391666356, 0.1943077234463999, 0.2111955228028819, 0.22617868313682266, 0.24447584709560033, 0.26099466531013604, 0.27634783077519387, 0.2941773683123756, 0.31112319430394564, 0.32623981589858886, 0.34455404651816934, 0.36103361142158974, 0.3763929208944319, 0.39431734904064797, 0.4111204977816669, 0.4261992313840892, 0.4444957126834197, 0.4610343282256508, 0.47634516838297714, 0.49428768719371874, 0.5111352092353627, 0.5261907321983017, 0.5443988081970019, 0.5610077383607859, 0.5763342798454687, 0.5943931932706619, 0.6110983793914784, 0.6261757476604544, 0.6444845169608016, 0.6609958258341067, 0.6763223673187895, 0.6942382621491561, 0.7111875014670659, 0.7261402831500163, 0.7444906950840959, 0.7608811720274389, 0.7763418574468233, 0.7943516188970534, 0.8112585329072317, 0.8261365626240149, 0.8444996038888348, 0.8610235420928802, 0.8762961529428139, 0.8943209330464015, 0.9111295431066537, 0.9261533220851561, 0.9444242033932824, 0.9609986589057371, 0.9763282723870361, 0.9945974470319925, 1.011336425130139, 1.026143798881094, 1.0444256028567906, 1.0607761438150192, 1.0763313785137143, 1.094270483998116, 1.1110627100715647, 1.1261714809952537, 1.144333477030159, 1.1608441032440169, 1.176373396636336, 1.1942107848299202, 1.2110572828678414, 1.2261513764824485, 1.2444417137885466]
35	蜜蜂	True	inanimate	animate	right	0.91	[0.0, 0.0, 0.0, 0.0, 0.0, 0.0, 0.0, 0.0, 0.0, 0.0, 0.0, 0.0, 0.0, 0.0, 0.0, 0.0, 0.0, 0.0, 0.0, 0.0, 0.0, 0.0, 0.0, 0.0, 0.0, 0.0, 0.0, 0.0, 0.0, 0.0, 0.0, 0.0, 0.0, 0.0, 0.0, 0.0, 0.0, 0.0, 0.0, 0.0, 0.0, 0.0, 0.0, 0.0, 34.0, 76.0, 289.0, 468.0, 645.0, 785.0, 881.0, 941.0, 959.0, 959.0, 959.0]	[-490.0, -490.0, -490.0, -490.0, -490.0, -490.0, -490.0, -490.0, -490.0, -490.0, -490.0, -490.0, -490.0, -490.0, -490.0, -490.0, -490.0, -490.0, -490.0, -490.0, -490.0, -490.0, -490.0, -490.0, -490.0, -490.0, -490.0, -490.0, -490.0, -490.0, -490.0, -490.0, -490.0, -490.0, -490.0, -490.0, -490.0, -490.0, -490.0, -490.0, -490.0, -490.0, -490.0, -487.0, -460.0, -422.0, -208.0, -22.0, 157.0, 311.0, 429.0, 494.0, 516.0, 517.0, 517.0]	[0.001132953038904816, 0.005853931957972236, 0.01680833702266682, 0.03559667940135114, 0.0518335564120207, 0.06738196445803624, 0.08526611530396622, 0.10212592533207498, 0.117021021709661, 0.13528234569821507, 0.15192301983188372, 0.16728403596789576, 0.18520095480198506, 0.20210206614865456, 0.21714257044368424, 0.23536839577718638, 0.2519271499768365, 0.26725471545069013, 0.2851514956273604, 0.30212155627668835, 0.3170845779386582, 0.33535716592450626, 0.351971898751799, 0.36729434423614293, 0.38523686304688454, 0.4020939424226526, 0.41687708151584957, 0.43516571214422584, 0.451773618318839, 0.4672909650398651, 0.48531369713600725, 0.502151661858079, 0.5171157075237716, 0.5353572341846302, 0.5519822070054943, 0.5673002151597757, 0.5852004086627858, 0.6020561227051076, 0.6170601043559145, 0.6353347403346561, 0.651918753166683, 0.6672667986422312, 0.6852338934550062, 0.7020739061554195, 0.7170632104825927, 0.7353361397981644, 0.7519518966291798, 0.7672760487766936, 0.7852076449344167, 0.8020893002831144, 0.817055735285976, 0.8353600672562607, 0.8517464481992647, 0.8672750589175848, 0.8852660470292903]
36	猴子	True	animate	inanimate	left	1.54	[0.0, 0.0, 0.0, 0.0, 0.0, 0.0, 2.0, 3.0, 3.0, 4.0, 4.0, 4.0, 4.0, 4.0, 4.0, 4.0, 4.0, 4.0, 4.0, 4.0, 4.0, 4.0, 4.0, 4.0, 4.0, 4.0, 4.0, 4.0, 4.0, 4.0, 4.0, 4.0, 4.0, 4.0, 4.0, 4.0, 4.0, 4.0, 4.0, 4.0, 4.0, 4.0, 4.0, 4.0, 4.0, 4.0, 4.0, -6.0, -16.0, -86.0, -179.0, -314.0, -475.0, -654.0, -822.0, -945.0, -960.0, -960.0, -960.0, -960.0, -960.0, -960.0, -960.0, -960.0, -960.0, -952.0, -927.0, -883.0, -824.0, -758.0, -686.0, -559.0, -520.0, -421.0, -381.0, -357.0, -344.0, -337.0, -326.0, -315.0, -311.0, -311.0, -338.0, -368.0, -459.0, -643.0, -755.0, -819.0, -851.0, -863.0, -863.0, -863.0]	[-490.0, -490.0, -490.0, -490.0, -490.0, -490.0, -489.0, -486.0, -486.0, -486.0, -486.0, -486.0, -486.0, -486.0, -486.0, -486.0, -486.0, -486.0, -486.0, -486.0, -486.0, -486.0, -486.0, -486.0, -486.0, -486.0, -486.0, -486.0, -486.0, -486.0, -489.0, -489.0, -490.0, -490.0, -490.0, -490.0, -490.0, -491.0, -491.0, -492.0, -492.0, -492.0, -492.0, -492.0, -492.0, -492.0, -488.0, -454.0, -421.0, -273.0, -143.0, 28.0, 191.0, 326.0, 423.0, 486.0, 516.0, 525.0, 526.0, 526.0, 526.0, 526.0, 526.0, 526.0, 526.0, 526.0, 515.0, 495.0, 458.0, 411.0, 348.0, 227.0, 188.0, 49.0, -40.0, -119.0, -160.0, -185.0, -207.0, -224.0, -230.0, -230.0, -199.0, -150.0, 3.0, 239.0, 317.0, 358.0, 383.0, 394.0, 395.0, 395.0]	[0.016769800466136076, 0.02153242203348782, 0.031493547605350614, 0.050162764702690765, 0.0665273003251059, 0.08192756977223326, 0.09994245122652501, 0.11668484265101142, 0.13164376832719427, 0.14995253761298954, 0.16648944647749886, 0.1820337585231755, 0.19983530674653593, 0.21662685014598537, 0.23165097045421135, 0.24998363306804094, 0.26650654726836365, 0.2818504967435729, 0.2998565035231877, 0.316696516238153, 0.33152710064314306, 0.3499625045369612, 0.36653184005990624, 0.3819054855266586, 0.3998357163363835, 0.41663203841017094, 0.4316742493683705, 0.4499540053511737, 0.46655371951055713, 0.48187172766483855, 0.4998388224776136, 0.5166429952078033, 0.5313889289827785, 0.5500298154365737, 0.5664510123606306, 0.5819209137844155, 0.5998234966100426, 0.6166607786581153, 0.6317514589318307, 0.6499902549257968, 0.66650463581027, 0.6819025159202283, 0.6998518613982014, 0.7166761727858102, 0.7317269170744112, 0.7499612757383147, 0.7665367552544922, 0.7819298567046644, 0.799819127554656, 0.8166229589405702, 0.8317505032027839, 0.8498592512623873, 0.8664582827623235, 0.8819711921532871, 0.8998485163319856, 0.916593297093641, 0.9316969480278203, 0.9498685013968498, 0.9664344235789031, 0.9818930609908421, 0.9997737985104322, 1.0166421418689424, 1.031673771503847, 1.0498838955099927, 1.0665921536274254, 1.0819524871039903, 1.099726387328701, 1.1165742507000687, 1.1316707336372929, 1.149854574992787, 1.166376465203939, 1.181908489248599, 1.1997056001418969, 1.2165418581862468, 1.2316451677907025, 1.2498873771110084, 1.2665273685997818, 1.28191091271583, 1.2998162262229016, 1.3165907029615482, 1.3316301832674071, 1.3499648938741302, 1.3665130667359335, 1.3819034375192132, 1.3995083778427215, 1.4165647957706824, 1.4314769588090712, 1.4499208960332908, 1.4664700928842649, 1.4819969969394151, 1.4997268651932245, 1.5165620992484037]
37	画家	True	inanimate	animate	right	0.89	[0.0, 0.0, 0.0, 0.0, 0.0, 0.0, 0.0, 0.0, 0.0, 0.0, 0.0, 0.0, 0.0, 0.0, 0.0, 0.0, 0.0, 0.0, 0.0, 0.0, 0.0, 0.0, 0.0, 0.0, 0.0, 0.0, 0.0, 0.0, 0.0, 0.0, 0.0, 0.0, 0.0, 0.0, 0.0, 0.0, 0.0, 0.0, 0.0, 0.0, 0.0, 0.0, 0.0, 3.0, 72.0, 134.0, 398.0, 577.0, 717.0, 806.0, 859.0, 875.0, 875.0, 875.0]	[-490.0, -490.0, -490.0, -490.0, -490.0, -490.0, -490.0, -490.0, -490.0, -490.0, -490.0, -490.0, -490.0, -490.0, -490.0, -490.0, -490.0, -490.0, -490.0, -490.0, -490.0, -490.0, -490.0, -490.0, -490.0, -490.0, -490.0, -490.0, -490.0, -490.0, -490.0, -490.0, -490.0, -490.0, -490.0, -490.0, -490.0, -490.0, -490.0, -490.0, -490.0, -490.0, -490.0, -483.0, -404.0, -340.0, -45.0, 162.0, 338.0, 458.0, 509.0, 517.0, 517.0, 517.0]	[0.0071820592565927655, 0.011788350238930434, 0.015487719007069245, 0.03123887894616928, 0.04762867321551312, 0.06301665467617568, 0.08096804814704228, 0.09778450887824874, 0.11280487451585941, 0.1311204704688862, 0.14768195532087702, 0.1630753981153248, 0.1808158476924291, 0.19790366827510297, 0.212818903310108, 0.23106998730509076, 0.2476516108145006, 0.2631208295497345, 0.2810316043905914, 0.2977985718025593, 0.3128039187868126, 0.3310324747872073, 0.3476939702522941, 0.36308673037274275, 0.38098351054941304, 0.3978467339038616, 0.41282238491112366, 0.4310577675787499, 0.4476994657161413, 0.46307140451972373, 0.48104976331524085, 0.4978180960606551, 0.5126824724429753, 0.5310096737230197, 0.5477346571715316, 0.5630823613028042, 0.581010202789912, 0.5977874102100031, 0.6128968638076913, 0.6310783158260165, 0.6474694754288066, 0.663115504765301, 0.6810044342710171, 0.6978065589937614, 0.7127013140416238, 0.7310568459797651, 0.7476200374949258, 0.7630609255866148, 0.7806774712371407, 0.7979147957375972, 0.8127846334682545, 0.8310415201121941, 0.8476224609621568, 0.8630005437444197]
38	军人	True	inanimate	animate	right	1.251	[0.0, 0.0, 0.0, 0.0, 0.0, 0.0, 0.0, 0.0, 0.0, 0.0, 0.0, 0.0, 0.0, 0.0, 0.0, 0.0, 0.0, 0.0, 0.0, 0.0, 0.0, 0.0, 0.0, 0.0, 0.0, 0.0, 0.0, 0.0, 0.0, 0.0, 0.0, 0.0, 0.0, 0.0, 0.0, 0.0, 0.0, 0.0, 0.0, -1.0, -2.0, -2.0, -2.0, -4.0, -9.0, -11.0, -27.0, -41.0, -64.0, -104.0, -161.0, -204.0, -214.0, -215.0, -215.0, -215.0, -213.0, -203.0, -105.0, 13.0, 134.0, 240.0, 329.0, 415.0, 480.0, 520.0, 560.0, 647.0, 708.0, 728.0, 745.0, 755.0, 771.0, 783.0, 789.0, 791.0]	[-490.0, -490.0, -490.0, -490.0, -490.0, -490.0, -490.0, -490.0, -490.0, -490.0, -490.0, -490.0, -490.0, -490.0, -490.0, -490.0, -490.0, -490.0, -490.0, -490.0, -490.0, -490.0, -490.0, -490.0, -490.0, -490.0, -490.0, -490.0, -490.0, -490.0, -490.0, -490.0, -490.0, -490.0, -491.0, -491.0, -492.0, -492.0, -492.0, -492.0, -492.0, -491.0, -489.0, -485.0, -481.0, -480.0, -474.0, -469.0, -458.0, -424.0, -370.0, -323.0, -311.0, -308.0, -308.0, -308.0, -305.0, -300.0, -257.0, -210.0, -160.0, -109.0, -47.0, 27.0, 93.0, 153.0, 219.0, 364.0, 432.0, 447.0, 461.0, 472.0, 489.0, 504.0, 509.0, 509.0]	[0.015117031201953068, 0.020398137843585573, 0.02833379244839307, 0.046660652398713864, 0.0634347878076369, 0.07850123342359439, 0.09675300007802434, 0.11343258620763663, 0.12868539972987492, 0.14646544396237005, 0.16347441657853778, 0.17847361956955865, 0.19683529550093226, 0.21334694571851287, 0.22881718845746946, 0.24667812864936423, 0.2634884453727864, 0.2785627416596981, 0.296812118976959, 0.31334049452561885, 0.32879298794432543, 0.3466829414537642, 0.36348540750623215, 0.3786242157657398, 0.3968537957553053, 0.4133367739850655, 0.4287653740902897, 0.4466583995963447, 0.46351104162749834, 0.4783368473727023, 0.4967715686070733, 0.513167848213925, 0.528778037551092, 0.5466956390446285, 0.5634359824762214, 0.5785669400502229, 0.5967658000736265, 0.6133245542587247, 0.6287586156977341, 0.646693625181797, 0.6635534352099057, 0.6785734595177928, 0.6968870074779261, 0.7133498470502673, 0.7287835671450011, 0.746678299314226, 0.7634698427136755, 0.7785956803127192, 0.7968259429762838, 0.8134382864664076, 0.828878833228373, 0.8466093841561815, 0.8634285755397286, 0.878543490471202, 0.896762147807749, 0.9133106619992759, 0.928685331455199, 0.9466408209409565, 0.9634497723309323, 0.9785667352552991, 0.9967184912966331, 1.0133700880978722, 1.0288696854986483, 1.0465821457619313, 1.0635078330960823, 1.0784964547638083, 1.0967233040864812, 1.1133039036067203, 1.128752983699087, 1.1465494119183859, 1.1633962512860307, 1.1784070596040692, 1.1966987622436136, 1.2130974311730824, 1.2288543937756913, 1.2466873446392128]
39	炸弹	False	inanimate	animate	left	0.935	[0.0, 0.0, 0.0, 0.0, 0.0, 0.0, 0.0, 0.0, 0.0, 0.0, 2.0, 2.0, 2.0, 2.0, 2.0, 2.0, 2.0, 2.0, 2.0, 2.0, 2.0, 2.0, 2.0, 2.0, 2.0, 2.0, 2.0, 2.0, 2.0, 2.0, 2.0, 2.0, 2.0, 2.0, 2.0, 2.0, 2.0, 2.0, 2.0, 2.0, 2.0, 2.0, 3.0, 3.0, 2.0, -32.0, -192.0, -328.0, -398.0, -584.0, -692.0, -768.0, -817.0, -837.0, -849.0, -853.0, -855.0]	[-490.0, -490.0, -490.0, -490.0, -490.0, -490.0, -490.0, -490.0, -492.0, -493.0, -496.0, -500.0, -501.0, -502.0, -502.0, -502.0, -503.0, -503.0, -503.0, -503.0, -503.0, -503.0, -503.0, -503.0, -503.0, -503.0, -503.0, -503.0, -503.0, -503.0, -503.0, -503.0, -503.0, -503.0, -503.0, -503.0, -503.0, -503.0, -503.0, -503.0, -501.0, -498.0, -494.0, -491.0, -481.0, -450.0, -309.0, -176.0, -99.0, 125.0, 264.0, 350.0, 411.0, 457.0, 482.0, 494.0, 498.0]	[0.014692754091811366, 0.02134158268745523, 0.027948427305091172, 0.046354135221918114, 0.06273915083147585, 0.07818993758701254, 0.0960621417616494, 0.11289259714249056, 0.12794163478247356, 0.1461637054453604, 0.16272826229396742, 0.17810907575767487, 0.19605466656503268, 0.21292744726815727, 0.2280894661671482, 0.24615930224535987, 0.2625504618627019, 0.2781722565268865, 0.2960854206903605, 0.31290529474790674, 0.3279871003469452, 0.34615626437880564, 0.362773727872991, 0.37812825868604705, 0.39608955082076136, 0.4128957715438446, 0.4279652891564183, 0.44623173314903397, 0.46267887139401864, 0.47817334879073314, 0.4960540862957714, 0.5128678163600853, 0.5279554246371845, 0.5461918312939815, 0.562760825487203, 0.5781426629400812, 0.5960199871187797, 0.6128634131600847, 0.6279578481044155, 0.6461365694558481, 0.6627642729436047, 0.6782123290322488, 0.6960964798781788, 0.712905089938431, 0.7279903088783612, 0.7461768809007481, 0.7624844138917979, 0.7781348805438029, 0.7959896767279133, 0.8127747348044068, 0.8279712283547269, 0.8460564244305715, 0.8627933545358246, 0.8781615386687918, 0.89606002549408, 0.9128348435770022, 0.927922793183825]
40	楼梯	False	inanimate	animate	left	1.267	[0.0, 0.0, 0.0, 0.0, 0.0, 0.0, 0.0, 0.0, 0.0, 0.0, 0.0, 0.0, 0.0, 0.0, 0.0, 0.0, 0.0, 0.0, 0.0, 1.0, 4.0, 6.0, 6.0, 6.0, 6.0, 6.0, 6.0, 6.0, 6.0, 6.0, 6.0, 6.0, 6.0, 6.0, 6.0, 7.0, 7.0, 7.0, 7.0, 7.0, 7.0, 10.0, 24.0, 36.0, 39.0, 29.0, -5.0, -163.0, -235.0, -489.0, -669.0, -832.0, -931.0, -960.0, -960.0, -960.0, -960.0, -960.0, -960.0, -960.0, -960.0, -960.0, -960.0, -960.0, -958.0, -941.0, -921.0, -903.0, -884.0, -867.0, -862.0, -862.0, -862.0, -862.0, -862.0, -862.0, -862.0]	[-490.0, -490.0, -490.0, -490.0, -490.0, -490.0, -490.0, -490.0, -490.0, -490.0, -490.0, -490.0, -490.0, -490.0, -490.0, -490.0, -490.0, -490.0, -490.0, -489.0, -489.0, -488.0, -488.0, -488.0, -488.0, -488.0, -488.0, -488.0, -488.0, -488.0, -488.0, -488.0, -488.0, -488.0, -488.0, -488.0, -488.0, -488.0, -488.0, -488.0, -482.0, -458.0, -422.0, -392.0, -375.0, -358.0, -335.0, -264.0, -223.0, -36.0, 113.0, 231.0, 294.0, 334.0, 351.0, 358.0, 358.0, 358.0, 358.0, 358.0, 358.0, 358.0, 358.0, 358.0, 359.0, 353.0, 344.0, 333.0, 319.0, 311.0, 310.0, 310.0, 316.0, 327.0, 333.0, 339.0, 341.0]	[0.01574508420890197, 0.021189006758504547, 0.029636661100084893, 0.04775974515359849, 0.06469362447387539, 0.07974641676992178, 0.0981248180323746, 0.11456069228006527, 0.1299326310690958, 0.14794205118960235, 0.16470150927489158, 0.17972528825339396, 0.19799787622469012, 0.21455663040978834, 0.2299609958572546, 0.2478779146913439, 0.26469642341544386, 0.27975877303106245, 0.29814980360970367, 0.31457816853071563, 0.32991460867924616, 0.34788750615553, 0.36472342285560444, 0.3797584658314008, 0.3980655284540262, 0.41460550932970364, 0.4299859814491356, 0.4479486389172962, 0.46474598498025443, 0.4797769319557119, 0.49797920530545525, 0.514580284798285, 0.5299785062525189, 0.5480421983374981, 0.5646821898117196, 0.5797199634544086, 0.5979689994419459, 0.6146045535861049, 0.6299812710494734, 0.6479756725020707, 0.6647177225968335, 0.6797711975523271, 0.6981106868333882, 0.7145540704223095, 0.7299676518596243, 0.7478842293494381, 0.7646368607674958, 0.7797640636999859, 0.7979202570713824, 0.8144803765899269, 0.8304414564190665, 0.847852860839339, 0.8646280202374328, 0.8797596604999853, 0.8979950431676116, 0.9142851681535831, 0.9299943441146752, 0.9478143243177328, 0.9646720863529481, 0.9797177106520394, 0.9979404639889253, 1.0144661088561406, 1.0299063142883824, 1.0478396171092754, 1.0646687071566703, 1.0798935313650873, 1.0981968393170973, 1.114565812269575, 1.129911468422506, 1.1478461365768453, 1.1646486026293132, 1.17982529886649, 1.1979176629392896, 1.2144566197966924, 1.2299466598633444, 1.247876208028174, 1.2646824287512572]
