trialIndex	stimulus	isAnimate	left_option	right_option	response	response_time	xTrajectory	yTrajectory	tTrajectory
0	坦克	False	animate	inanimate	right	1.232	[0.0, 0.0, 0.0, 0.0, 0.0, 0.0, 0.0, 0.0, 0.0, 0.0, 0.0, 0.0, -1.0, 0.0, 1.0, 1.0, 1.0, 1.0, 9.0, 38.0, 55.0, 60.0, 60.0, 60.0, 60.0, 60.0, 60.0, 60.0, 60.0, 60.0, 60.0, 60.0, 60.0, 60.0, 60.0, 61.0, 66.0, 67.0, 66.0, 43.0, -22.0, -67.0, -85.0, -114.0, -121.0, -126.0, -129.0, -131.0, -133.0, -134.0, -134.0, -134.0, -134.0, -115.0, -62.0, 147.0, 248.0, 328.0, 428.0, 551.0, 658.0, 734.0, 785.0, 808.0, 824.0, 826.0, 826.0, 807.0, 788.0, 769.0, 760.0, 752.0, 750.0, 750.0]	[-490.0, -490.0, -490.0, -490.0, -490.0, -490.0, -490.0, -490.0, -490.0, -490.0, -490.0, -490.0, -487.0, -475.0, -453.0, -415.0, -295.0, -255.0, -166.0, -78.0, -52.0, -42.0, -39.0, -38.0, -38.0, -36.0, -36.0, -36.0, -36.0, -36.0, -36.0, -36.0, -36.0, -36.0, -36.0, -35.0, -19.0, -7.0, 13.0, 49.0, 130.0, 181.0, 202.0, 232.0, 242.0, 246.0, 248.0, 249.0, 249.0, 249.0, 249.0, 249.0, 249.0, 249.0, 239.0, 212.0, 208.0, 212.0, 228.0, 252.0, 288.0, 327.0, 357.0, 375.0, 385.0, 388.0, 389.0, 397.0, 400.0, 403.0, 404.0, 407.0, 409.0, 409.0]	[0.010834562985110097, 0.015386581981147174, 0.020146472881606314, 0.03768109856900992, 0.05297692007297883, 0.06835739219968673, 0.08643371360813035, 0.10699323374865344, 0.11817462535691448, 0.13823477508412907, 0.15281891695485683, 0.16938449780718656, 0.18619891053094761, 0.2040864747032174, 0.21838696871418506, 0.23691623922786675, 0.25286093506292673, 0.268644180316187, 0.28630885393795324, 0.3033454745527706, 0.31813032030913746, 0.33651247623492964, 0.3529306011623703, 0.36835954259731807, 0.38614948548638495, 0.4032130714185769, 0.4182119330725982, 0.43652172636211617, 0.45296988861082355, 0.46843979002005653, 0.48621130092215026, 0.5032509935335838, 0.5181983138754731, 0.5365306351595791, 0.5529750427376712, 0.5684596214778139, 0.5861475057536154, 0.6032349850065657, 0.6187052277527982, 0.6364446533334558, 0.652742970327381, 0.6684480502808583, 0.6860751772619551, 0.7031602671777364, 0.7179519396013347, 0.7364542447976419, 0.7526890738154179, 0.7683282764774049, 0.786050294067536, 0.8030401520372834, 0.817924325754575, 0.836535516224103, 0.8526283506507752, 0.8682259106644779, 0.8861015281800064, 0.9031200581302983, 0.9179584931989666, 0.9365116570334067, 0.9527864220362972, 0.9682907980968594, 0.9861141916408087, 1.0031067802701727, 1.018499881720345, 1.036546848481521, 1.053020269384433, 1.068365242856089, 1.089278725485201, 1.103181566366402, 1.1181159160551033, 1.1365335706213955, 1.1528335942784906, 1.1683331916719908, 1.1883615974220447, 1.2032085658211145]
1	大门	False	inanimate	animate	left	0.982	[0.0, 0.0, 0.0, 0.0, 0.0, 0.0, 0.0, 0.0, 0.0, 4.0, 12.0, 24.0, 38.0, 44.0, 55.0, 59.0, 68.0, 69.0, 69.0, 69.0, 69.0, 69.0, 69.0, 69.0, 69.0, 102.0, 189.0, 237.0, 363.0, 422.0, 498.0, 578.0, 661.0, 728.0, 763.0, 785.0, 793.0, 797.0, 797.0, 797.0, 791.0, 786.0, 783.0, 781.0, 779.0, 763.0, 704.0, 570.0, 384.0, 42.0, -176.0, -287.0, -584.0, -742.0, -838.0, -884.0, -898.0, -901.0, -901.0, -901.0]	[-490.0, -490.0, -490.0, -490.0, -490.0, -490.0, -490.0, -489.0, -471.0, -429.0, -333.0, -214.0, -101.0, 0.0, 99.0, 115.0, 139.0, 139.0, 139.0, 139.0, 139.0, 139.0, 139.0, 139.0, 139.0, 137.0, 126.0, 126.0, 129.0, 143.0, 174.0, 220.0, 272.0, 312.0, 335.0, 347.0, 352.0, 355.0, 355.0, 356.0, 360.0, 363.0, 366.0, 368.0, 370.0, 374.0, 381.0, 387.0, 387.0, 387.0, 387.0, 387.0, 390.0, 404.0, 423.0, 442.0, 450.0, 452.0, 452.0, 452.0]	[0.008857117609295528, 0.013380464624788146, 0.020558018281008117, 0.034407269857183564, 0.052210524743713904, 0.06627208554709796, 0.08500103595724795, 0.10115974768268643, 0.11701672089839121, 0.13424721873889212, 0.15096571684989613, 0.1662127277086256, 0.1841190652048681, 0.20062866742227925, 0.21595077157689957, 0.23397759968065657, 0.2508305830488098, 0.26631208979233634, 0.28407848069036845, 0.3007573841532576, 0.316180181587697, 0.3340278097894043, 0.350782830544631, 0.36622679063293617, 0.3839737255475484, 0.40072362630598946, 0.41583000790706137, 0.43399746526847593, 0.4511323898259434, 0.4659172355895862, 0.4845031674121856, 0.5010250576160615, 0.5163150764565216, 0.534044944710331, 0.5510395813398645, 0.5659896323559224, 0.5842509563372005, 0.6009411237901077, 0.6162748332790215, 0.6341975547693437, 0.6508965968823759, 0.6660695384489372, 0.684277955791913, 0.7008653819648316, 0.7163489367012517, 0.7338647890719585, 0.750919841673749, 0.7658118660474429, 0.7843240699003218, 0.800550706924696, 0.8161458776085055, 0.833862775201851, 0.8510362704109866, 0.8658064388509956, 0.8842455974081531, 0.900662698339147, 0.9161465944052907, 0.9339645266154548, 0.9510137765537365, 0.9658532356261276]
2	道士	True	inanimate	animate	right	0.95	[0.0, 0.0, 0.0, 0.0, 0.0, 0.0, 0.0, 0.0, 0.0, 0.0, 4.0, 20.0, 31.0, 58.0, 70.0, 70.0, 70.0, 70.0, 68.0, 67.0, 65.0, 58.0, 47.0, 36.0, 32.0, 31.0, 31.0, 31.0, 31.0, 31.0, 31.0, 50.0, 76.0, 114.0, 174.0, 296.0, 330.0, 415.0, 445.0, 463.0, 467.0, 467.0, 467.0, 467.0, 468.0, 468.0, 479.0, 512.0, 548.0, 629.0, 684.0, 736.0, 769.0, 794.0, 811.0, 819.0, 819.0, 819.0]	[-490.0, -490.0, -490.0, -490.0, -490.0, -490.0, -490.0, -490.0, -490.0, -487.0, -473.0, -416.0, -376.0, -230.0, -130.0, -84.0, 6.0, 29.0, 34.0, 36.0, 37.0, 37.0, 37.0, 36.0, 36.0, 35.0, 35.0, 35.0, 35.0, 35.0, 33.0, 22.0, 18.0, 18.0, 36.0, 84.0, 102.0, 152.0, 164.0, 172.0, 174.0, 174.0, 174.0, 174.0, 175.0, 178.0, 194.0, 223.0, 257.0, 341.0, 397.0, 432.0, 448.0, 461.0, 469.0, 473.0, 473.0, 473.0]	[0.014204442864865996, 0.018546200641139876, 0.026891796369454823, 0.044727136570145376, 0.06170163454953581, 0.07698994671955006, 0.09497854550863849, 0.11195679815136828, 0.12655732400889974, 0.14512175183335785, 0.16140505016664974, 0.17684491426189197, 0.19473930510139326, 0.2118711576622445, 0.22657442479976453, 0.24511871397407958, 0.26147130293247756, 0.27686781771626556, 0.2947748378792312, 0.3129269352502888, 0.32674853884236654, 0.3451382040948374, 0.3643105462761014, 0.3768241612051497, 0.3976079372296226, 0.41181866062106565, 0.4270397301588673, 0.44514574755885405, 0.4637620580251678, 0.47698837658390403, 0.49628155070968205, 0.5118681880630902, 0.529537299014919, 0.5450280217482941, 0.5626401300687576, 0.576988410721242, 0.5961160382576054, 0.6118344302158221, 0.6281296752058552, 0.6450062105650431, 0.6614171674955287, 0.6766730530143832, 0.6970482532487949, 0.7113603525867802, 0.7297623058329918, 0.7449680153804366, 0.761866737397213, 0.7767451084437198, 0.7964864530076738, 0.8116795332243782, 0.8279037809188594, 0.8446475376767921, 0.8623903765983414, 0.8768707531780819, 0.8961676819671993, 0.9115706820812193, 0.926999623516167, 0.9446011505060596]
3	米饭	False	animate	inanimate	right	1.682	[0.0, 0.0, 0.0, 0.0, 0.0, 0.0, 0.0, -2.0, 8.0, 31.0, 49.0, 80.0, 91.0, 115.0, 120.0, 121.0, 121.0, 121.0, 121.0, 121.0, 121.0, 121.0, 121.0, 114.0, 121.0, 161.0, 178.0, 206.0, 222.0, 247.0, 287.0, 331.0, 366.0, 394.0, 415.0, 431.0, 454.0, 505.0, 592.0, 613.0, 663.0, 707.0, 733.0, 744.0, 745.0, 745.0, 745.0, 729.0, 645.0, 440.0, 275.0, 102.0, -68.0, -255.0, -417.0, -559.0, -646.0, -695.0, -718.0, -724.0, -724.0, -724.0, -724.0, -724.0, -724.0, -724.0, -724.0, -724.0, -724.0, -685.0, -560.0, -317.0, -231.0, -61.0, 190.0, 271.0, 458.0, 550.0, 595.0, 608.0, 609.0, 609.0, 609.0, 609.0, 609.0, 609.0, 609.0, 609.0, 609.0, 609.0, 609.0, 609.0, 609.0, 609.0, 609.0, 609.0, 610.0, 642.0, 719.0, 732.0, 737.0]	[-490.0, -490.0, -490.0, -490.0, -490.0, -490.0, -490.0, -471.0, -436.0, -382.0, -325.0, -253.0, -234.0, -203.0, -196.0, -194.0, -192.0, -192.0, -192.0, -192.0, -192.0, -192.0, -193.0, -194.0, -197.0, -191.0, -181.0, -157.0, -131.0, -82.0, -12.0, 65.0, 126.0, 172.0, 200.0, 219.0, 238.0, 272.0, 318.0, 329.0, 363.0, 393.0, 408.0, 414.0, 415.0, 415.0, 415.0, 415.0, 415.0, 415.0, 415.0, 415.0, 417.0, 421.0, 428.0, 434.0, 436.0, 443.0, 447.0, 448.0, 448.0, 448.0, 448.0, 448.0, 448.0, 448.0, 448.0, 448.0, 448.0, 445.0, 441.0, 441.0, 441.0, 441.0, 441.0, 441.0, 441.0, 441.0, 438.0, 438.0, 438.0, 438.0, 438.0, 438.0, 438.0, 438.0, 438.0, 438.0, 438.0, 438.0, 438.0, 438.0, 438.0, 438.0, 438.0, 438.0, 438.0, 438.0, 438.0, 438.0, 438.0]	[0.009388914666487835, 0.013533381876186468, 0.01948418416577624, 0.03576850648823893, 0.05207842880918179, 0.06749781291000545, 0.08554648634162731, 0.10241960836719954, 0.11729763808398275, 0.13579755394312087, 0.15507024807448033, 0.16741148975415854, 0.18774982600734802, 0.20233499187452253, 0.2172423762458493, 0.23575526276545133, 0.2542326506372774, 0.2674811558536021, 0.28705490583524806, 0.3024336712915101, 0.3201659288824885, 0.33571843291429104, 0.35348857848293846, 0.36752214996522525, 0.386606769527134, 0.40226474551309366, 0.4197823045469704, 0.4356874057339155, 0.45297797821694985, 0.4674829307841719, 0.4865989530007937, 0.5023163209552877, 0.5182733047840884, 0.53567412787379, 0.5526568178465823, 0.5675662502108025, 0.5854285557361436, 0.6020084725751076, 0.6174124966928503, 0.6351782049241592, 0.6550144401044236, 0.6673693351112888, 0.6878728766168933, 0.7020245493695256, 0.7176388347070315, 0.7354298015998211, 0.7536303682791186, 0.7674809851887403, 0.7870550765001099, 0.802008882179507, 0.8196404464833904, 0.8353472331073135, 0.8536133357556537, 0.8673564327182248, 0.8862352283831569, 0.9020447562943446, 0.9179699961387087, 0.9351878646557452, 0.9524852637987351, 0.9673312082013581, 0.9856840094653307, 1.0020680010784417, 1.017512643840746, 1.0354217120038811, 1.0523415966745233, 1.067393364966847, 1.0857311475774623, 1.102104899197002, 1.1176372645713855, 1.1351715489290655, 1.1553480932634557, 1.1674517670689966, 1.1857479070386034, 1.2020865013400908, 1.2175727867434034, 1.235708841457381, 1.2523621449290658, 1.2672016040014569, 1.2856998131901491, 1.3019383968785405, 1.3175233275687788, 1.3352354464950622, 1.3522710431061569, 1.367090363521129, 1.385653084682417, 1.401813844408025, 1.4175469136898755, 1.4351504886726616, 1.4522615199166466, 1.4671235069690738, 1.4858524573792238, 1.5019626998036983, 1.5173646759139956, 1.5354334879957605, 1.5523738526535453, 1.5673921702982625, 1.5856408649560763, 1.60470056720078, 1.617438438013778, 1.638151216735423, 1.6522810441674665]
4	戒指	False	animate	inanimate	right	0.881	[0.0, 0.0, 0.0, 0.0, 0.0, 0.0, 0.0, 0.0, 0.0, 0.0, 1.0, 1.0, 1.0, 3.0, 10.0, 12.0, 16.0, 16.0, 16.0, 16.0, 16.0, 16.0, 16.0, 16.0, 16.0, 24.0, 34.0, 47.0, 73.0, 106.0, 139.0, 210.0, 276.0, 354.0, 429.0, 496.0, 558.0, 602.0, 629.0, 645.0, 654.0, 656.0, 657.0, 657.0, 666.0, 676.0, 721.0, 765.0, 817.0, 861.0, 888.0, 899.0, 899.0]	[-490.0, -490.0, -490.0, -490.0, -490.0, -490.0, -490.0, -490.0, -490.0, -490.0, -490.0, -485.0, -472.0, -459.0, -443.0, -434.0, -429.0, -428.0, -428.0, -428.0, -428.0, -428.0, -428.0, -428.0, -428.0, -428.0, -426.0, -417.0, -399.0, -376.0, -339.0, -238.0, -148.0, -37.0, 71.0, 174.0, 261.0, 305.0, 328.0, 342.0, 351.0, 355.0, 357.0, 357.0, 369.0, 377.0, 400.0, 412.0, 427.0, 440.0, 447.0, 451.0, 451.0]	[0.013934789669292513, 0.018583747289085295, 0.026290367342880927, 0.04476502455509035, 0.06108723486249801, 0.07662062424060423, 0.09444196978438413, 0.1115093103799154, 0.12624363883514889, 0.1448148933268385, 0.1612197062568157, 0.17647013044916093, 0.1945061745500425, 0.21168205908907112, 0.2264307235382148, 0.2448364314477658, 0.2641572535576415, 0.27653160455520265, 0.29724096995050786, 0.3116332825811696, 0.32642222434515134, 0.34480847626400646, 0.36312270688358694, 0.3766483746294398, 0.3975720972448471, 0.41151111944782315, 0.42635808783961693, 0.44476243042299757, 0.4618956483172951, 0.47669073407450924, 0.4960299881713581, 0.5115285615684115, 0.5290324672751012, 0.5446904432537849, 0.5623704768731841, 0.5767098828655435, 0.5956453398321173, 0.6114968517213129, 0.6277197340823477, 0.644600024104875, 0.661955449882953, 0.6767027489986503, 0.6944350065896288, 0.7112627313035773, 0.7263237155930256, 0.744388090344728, 0.7631436647425289, 0.7765938978554914, 0.7961399998457637, 0.8111514908305253, 0.8273880265187472, 0.8444877937581623, 0.8648995166440727]
5	药品	False	inanimate	animate	right	0.763	[0.0, 0.0, 0.0, 0.0, 0.0, 0.0, -1.0, 9.0, 45.0, 68.0, 94.0, 116.0, 146.0, 166.0, 189.0, 193.0, 194.0, 194.0, 194.0, 194.0, 194.0, 194.0, 194.0, 194.0, 195.0, 218.0, 231.0, 268.0, 292.0, 317.0, 335.0, 402.0, 466.0, 559.0, 651.0, 728.0, 771.0, 798.0, 808.0, 811.0, 811.0, 811.0, 811.0, 811.0, 811.0, 811.0]	[-490.0, -490.0, -490.0, -490.0, -490.0, -490.0, -462.0, -419.0, -338.0, -249.0, -162.0, -81.0, -16.0, 30.0, 70.0, 78.0, 80.0, 80.0, 80.0, 80.0, 80.0, 80.0, 80.0, 80.0, 81.0, 78.0, 73.0, 67.0, 67.0, 67.0, 71.0, 96.0, 134.0, 200.0, 282.0, 363.0, 410.0, 437.0, 447.0, 451.0, 452.0, 452.0, 452.0, 452.0, 452.0, 452.0]	[0.010408920534246136, 0.01485068893089192, 0.02109367239609128, 0.03743875202781055, 0.05380362897994928, 0.06915201579249697, 0.08702660930430284, 0.10407756591303041, 0.11876479039347032, 0.13740499418054242, 0.1535940845569712, 0.1691738952504238, 0.1868737261829665, 0.2040936427001725, 0.21881295250204857, 0.23726405771594727, 0.253736113285413, 0.26911146541533526, 0.2870649068863713, 0.30405135152250296, 0.31881298663211055, 0.3373169984915876, 0.3536890434406814, 0.36916372351697646, 0.3869236290920526, 0.40410770562448306, 0.4189126900455449, 0.43728494730748935, 0.4559514337524888, 0.46919106430141255, 0.4879708733569714, 0.5040855531042325, 0.5215686374867801, 0.5373566614071024, 0.5549889083777089, 0.5691607197877602, 0.5883630992902908, 0.6040084459455102, 0.6200152644159971, 0.6372116289421683, 0.6543793214877951, 0.6692689565315959, 0.6873125099591562, 0.7036476909270277, 0.7188574964748113, 0.736911972562666]
6	抽屉	False	animate	inanimate	right	1.096	[0.0, 0.0, 0.0, 0.0, 0.0, 0.0, 0.0, 0.0, 0.0, 0.0, 0.0, 2.0, 8.0, 8.0, 7.0, 3.0, -10.0, -19.0, -20.0, -20.0, -20.0, -24.0, -17.0, 0.0, 20.0, 46.0, 79.0, 122.0, 173.0, 216.0, 255.0, 288.0, 307.0, 313.0, 313.0, 311.0, 308.0, 301.0, 297.0, 296.0, 296.0, 296.0, 296.0, 296.0, 296.0, 296.0, 296.0, 296.0, 293.0, 275.0, 275.0, 275.0, 287.0, 322.0, 359.0, 403.0, 456.0, 526.0, 590.0, 675.0, 693.0, 727.0, 737.0, 739.0, 740.0, 740.0]	[-490.0, -490.0, -490.0, -490.0, -490.0, -490.0, -490.0, -490.0, -490.0, -486.0, -471.0, -454.0, -435.0, -425.0, -424.0, -424.0, -433.0, -438.0, -442.0, -442.0, -447.0, -456.0, -454.0, -447.0, -434.0, -408.0, -370.0, -305.0, -216.0, -122.0, -36.0, 45.0, 93.0, 118.0, 130.0, 137.0, 142.0, 142.0, 142.0, 142.0, 142.0, 142.0, 142.0, 142.0, 142.0, 142.0, 142.0, 142.0, 142.0, 142.0, 142.0, 142.0, 173.0, 218.0, 261.0, 294.0, 322.0, 355.0, 381.0, 407.0, 413.0, 430.0, 436.0, 437.0, 438.0, 438.0]	[0.009556850571243558, 0.014459077392530162, 0.019861015964124817, 0.035563365257985424, 0.052341937996970955, 0.06772991945763351, 0.08568506759183947, 0.10283740014710929, 0.11737580336921383, 0.1359518365279655, 0.152235476190981, 0.16772483359090984, 0.1855949897726532, 0.2026995356864063, 0.2173625255090883, 0.23593821733084042, 0.2524130035599228, 0.2677671930359793, 0.28575920515868347, 0.30266372983169276, 0.31731716233480256, 0.3359597554517677, 0.352231448458042, 0.3676955472037662, 0.38575446062895935, 0.40267878262966406, 0.41766740429011406, 0.43577034968620865, 0.4522294345879345, 0.46770070133788977, 0.48558212151692715, 0.5025661768158898, 0.5174438652029494, 0.5358475251123309, 0.5523916019737953, 0.5677498874429148, 0.5855302730051335, 0.602698989547207, 0.6173670993739506, 0.6358649672329193, 0.6521148149186047, 0.6675881296614534, 0.6854429258528398, 0.7026485063761356, 0.7172971602121834, 0.735828137389035, 0.7521892596778343, 0.7676472144303261, 0.7854600266437046, 0.8025529672231642, 0.8173477116506547, 0.8358005235349992, 0.8521421898331027, 0.8677506725070998, 0.8854337781231152, 0.9025175027127261, 0.9173245351266814, 0.935732973703125, 0.9520661066708271, 0.9675759440651746, 0.9854481482470874, 1.0025451848268858, 1.0173559719114564, 1.0358849010954145, 1.0525999858655268, 1.0677087567964918]
7	桥梁	False	animate	inanimate	right	0.973	[0.0, 0.0, 0.0, 0.0, 0.0, 0.0, -4.0, -7.0, -7.0, -6.0, 7.0, 21.0, 27.0, 45.0, 59.0, 74.0, 89.0, 100.0, 106.0, 106.0, 106.0, 106.0, 106.0, 106.0, 106.0, 103.0, 103.0, 124.0, 151.0, 173.0, 198.0, 225.0, 263.0, 306.0, 377.0, 406.0, 413.0, 417.0, 415.0, 405.0, 394.0, 388.0, 387.0, 387.0, 386.0, 419.0, 574.0, 660.0, 701.0, 808.0, 862.0, 895.0, 905.0, 906.0, 906.0, 903.0, 895.0, 894.0, 894.0]	[-490.0, -490.0, -490.0, -490.0, -490.0, -490.0, -488.0, -477.0, -467.0, -443.0, -378.0, -320.0, -293.0, -230.0, -207.0, -194.0, -185.0, -176.0, -172.0, -172.0, -172.0, -172.0, -172.0, -172.0, -172.0, -180.0, -181.0, -177.0, -166.0, -154.0, -138.0, -117.0, -84.0, -35.0, 49.0, 91.0, 104.0, 126.0, 136.0, 145.0, 150.0, 151.0, 151.0, 151.0, 152.0, 156.0, 186.0, 224.0, 249.0, 316.0, 351.0, 379.0, 395.0, 407.0, 417.0, 427.0, 438.0, 438.0, 438.0]	[0.00047738855209900066, 0.005666676566761453, 0.015581380823277868, 0.03411406466329936, 0.05193814087397186, 0.06606933363946155, 0.08949298031075159, 0.10074741721473401, 0.11838410151540302, 0.13418577876291238, 0.1515412045409903, 0.16598983714357018, 0.18442080370732583, 0.2007467686853488, 0.2162255447547068, 0.23398715700022876, 0.2507524177490268, 0.26606530590652255, 0.28380951015424216, 0.3004126376545173, 0.31887876152904937, 0.33389571384032024, 0.35124363029171946, 0.3656451589195058, 0.38388361358374823, 0.4005331623920938, 0.4159754158172291, 0.4339244199654786, 0.45101565388176823, 0.46713169896247564, 0.48429905017110286, 0.5005157885316294, 0.5159839832776925, 0.5339790674042888, 0.5507412561491947, 0.5655813978883089, 0.5840379644359928, 0.6005407399861724, 0.6159734360844595, 0.6338490535999881, 0.6509355088492157, 0.6658387972202036, 0.6840960252084187, 0.7003684008741402, 0.7159011075927992, 0.7337316691264277, 0.7507443964204867, 0.7658395140242646, 0.7841090299989446, 0.8003486376837827, 0.8159997870097868, 0.8337450152539532, 0.850870723821572, 0.8655702362957527, 0.8840988241427112, 0.900428202447074, 0.9157526959315874, 0.9338791933187167, 0.95084174463409]
8	葫芦	False	inanimate	animate	left	1.207	[0.0, 0.0, 0.0, 0.0, 0.0, 0.0, 0.0, 2.0, 17.0, 32.0, 93.0, 126.0, 156.0, 168.0, 171.0, 171.0, 168.0, 168.0, 168.0, 168.0, 168.0, 168.0, 171.0, 186.0, 203.0, 229.0, 284.0, 365.0, 463.0, 596.0, 627.0, 696.0, 717.0, 723.0, 725.0, 725.0, 725.0, 721.0, 713.0, 707.0, 704.0, 703.0, 703.0, 703.0, 703.0, 703.0, 702.0, 702.0, 702.0, 704.0, 706.0, 707.0, 707.0, 707.0, 707.0, 706.0, 669.0, 628.0, 442.0, 269.0, 85.0, -98.0, -261.0, -396.0, -533.0, -639.0, -720.0, -772.0, -796.0, -798.0, -798.0, -798.0, -798.0]	[-490.0, -490.0, -490.0, -490.0, -490.0, -490.0, -490.0, -470.0, -435.0, -408.0, -294.0, -226.0, -171.0, -146.0, -137.0, -137.0, -137.0, -137.0, -137.0, -137.0, -137.0, -137.0, -137.0, -132.0, -132.0, -129.0, -110.0, -70.0, 2.0, 112.0, 151.0, 246.0, 279.0, 294.0, 299.0, 299.0, 299.0, 300.0, 300.0, 300.0, 300.0, 300.0, 300.0, 300.0, 300.0, 300.0, 306.0, 322.0, 338.0, 358.0, 373.0, 384.0, 387.0, 387.0, 387.0, 388.0, 388.0, 388.0, 388.0, 388.0, 388.0, 386.0, 380.0, 380.0, 393.0, 407.0, 420.0, 427.0, 434.0, 435.0, 435.0, 435.0, 435.0]	[0.016398976134951226, 0.020402814086992294, 0.027631909048068337, 0.04638236344908364, 0.06289162432949524, 0.07833490175835323, 0.09604121802840382, 0.11305257998174056, 0.12777188977634069, 0.14625610431539826, 0.16256841596623417, 0.1781393519922858, 0.19589413757057628, 0.21300619280373212, 0.2277374492623494, 0.2462578451159061, 0.26254353277909104, 0.27817420211067656, 0.2959190890251193, 0.3129403496423038, 0.32776820338040125, 0.3462278419319773, 0.36271218548790785, 0.3780977776114014, 0.3960239124353393, 0.41312982367526274, 0.4280187760523404, 0.4462913640309125, 0.4628361235591001, 0.4781367237228551, 0.4981146121644997, 0.5129957138778991, 0.5305883662076667, 0.5463774141171598, 0.563937298466044, 0.5782149231527001, 0.5970623161701951, 0.6130916626279941, 0.6303774564439664, 0.6461429523769766, 0.6634167995289317, 0.6782422639371362, 0.696253049383813, 0.713011142135656, 0.7278226118869497, 0.7458470506608137, 0.7625256127867033, 0.7781385327907628, 0.795887174368545, 0.812882152335078, 0.8278543900014483, 0.8459583594012656, 0.8627301054802956, 0.878059377631871, 0.8960449044243433, 0.9128818451354164, 0.9280455707048532, 0.9459065108967479, 0.9624656064188457, 0.9781389423951623, 0.9959695039287908, 1.0129221565803164, 1.0278568476060173, 1.0459369236778002, 1.0626683924492681, 1.078238304471597, 1.0960050367139047, 1.1127778067893814, 1.1280685082965647, 1.145862205848971, 1.1626998292267672, 1.1782451652688906, 1.195986297519994]
9	绵羊	True	animate	inanimate	left	1.099	[0.0, 0.0, 0.0, 0.0, 0.0, 0.0, 0.0, 0.0, 0.0, 1.0, 15.0, 29.0, 40.0, 41.0, 42.0, 42.0, 42.0, 42.0, 42.0, 42.0, 42.0, 42.0, 42.0, 43.0, 52.0, 63.0, 74.0, 95.0, 175.0, 258.0, 357.0, 449.0, 536.0, 615.0, 670.0, 700.0, 711.0, 714.0, 714.0, 714.0, 714.0, 714.0, 714.0, 714.0, 714.0, 714.0, 714.0, 714.0, 714.0, 712.0, 690.0, 629.0, 427.0, 244.0, 39.0, -155.0, -336.0, -486.0, -616.0, -706.0, -766.0, -797.0, -810.0, -812.0, -812.0, -812.0, -812.0]	[-490.0, -490.0, -490.0, -490.0, -490.0, -490.0, -490.0, -490.0, -490.0, -490.0, -487.0, -481.0, -471.0, -467.0, -467.0, -467.0, -467.0, -467.0, -467.0, -467.0, -467.0, -467.0, -467.0, -467.0, -467.0, -460.0, -452.0, -432.0, -342.0, -235.0, -102.0, 43.0, 181.0, 287.0, 351.0, 382.0, 394.0, 399.0, 400.0, 400.0, 400.0, 400.0, 400.0, 400.0, 400.0, 400.0, 400.0, 400.0, 400.0, 400.0, 400.0, 386.0, 353.0, 331.0, 331.0, 331.0, 331.0, 342.0, 361.0, 376.0, 384.0, 390.0, 392.0, 394.0, 394.0, 394.0, 394.0]	[0.007092083840689156, 0.01173046012991108, 0.017630745111091528, 0.031114428871660493, 0.047477599160629325, 0.06292224192293361, 0.08079308077140013, 0.09767405346065061, 0.11266540578799322, 0.13099090040486772, 0.14740424666524632, 0.1628434280937654, 0.18083817088336218, 0.19770719691587146, 0.21240534405660583, 0.23076838532142574, 0.24745855277433293, 0.26292435819050297, 0.2808009997024783, 0.29771474037261214, 0.3126992660399992, 0.33098926200909773, 0.3473377549671568, 0.3628704616858158, 0.3807669005182106, 0.39776904648169875, 0.4126795028496417, 0.4309572108249995, 0.4472500664778636, 0.46289746113325236, 0.48052629477751907, 0.4976349366843351, 0.5124064704505145, 0.5308988769829739, 0.5471954873064533, 0.562864727282431, 0.5805631928888033, 0.5976950454496546, 0.6126693311161944, 0.6309296311010257, 0.6474569826386869, 0.6629217640584102, 0.680715802947816, 0.6976312502883957, 0.7126574185895151, 0.7309180599113461, 0.7473576888223761, 0.7629084861982847, 0.7808151650315267, 0.7976674657329568, 0.8126902207077364, 0.8308788407302927, 0.8474229175917571, 0.8628603923571063, 0.8806810552268871, 0.8976876385204378, 0.9126052628853358, 0.9310273547889665, 0.9472635491401888, 0.9628587198239984, 0.9806500280465116, 0.9976508086765534, 1.012681755644735, 1.0309444449594594, 1.047369055217132, 1.0629079059290234, 1.0806405048497254]
10	钉子	False	inanimate	animate	left	1.443	[0.0, 0.0, 0.0, 0.0, 0.0, 0.0, 0.0, -1.0, -5.0, -5.0, -3.0, -3.0, -5.0, -14.0, -24.0, -26.0, -26.0, -26.0, -26.0, -27.0, -27.0, -27.0, -25.0, 1.0, 29.0, 74.0, 127.0, 192.0, 286.0, 321.0, 379.0, 432.0, 480.0, 484.0, 488.0, 488.0, 488.0, 487.0, 487.0, 487.0, 487.0, 499.0, 525.0, 603.0, 683.0, 716.0, 786.0, 799.0, 800.0, 800.0, 784.0, 724.0, 610.0, 460.0, 293.0, 123.0, -123.0, -190.0, -391.0, -497.0, -551.0, -581.0, -596.0, -602.0, -605.0, -608.0, -612.0, -616.0, -617.0, -617.0, -617.0, -617.0, -617.0, -618.0, -618.0, -618.0, -618.0, -619.0, -628.0, -649.0, -681.0, -692.0, -716.0, -725.0, -726.0, -726.0, -726.0]	[-490.0, -490.0, -490.0, -490.0, -490.0, -491.0, -491.0, -491.0, -475.0, -468.0, -449.0, -435.0, -428.0, -423.0, -421.0, -421.0, -421.0, -421.0, -421.0, -422.0, -422.0, -422.0, -422.0, -413.0, -396.0, -365.0, -322.0, -249.0, -111.0, -57.0, 50.0, 143.0, 228.0, 239.0, 257.0, 263.0, 264.0, 265.0, 265.0, 267.0, 271.0, 281.0, 295.0, 333.0, 360.0, 371.0, 390.0, 393.0, 393.0, 393.0, 391.0, 374.0, 358.0, 350.0, 350.0, 350.0, 350.0, 350.0, 355.0, 368.0, 377.0, 385.0, 390.0, 392.0, 394.0, 395.0, 398.0, 399.0, 399.0, 399.0, 399.0, 399.0, 399.0, 399.0, 399.0, 399.0, 399.0, 399.0, 399.0, 400.0, 402.0, 405.0, 408.0, 409.0, 409.0, 409.0, 409.0]	[0.0007733244128758088, 0.005417844695330132, 0.01628043114033062, 0.03474792034830898, 0.05095305338181788, 0.06662843735830393, 0.08443169224483427, 0.10130515560740605, 0.11633849190548062, 0.13456397590925917, 0.15110702877427684, 0.16663017815881176, 0.18443309170834254, 0.20141919501475058, 0.21631872871512314, 0.23459336469386471, 0.2511176442349097, 0.26657832965429407, 0.2844095738546457, 0.3013161465351004, 0.31637883748771856, 0.33460671082139015, 0.35106511306366883, 0.36655959046038333, 0.3844106319884304, 0.40148718858108623, 0.4161853357218206, 0.4345009316748474, 0.451021456552553, 0.4665818112480338, 0.48434001015994, 0.5012155215154053, 0.5160478125908412, 0.5343552165504661, 0.5509535653836792, 0.5666245120301028, 0.5844386895696516, 0.6012630009572604, 0.6161864279856673, 0.6345368399197469, 0.6511106127727544, 0.6665501355309971, 0.684335982427001, 0.7012251471096533, 0.7163257260472164, 0.7344802127481671, 0.7510082469525514, 0.7665863509828341, 0.7843326032307232, 0.8014122318127193, 0.8161837655861746, 0.8345154042035574, 0.8510014544226578, 0.8665406464715488, 0.8843353680276778, 0.9012573006984894, 0.916319650314108, 0.9345055396697717, 0.9509636005823268, 0.9665485312652891, 0.9843197008303832, 1.0013563214452006, 1.0162360578251537, 1.0344588111620396, 1.0509895760333166, 1.0665530027326895, 1.0843890256001032, 1.1012812622793717, 1.1164688811768428, 1.1345564665825805, 1.1509821008366998, 1.1665875115140807, 1.1843409317589249, 1.2014284110045992, 1.2163610540301306, 1.234547967382241, 1.250971553643467, 1.266607342971838, 1.2843153659050586, 1.301218183914898, 1.316434133455914, 1.3346319694755948, 1.3509664677767432, 1.366553446467151, 1.3841833041005884, 1.4012813646841096, 1.41638091961795]
11	灯泡	False	inanimate	animate	left	2.679	[0.0, 0.0, 0.0, 0.0, 0.0, 0.0, 0.0, 0.0, 0.0, 3.0, 19.0, 30.0, 46.0, 77.0, 112.0, 162.0, 192.0, 214.0, 230.0, 236.0, 236.0, 236.0, 236.0, 236.0, 236.0, 236.0, 236.0, 236.0, 236.0, 245.0, 255.0, 267.0, 278.0, 294.0, 324.0, 350.0, 387.0, 424.0, 452.0, 482.0, 500.0, 506.0, 510.0, 511.0, 509.0, 497.0, 466.0, 458.0, 458.0, 458.0, 458.0, 458.0, 458.0, 458.0, 458.0, 458.0, 460.0, 466.0, 489.0, 504.0, 522.0, 538.0, 560.0, 583.0, 607.0, 627.0, 643.0, 663.0, 677.0, 682.0, 702.0, 712.0, 720.0, 723.0, 723.0, 723.0, 723.0, 723.0, 723.0, 708.0, 621.0, 499.0, 238.0, 38.0, -156.0, -343.0, -504.0, -651.0, -765.0, -855.0, -910.0, -939.0, -944.0, -944.0, -944.0, -944.0, -944.0, -944.0, -944.0, -944.0, -944.0, -944.0, -944.0, -944.0, -944.0, -944.0, -944.0, -944.0, -944.0, -944.0, -944.0, -940.0, -917.0, -904.0, -894.0, -883.0, -876.0, -876.0, -874.0, -873.0, -873.0, -873.0, -873.0, -873.0, -873.0, -873.0, -873.0, -873.0, -873.0, -873.0, -873.0, -873.0, -873.0, -873.0, -873.0, -873.0, -873.0, -873.0, -873.0, -873.0, -873.0, -873.0, -873.0, -873.0, -873.0, -873.0, -873.0, -873.0, -873.0, -873.0, -873.0, -873.0, -873.0, -873.0, -873.0, -873.0, -873.0, -873.0, -873.0, -873.0, -873.0]	[-490.0, -490.0, -490.0, -490.0, -490.0, -490.0, -490.0, -490.0, -490.0, -486.0, -461.0, -441.0, -410.0, -362.0, -308.0, -251.0, -218.0, -201.0, -186.0, -167.0, -167.0, -167.0, -167.0, -167.0, -167.0, -167.0, -167.0, -167.0, -167.0, -166.0, -157.0, -145.0, -135.0, -123.0, -88.0, -45.0, 19.0, 90.0, 160.0, 227.0, 268.0, 286.0, 300.0, 305.0, 309.0, 314.0, 323.0, 325.0, 325.0, 325.0, 325.0, 325.0, 325.0, 325.0, 325.0, 325.0, 326.0, 326.0, 328.0, 331.0, 334.0, 338.0, 341.0, 344.0, 348.0, 354.0, 361.0, 370.0, 376.0, 378.0, 384.0, 388.0, 390.0, 392.0, 392.0, 392.0, 392.0, 392.0, 392.0, 392.0, 392.0, 392.0, 392.0, 392.0, 395.0, 395.0, 395.0, 397.0, 415.0, 430.0, 439.0, 445.0, 445.0, 445.0, 445.0, 445.0, 445.0, 445.0, 445.0, 445.0, 445.0, 445.0, 445.0, 445.0, 445.0, 445.0, 445.0, 445.0, 445.0, 445.0, 445.0, 446.0, 443.0, 441.0, 439.0, 438.0, 436.0, 436.0, 436.0, 435.0, 435.0, 435.0, 435.0, 435.0, 435.0, 435.0, 435.0, 435.0, 435.0, 435.0, 435.0, 435.0, 435.0, 435.0, 435.0, 435.0, 435.0, 435.0, 435.0, 435.0, 435.0, 435.0, 435.0, 435.0, 435.0, 435.0, 435.0, 435.0, 435.0, 435.0, 435.0, 435.0, 435.0, 435.0, 435.0, 435.0, 435.0, 435.0, 435.0, 435.0, 435.0]	[0.015838404695387, 0.020957036744221114, 0.029768893560685683, 0.04806264419312356, 0.065046016832639, 0.07995374253368936, 0.09831234646844678, 0.1146622047672281, 0.13007612754154252, 0.14809237431472866, 0.16484159240644658, 0.17962882749998244, 0.19821305265213596, 0.214628446912684, 0.23014169764064718, 0.2478876085515367, 0.2648027145623928, 0.27984936285793083, 0.29816871347429696, 0.3146247263866826, 0.3301291024472448, 0.34797024531144416, 0.3648225460128742, 0.3798610023150104, 0.3982083422524738, 0.41459847786609316, 0.4301096805866109, 0.4480231860798085, 0.46486558812466683, 0.47999074304971145, 0.4981070004432695, 0.5145124960399698, 0.5300868453996372, 0.5480051295598969, 0.5648318302773987, 0.5798818919065525, 0.5981725705423742, 0.6145609994855477, 0.6301691408225452, 0.6478157237870619, 0.6648359604077996, 0.6799887633169419, 0.698147687355231, 0.7145419189619133, 0.7302108176008915, 0.747905869873648, 0.7648325812115218, 0.7798703548469348, 0.7981839027997921, 0.8145757450765814, 0.8301623824299895, 0.8480526772691519, 0.864820327347843, 0.8798949649644783, 0.8982228489112458, 0.9145481312225456, 0.9302108858682914, 0.948004242090974, 0.9648288948155823, 0.9799124070923426, 0.9982177630517981, 1.0145321226955275, 1.0301126160557033, 1.047785823007871, 1.06478728629736, 1.0798479292570846, 1.0981570398798794, 1.1145222581690177, 1.1301020688624703, 1.1479247797324206, 1.1648378377431072, 1.1796673981516506, 1.1982717619539471, 1.2145536949537927, 1.230143404303817, 1.247901944545447, 1.2647931572282687, 1.2798886161690461, 1.29808884151862, 1.3145489504240686, 1.3300908731325762, 1.3479576159807038, 1.3648044553556247, 1.3798794343092595, 1.39827421955124, 1.4145459125575144, 1.4301629285619128, 1.4478306741802953, 1.4647734281752491, 1.4798654737824108, 1.4981295284305816, 1.514577690672013, 1.5300998160601011, 1.5478962442794, 1.564902486243227, 1.579862094578857, 1.598180762535776, 1.614557586151932, 1.6301411515087239, 1.6476894305233145, 1.6647963657596847, 1.6796532328226021, 1.6981258420273662, 1.7145071029735846, 1.7301811216166243, 1.7477399819617858, 1.764844527868263, 1.77960650431487, 1.7981709321393282, 1.814534102428297, 1.8301883237509173, 1.8478782560268883, 1.8647633247092017, 1.8797772050238564, 1.8981341022954439, 1.9145290165688493, 1.930164464560221, 1.9479547487862874, 1.9647650655097095, 1.9798571111168712, 1.9982327817124315, 2.014567962680303, 2.0301607440269436, 2.047719604372105, 2.0648538462628494, 2.0798465639236383, 2.0981270025658887, 2.114315751605318, 2.1301413221735856, 2.147935702392715, 2.1648463710662327, 2.1796779794749455, 2.1981352286893525, 2.214626057582791, 2.2301478416338796, 2.247917304535804, 2.264834799876553, 2.2799381094737328, 2.2981345801599673, 2.3145701130779344, 2.330152995768003, 2.347918704006588, 2.3648338100101682, 2.3798691943084123, 2.398150315617386, 2.414602573859156, 2.4302076432068134, 2.447731687563646, 2.464921908096585, 2.4811837024390115, 2.498222712383722, 2.514564720011549, 2.5301827600196702, 2.5479795295686927, 2.5648441182711395, 2.5798801852361066, 2.598187247866008, 2.6145893301363685, 2.630109748854011, 2.6478597557652392, 2.6648547337317723]
12	天鹅	True	animate	inanimate	left	1.645	[0.0, 0.0, 0.0, 0.0, 0.0, 0.0, 0.0, 0.0, 0.0, -1.0, -9.0, -17.0, -22.0, -22.0, -22.0, -22.0, -22.0, -22.0, -22.0, -22.0, -17.0, -5.0, 14.0, 43.0, 79.0, 145.0, 189.0, 211.0, 276.0, 319.0, 347.0, 362.0, 369.0, 369.0, 369.0, 369.0, 369.0, 368.0, 368.0, 368.0, 368.0, 368.0, 368.0, 368.0, 368.0, 368.0, 368.0, 368.0, 368.0, 371.0, 392.0, 396.0, 399.0, 399.0, 399.0, 399.0, 384.0, 342.0, 223.0, 177.0, 63.0, -53.0, -256.0, -328.0, -532.0, -638.0, -708.0, -749.0, -771.0, -785.0, -791.0, -791.0, -791.0, -791.0, -792.0, -792.0, -792.0, -792.0, -792.0, -791.0, -788.0, -785.0, -779.0, -776.0, -772.0, -771.0, -771.0, -771.0, -771.0, -771.0, -771.0, -771.0, -771.0, -771.0, -771.0, -771.0, -771.0, -771.0, -771.0]	[-490.0, -490.0, -490.0, -490.0, -490.0, -490.0, -490.0, -489.0, -486.0, -482.0, -479.0, -478.0, -480.0, -480.0, -480.0, -480.0, -480.0, -480.0, -480.0, -480.0, -478.0, -470.0, -456.0, -433.0, -399.0, -296.0, -196.0, -141.0, 16.0, 110.0, 178.0, 215.0, 238.0, 252.0, 259.0, 260.0, 262.0, 263.0, 263.0, 263.0, 263.0, 263.0, 263.0, 263.0, 263.0, 263.0, 263.0, 263.0, 263.0, 263.0, 264.0, 266.0, 267.0, 267.0, 267.0, 267.0, 267.0, 265.0, 265.0, 265.0, 265.0, 265.0, 266.0, 276.0, 303.0, 319.0, 329.0, 335.0, 337.0, 340.0, 341.0, 341.0, 341.0, 341.0, 342.0, 342.0, 342.0, 343.0, 344.0, 348.0, 351.0, 356.0, 364.0, 367.0, 371.0, 373.0, 373.0, 373.0, 373.0, 373.0, 373.0, 373.0, 373.0, 373.0, 373.0, 373.0, 373.0, 373.0, 373.0]	[0.0019007478331332095, 0.006856563966721296, 0.018588867293146905, 0.03704099651076831, 0.05340792146307649, 0.06893653218139661, 0.08657936047529802, 0.10372896236367524, 0.11858480542286998, 0.13690791070985142, 0.1534625689018867, 0.16883996902470244, 0.18680057849996956, 0.20370442051353166, 0.21871181549067842, 0.2369178435037611, 0.25345099770493107, 0.26890622179053025, 0.28673336999781895, 0.3036952386464691, 0.3186999029639992, 0.33688852298655547, 0.35344215717486804, 0.36884720528905746, 0.3867265774679254, 0.4035877528367564, 0.41862245447555324, 0.4368172184913419, 0.45334388736227993, 0.46882471143908333, 0.48672900093515636, 0.5036615149292629, 0.5187590218702098, 0.5368302232818678, 0.5533159321785206, 0.5688489802196273, 0.5866375577825238, 0.6034912238174002, 0.6186235467393999, 0.6368169454217423, 0.6532852463278687, 0.6688947529983125, 0.6866420292499242, 0.7036325698791188, 0.7185880822216859, 0.7367063876154134, 0.7532965444552246, 0.7689494004371227, 0.7866137327291653, 0.8037216919692582, 0.8183761484688148, 0.8367859523714287, 0.853293847918394, 0.868908815922623, 0.8866362948465394, 0.903758931417542, 0.9185560651749256, 0.9367641411809018, 0.9532802287285449, 0.9688545780882123, 0.9866042436624411, 1.003576010974939, 1.0186206112703076, 1.0367617859883467, 1.0531969775693142, 1.068860414881783, 1.0867203310699551, 1.1036221250833478, 1.118683109372796, 1.1367840067759971, 1.153345491627988, 1.1688891209996655, 1.1868060398264788, 1.2035480899212416, 1.218616242207645, 1.236814760894049, 1.253287499122962, 1.268933869781904, 1.286614927390474, 1.3038406465711887, 1.318358228476427, 1.3366960110870423, 1.3536305730813183, 1.3688844106072793, 1.3866013082006248, 1.4035618115158286, 1.4185937824877328, 1.4368336024781456, 1.4532950767170405, 1.4688793247405556, 1.4866361583190155, 1.5035427309921943, 1.5185378379828762, 1.5365926554077305, 1.5531241029384546, 1.5689445535099367, 1.586484981860849, 1.6036724717268953, 1.618648464056605]
13	海豚	True	animate	inanimate	left	1.115	[0.0, 0.0, 0.0, 0.0, 0.0, 0.0, 0.0, 0.0, 1.0, 7.0, 23.0, 62.0, 79.0, 127.0, 165.0, 185.0, 229.0, 238.0, 244.0, 247.0, 248.0, 248.0, 248.0, 248.0, 248.0, 248.0, 248.0, 248.0, 248.0, 248.0, 248.0, 248.0, 259.0, 317.0, 382.0, 458.0, 484.0, 564.0, 610.0, 641.0, 666.0, 682.0, 691.0, 693.0, 693.0, 693.0, 686.0, 656.0, 588.0, 387.0, 206.0, 6.0, -188.0, -353.0, -509.0, -642.0, -744.0, -828.0, -866.0, -881.0, -884.0, -884.0, -884.0, -884.0, -884.0, -884.0, -884.0, -884.0]	[-490.0, -490.0, -490.0, -490.0, -490.0, -490.0, -490.0, -490.0, -478.0, -439.0, -382.0, -297.0, -268.0, -158.0, -70.0, -23.0, 79.0, 112.0, 130.0, 142.0, 148.0, 150.0, 150.0, 150.0, 150.0, 150.0, 150.0, 150.0, 150.0, 150.0, 150.0, 150.0, 151.0, 151.0, 151.0, 173.0, 186.0, 242.0, 274.0, 297.0, 319.0, 331.0, 336.0, 338.0, 338.0, 338.0, 339.0, 339.0, 339.0, 319.0, 313.0, 313.0, 313.0, 313.0, 314.0, 335.0, 358.0, 384.0, 394.0, 401.0, 402.0, 402.0, 402.0, 402.0, 402.0, 402.0, 402.0, 402.0]	[0.01324017668957822, 0.018303512770216912, 0.024468672279908787, 0.04317816669936292, 0.059468974359333515, 0.07493785177211976, 0.09278889330016682, 0.10961798334756168, 0.1246311809954932, 0.1428952356436639, 0.15944238450174453, 0.1748508459495497, 0.19278687943005934, 0.20955726017564302, 0.22462165779870702, 0.24287274178641383, 0.2593253413651837, 0.27503997865278507, 0.29263911630550865, 0.30951394500152674, 0.32462783592927735, 0.3429294372253935, 0.35933322615892394, 0.37490586885542143, 0.39258897446416086, 0.40964573373639723, 0.4244141955059604, 0.44281239408883266, 0.45920560169179225, 0.47481442570278887, 0.49252244863600936, 0.5094812452807673, 0.5244091096392367, 0.5428318842095905, 0.5593309050964308, 0.5748537131439662, 0.5926405840364168, 0.6095154127324349, 0.6246470529877115, 0.6429957582586212, 0.6592787152549135, 0.6749090432494995, 0.6926249168463983, 0.7095598201776738, 0.7245866711527924, 0.7429053391024354, 0.759314589369751, 0.7748309120943304, 0.7926877562858863, 0.809527427663852, 0.8246396119211568, 0.8428439332710695, 0.8593074555101339, 0.8749074048537295, 0.8925819771393435, 0.909532240460976, 0.9245672834294965, 0.9428422607379616, 0.9593095376403653, 0.9748835456630331, 0.9928062671533553, 1.0095981518898043, 1.0246424108554493, 1.042863798858889, 1.0594280143777723, 1.0749009877908975, 1.0926731813597144, 1.1095599567124736]
14	卡车	False	animate	inanimate	right	1.067	[0.0, 0.0, 0.0, 0.0, 0.0, 0.0, 0.0, 0.0, 0.0, 1.0, 15.0, 28.0, 40.0, 70.0, 81.0, 106.0, 124.0, 141.0, 149.0, 150.0, 147.0, 140.0, 139.0, 137.0, 137.0, 137.0, 137.0, 137.0, 137.0, 137.0, 137.0, 137.0, 143.0, 152.0, 174.0, 227.0, 250.0, 334.0, 401.0, 464.0, 524.0, 563.0, 586.0, 603.0, 617.0, 627.0, 633.0, 646.0, 651.0, 673.0, 686.0, 697.0, 700.0, 701.0, 703.0, 704.0, 704.0, 705.0, 705.0, 705.0, 705.0, 705.0, 705.0, 705.0, 705.0]	[-490.0, -490.0, -490.0, -490.0, -490.0, -490.0, -490.0, -490.0, -490.0, -483.0, -436.0, -385.0, -349.0, -226.0, -131.0, -39.0, 9.0, 30.0, 37.0, 40.0, 46.0, 48.0, 48.0, 47.0, 47.0, 47.0, 47.0, 47.0, 47.0, 47.0, 47.0, 47.0, 41.0, 38.0, 39.0, 47.0, 50.0, 83.0, 119.0, 166.0, 224.0, 270.0, 297.0, 316.0, 327.0, 333.0, 340.0, 356.0, 363.0, 383.0, 393.0, 403.0, 405.0, 407.0, 407.0, 408.0, 408.0, 409.0, 409.0, 409.0, 409.0, 409.0, 409.0, 409.0, 409.0]	[0.015679684773203917, 0.02057133027119562, 0.029540200346673373, 0.04754484179284191, 0.06472857699554879, 0.07977283596119378, 0.0980440586063196, 0.11441098355862778, 0.12991570095618954, 0.14777083847729955, 0.16462348051572917, 0.179533254216949, 0.19789561281504575, 0.21434616439364618, 0.22983654579729773, 0.24767154466098873, 0.264718746599101, 0.2794438590644859, 0.2978608309640549, 0.31424994257395156, 0.32988539057259914, 0.3476490508110146, 0.3645924874654156, 0.3796497170915245, 0.3979011424089549, 0.41412436610698933, 0.4299134140237584, 0.4476606902680942, 0.46457852693856694, 0.47964292456163093, 0.49790390721318545, 0.5143739147752058, 0.5298683921791962, 0.5476354657512275, 0.5645734410791192, 0.5798013372768764, 0.5978428427115432, 0.6141271650340059, 0.6299035836273106, 0.6477542838183581, 0.664666317825322, 0.6795928168503451, 0.6978165941909538, 0.714266463102831, 0.729905665757542, 0.7476389473449672, 0.7645578080191626, 0.7794133097413578, 0.7979309749280219, 0.8141521506258869, 0.8298889745638007, 0.8476314721483504, 0.8646960820769891, 0.8796085864451015, 0.8978480651057907, 0.9141863180702785, 0.9298647740433807, 0.947665639600018, 0.9645602656164556, 0.9796796178779914, 0.9979371871959302, 1.0143211788017652, 1.02992181081936, 1.0475475724597345, 1.064747691656521]
15	桌子	False	inanimate	animate	left	1.39	[0.0, 0.0, 0.0, 0.0, 0.0, 0.0, 0.0, 0.0, 0.0, -3.0, -3.0, 0.0, 19.0, 45.0, 69.0, 74.0, 94.0, 102.0, 107.0, 108.0, 108.0, 108.0, 108.0, 108.0, 108.0, 108.0, 108.0, 108.0, 108.0, 108.0, 108.0, 108.0, 108.0, 109.0, 127.0, 162.0, 201.0, 248.0, 335.0, 359.0, 414.0, 444.0, 467.0, 484.0, 485.0, 485.0, 485.0, 485.0, 485.0, 485.0, 485.0, 485.0, 485.0, 485.0, 496.0, 510.0, 514.0, 514.0, 514.0, 514.0, 514.0, 515.0, 484.0, 450.0, 307.0, 177.0, 38.0, -116.0, -267.0, -410.0, -532.0, -620.0, -673.0, -716.0, -726.0, -730.0, -731.0, -731.0, -731.0, -731.0, -732.0, -732.0, -732.0, -732.0]	[-490.0, -490.0, -490.0, -490.0, -490.0, -490.0, -490.0, -490.0, -490.0, -474.0, -425.0, -340.0, -234.0, -124.0, 27.0, 69.0, 167.0, 197.0, 214.0, 220.0, 222.0, 225.0, 225.0, 225.0, 225.0, 225.0, 225.0, 225.0, 225.0, 225.0, 225.0, 225.0, 225.0, 226.0, 226.0, 226.0, 227.0, 234.0, 259.0, 267.0, 280.0, 291.0, 301.0, 311.0, 312.0, 312.0, 312.0, 312.0, 312.0, 312.0, 312.0, 312.0, 312.0, 312.0, 313.0, 313.0, 313.0, 313.0, 313.0, 313.0, 313.0, 313.0, 313.0, 308.0, 298.0, 294.0, 288.0, 288.0, 288.0, 289.0, 305.0, 324.0, 343.0, 365.0, 374.0, 378.0, 380.0, 380.0, 380.0, 380.0, 381.0, 381.0, 381.0, 381.0]	[0.008508275117492303, 0.013021040809690021, 0.017510937177576125, 0.03394373942865059, 0.05018573644338176, 0.06582289110519923, 0.08352169804129517, 0.10061395596130751, 0.1153612550770049, 0.1337335123316734, 0.15027690653369064, 0.1657980079180561, 0.18355518282623962, 0.20048325949028367, 0.2155008944682777, 0.23369156249100342, 0.2501574740599608, 0.2658017967187334, 0.2836521555800573, 0.3006280188856181, 0.31551526459952584, 0.3338045779019012, 0.35014760953345103, 0.3658096815124736, 0.38351394978235476, 0.4004642131039873, 0.41557469069812214, 0.43379403070139233, 0.45022546762629645, 0.4657677316645277, 0.4834818985982565, 0.500449911240139, 0.5155573168449337, 0.5336824488913408, 0.5500797525019152, 0.565744896477554, 0.5835413246968528, 0.6004130813962547, 0.6155006896733539, 0.6337029630158213, 0.6500183466632734, 0.6658162692401675, 0.6833211989433039, 0.7003830782123259, 0.7155601157719502, 0.7337473704610602, 0.7501491113944212, 0.7657326767512131, 0.7835052116497536, 0.8005056509500719, 0.8155379632516997, 0.8337549139250768, 0.8501781588493031, 0.86575455620914, 0.883489544459735, 0.9006872743193526, 0.9155035227377084, 0.9337020414168364, 0.9499969450771459, 0.9658057903143344, 0.9834202879646909, 1.0004121939273318, 1.0154486022292986, 1.0337641981896013, 1.0501966591036762, 1.0657740804672358, 1.08349848738726, 1.100500633350748, 1.1156500229262747, 1.1336591017097817, 1.1499608320300467, 1.1657498799395398, 1.1834937428575358, 1.2004187475249637, 1.2155527771101333, 1.2337615357901086, 1.250307319314743, 1.2658017967187334, 1.283409809031582, 1.300558045586513, 1.3155640752374893, 1.3337557672566618, 1.3501841321776737, 1.3657622362006805]
16	司机	True	inanimate	animate	right	1.066	[0.0, 0.0, 0.0, 0.0, 0.0, 0.0, 0.0, 0.0, 0.0, 0.0, -1.0, 2.0, 8.0, 33.0, 55.0, 73.0, 85.0, 91.0, 93.0, 98.0, 102.0, 105.0, 106.0, 106.0, 106.0, 106.0, 106.0, 106.0, 106.0, 106.0, 106.0, 109.0, 122.0, 144.0, 205.0, 270.0, 309.0, 408.0, 459.0, 518.0, 620.0, 651.0, 687.0, 709.0, 726.0, 741.0, 761.0, 765.0, 766.0, 766.0, 766.0, 766.0, 766.0, 766.0, 766.0, 766.0, 766.0, 766.0, 766.0, 766.0, 766.0, 766.0, 766.0, 766.0, 766.0]	[-490.0, -490.0, -490.0, -490.0, -490.0, -490.0, -490.0, -490.0, -490.0, -490.0, -489.0, -469.0, -451.0, -338.0, -231.0, -112.0, 1.0, 99.0, 179.0, 227.0, 253.0, 272.0, 287.0, 290.0, 290.0, 290.0, 290.0, 290.0, 290.0, 290.0, 290.0, 291.0, 291.0, 282.0, 273.0, 273.0, 276.0, 307.0, 327.0, 351.0, 399.0, 415.0, 437.0, 453.0, 465.0, 475.0, 485.0, 487.0, 488.0, 488.0, 488.0, 488.0, 488.0, 488.0, 488.0, 488.0, 488.0, 488.0, 488.0, 488.0, 488.0, 488.0, 488.0, 488.0, 488.0]	[0.01395390432298882, 0.01985691997106187, 0.02658323119248962, 0.044886197822052054, 0.061474989328416996, 0.07672882685437799, 0.09445289244467858, 0.1114860997258802, 0.1264999800332589, 0.14475789068819722, 0.16134702352428576, 0.1766964343332802, 0.19460038249962963, 0.2114202565571759, 0.22647919284645468, 0.24485486343473895, 0.26136822031548945, 0.27667428181302967, 0.2946410352815292, 0.3114370160110411, 0.3265775309264427, 0.3447808282726328, 0.36121158253081376, 0.37678047055669595, 0.39447108549939003, 0.4115022447804222, 0.42650042376772035, 0.44472659043822205, 0.46120547266764333, 0.4767552460398292, 0.49442811165499734, 0.5113954416374327, 0.5264847565777018, 0.5448054725275142, 0.5611915121407947, 0.5767416268427041, 0.5943339378354722, 0.6114620357329841, 0.6265455480097444, 0.6447928773341118, 0.6612731248969794, 0.6767303969827481, 0.6945066865519038, 0.7113948272381094, 0.7265008675021818, 0.7447321541694691, 0.7612281030524173, 0.7767099511256674, 0.7945937606345979, 0.8115617732837563, 0.826468474981084, 0.8447513029605034, 0.8610298226194573, 0.8767154465895146, 0.8944825201615458, 0.911493540785159, 0.9262207012434374, 0.9445059185527498, 0.9611592220244347, 0.9767455180408433, 0.9944811889654375, 1.0114928922557738, 1.0264477219316177, 1.0447182619100204, 1.0609793735784478]
17	法官	True	inanimate	animate	right	1.062	[0.0, 0.0, 0.0, 0.0, 0.0, 0.0, 0.0, 0.0, 0.0, 0.0, 0.0, 0.0, 0.0, 0.0, 5.0, 10.0, 24.0, 32.0, 38.0, 41.0, 44.0, 47.0, 50.0, 59.0, 81.0, 133.0, 176.0, 193.0, 249.0, 277.0, 296.0, 301.0, 301.0, 297.0, 286.0, 275.0, 268.0, 265.0, 265.0, 265.0, 265.0, 265.0, 265.0, 265.0, 265.0, 265.0, 268.0, 319.0, 421.0, 519.0, 638.0, 670.0, 749.0, 779.0, 796.0, 805.0, 806.0, 806.0, 806.0, 806.0, 806.0, 806.0, 806.0, 806.0]	[-490.0, -490.0, -490.0, -490.0, -491.0, -491.0, -491.0, -491.0, -491.0, -491.0, -491.0, -491.0, -491.0, -491.0, -486.0, -482.0, -472.0, -467.0, -463.0, -460.0, -460.0, -460.0, -460.0, -460.0, -449.0, -404.0, -351.0, -319.0, -191.0, -104.0, -21.0, 54.0, 108.0, 150.0, 173.0, 187.0, 193.0, 195.0, 195.0, 195.0, 195.0, 195.0, 195.0, 195.0, 195.0, 195.0, 195.0, 195.0, 204.0, 233.0, 293.0, 313.0, 368.0, 387.0, 396.0, 402.0, 403.0, 403.0, 405.0, 405.0, 405.0, 405.0, 405.0, 405.0]	[0.015652719463105313, 0.022872598434332758, 0.029923176152806263, 0.04840875602531014, 0.06473472099605715, 0.08025138505036011, 0.09809389325528173, 0.11499944193201372, 0.12996041560109006, 0.148247680903296, 0.16458798187522916, 0.18027599517517956, 0.19813693535979837, 0.21497216940770159, 0.22996249773859745, 0.24827502169500804, 0.26472625593305565, 0.28023472799395677, 0.29794275092717726, 0.31514935545419576, 0.3300468411616748, 0.3483057758130599, 0.36460170346981613, 0.3802262288008933, 0.39813597963075154, 0.4149473203578964, 0.43001001131051453, 0.4482102366600884, 0.46473212686396437, 0.4802416229285882, 0.4980175711607444, 0.5150869597491692, 0.5299950267872191, 0.5482109534568735, 0.5647355743276421, 0.5802044517477043, 0.5980346719516092, 0.6148975539836101, 0.6299383996156394, 0.6482021129268105, 0.6647270751345786, 0.6802198458681232, 0.6979930634333869, 0.7149365000950638, 0.7299418470793171, 0.7481256884348113, 0.7646571359728114, 0.7802407013223274, 0.7980152842283132, 0.8149399475587416, 0.8299982011812972, 0.8481287945687654, 0.8646725300932303, 0.8802236687988625, 0.8980040543610812, 0.9149959603309981, 0.9299084646991105, 0.9481974366644863, 0.9646592522403807, 0.9802568122540833, 0.9979757578475983, 1.0149813171374262, 1.0297948348888895, 1.0481664094841108]
18	米饭	False	inanimate	animate	left	2.066	[0.0, 0.0, 0.0, 0.0, 0.0, 0.0, 0.0, 0.0, 1.0, 5.0, 16.0, 31.0, 49.0, 73.0, 98.0, 117.0, 149.0, 163.0, 170.0, 177.0, 177.0, 177.0, 177.0, 177.0, 177.0, 177.0, 177.0, 177.0, 177.0, 186.0, 189.0, 192.0, 206.0, 238.0, 300.0, 365.0, 427.0, 475.0, 519.0, 566.0, 599.0, 614.0, 616.0, 616.0, 607.0, 600.0, 584.0, 573.0, 564.0, 558.0, 549.0, 536.0, 512.0, 457.0, 429.0, 314.0, 208.0, 89.0, -46.0, -157.0, -269.0, -359.0, -446.0, -514.0, -571.0, -617.0, -628.0, -653.0, -659.0, -661.0, -662.0, -662.0, -664.0, -665.0, -669.0, -673.0, -680.0, -685.0, -691.0, -691.0, -691.0, -691.0, -691.0, -691.0, -691.0, -691.0, -691.0, -691.0, -691.0, -691.0, -691.0, -691.0, -691.0, -691.0, -691.0, -691.0, -691.0, -691.0, -691.0, -691.0, -691.0, -691.0, -691.0, -691.0, -691.0, -691.0, -691.0, -691.0, -691.0, -691.0, -691.0, -691.0, -691.0, -691.0, -691.0, -691.0, -691.0, -691.0, -691.0, -691.0, -691.0, -691.0, -691.0, -691.0, -691.0]	[-490.0, -490.0, -490.0, -490.0, -490.0, -490.0, -490.0, -490.0, -488.0, -477.0, -462.0, -446.0, -427.0, -398.0, -353.0, -297.0, -233.0, -214.0, -205.0, -201.0, -201.0, -201.0, -201.0, -201.0, -201.0, -201.0, -201.0, -202.0, -205.0, -204.0, -201.0, -197.0, -187.0, -169.0, -123.0, -66.0, 9.0, 97.0, 194.0, 279.0, 340.0, 370.0, 380.0, 382.0, 382.0, 382.0, 380.0, 379.0, 379.0, 379.0, 379.0, 379.0, 379.0, 373.0, 370.0, 356.0, 356.0, 356.0, 356.0, 356.0, 363.0, 378.0, 391.0, 412.0, 428.0, 440.0, 444.0, 449.0, 452.0, 452.0, 452.0, 452.0, 452.0, 452.0, 452.0, 452.0, 448.0, 446.0, 442.0, 442.0, 442.0, 442.0, 442.0, 442.0, 442.0, 442.0, 442.0, 442.0, 442.0, 442.0, 442.0, 442.0, 442.0, 442.0, 442.0, 442.0, 442.0, 442.0, 442.0, 442.0, 442.0, 442.0, 442.0, 442.0, 442.0, 442.0, 442.0, 442.0, 442.0, 442.0, 442.0, 442.0, 442.0, 442.0, 442.0, 442.0, 442.0, 442.0, 442.0, 442.0, 442.0, 442.0, 442.0, 442.0, 442.0]	[0.014077808264119085, 0.020026221216539852, 0.02651120990049094, 0.044619957960094325, 0.06127292010205565, 0.07686911478231195, 0.09451501508010551, 0.11164584364451002, 0.1263975800902699, 0.14496064258855768, 0.16121253826713655, 0.17694151154137217, 0.19472394510376034, 0.21152026717027184, 0.22653448882192606, 0.24480946613039123, 0.2612852763631963, 0.27678180176008027, 0.2946840432632598, 0.3114977733202977, 0.32653998428577324, 0.34481700959440786, 0.3612941851533833, 0.3768272332017659, 0.39467486139619723, 0.4115312580979662, 0.4265471864127903, 0.44481567839102354, 0.4612727152998559, 0.4767835766906501, 0.49467387152981246, 0.5114872602571268, 0.5266673698206432, 0.5449102618076722, 0.5611785414803308, 0.5768573387904326, 0.5946534256727318, 0.6114487237427966, 0.6262956921418663, 0.6447570373566123, 0.6612546929100063, 0.6767976396149606, 0.6943885852815583, 0.7114832325241878, 0.7262957262719283, 0.7447891568081104, 0.7612479003801127, 0.7768915403721621, 0.7946965019218624, 0.8115139866422396, 0.8265657549345633, 0.8447704176141997, 0.8612213105297997, 0.8767714252317091, 0.8946060827656765, 0.9114798874579719, 0.9265674957350711, 0.9448042437288677, 0.9612940486258594, 0.9768694219819736, 0.9946682395384414, 1.011462854934507, 1.0264695672522066, 1.044829877850134, 1.061234008120664, 1.0768138188068406, 1.094675782995182, 1.1114772250584792, 1.1265720013325335, 1.1448759919585427, 1.161254180908145, 1.1768411595985526, 1.1947840197390178, 1.2114622405351838, 1.2265491661455599, 1.2447923994695884, 1.2611955057363957, 1.2767633697658312, 1.2945382940015406, 1.3114697839992004, 1.3266399948988692, 1.3448743535627727, 1.3612515185086522, 1.376801291880838, 1.3944359281886136, 1.411499172783806, 1.4265389944193885, 1.4448259183845948, 1.4613054832807393, 1.4767750433602487, 1.4945707889201003, 1.5115097882444388, 1.5265639458739315, 1.5449437124625547, 1.5612078961348743, 1.576954618736636, 1.5945776497173938, 1.6114715930671082, 1.6265503266768064, 1.6448788932902971, 1.6612550342397299, 1.676837575600075, 1.6945302385356626, 1.7114583152069827, 1.7265326114866184, 1.7448751727642957, 1.761041393816413, 1.7768055244159768, 1.7945954673050437, 1.8114948719885433, 1.8266172962466953, 1.8448465349138132, 1.8612277958600316, 1.8768082892129314, 1.8945425947968033, 1.9115372314336128, 1.9262988665432204, 1.9449028890157933, 1.9612319259904325, 1.9768445046574925, 1.9943579676910304, 2.0114833349289256, 2.0266020045164623, 2.0448810778252664, 2.061206360136566]
19	海鸥	True	animate	inanimate	left	1.403	[0.0, 0.0, 0.0, 0.0, 0.0, 0.0, 0.0, 1.0, 18.0, 25.0, 32.0, 33.0, 35.0, 35.0, 35.0, 35.0, 35.0, 35.0, 35.0, 35.0, 35.0, 35.0, 37.0, 49.0, 67.0, 92.0, 130.0, 182.0, 240.0, 309.0, 375.0, 425.0, 488.0, 504.0, 537.0, 542.0, 545.0, 545.0, 545.0, 545.0, 545.0, 545.0, 545.0, 545.0, 542.0, 542.0, 542.0, 542.0, 542.0, 533.0, 503.0, 449.0, 372.0, 283.0, 166.0, 52.0, -125.0, -184.0, -349.0, -433.0, -487.0, -516.0, -533.0, -546.0, -551.0, -554.0, -554.0, -556.0, -558.0, -570.0, -580.0, -592.0, -603.0, -616.0, -632.0, -652.0, -672.0, -695.0, -713.0, -725.0, -732.0, -732.0, -732.0, -732.0, -732.0]	[-490.0, -490.0, -490.0, -490.0, -490.0, -490.0, -489.0, -477.0, -439.0, -424.0, -379.0, -355.0, -349.0, -349.0, -349.0, -349.0, -349.0, -349.0, -349.0, -349.0, -349.0, -353.0, -357.0, -356.0, -351.0, -333.0, -292.0, -233.0, -165.0, -80.0, 13.0, 93.0, 188.0, 213.0, 256.0, 267.0, 270.0, 270.0, 270.0, 270.0, 271.0, 271.0, 271.0, 271.0, 271.0, 271.0, 271.0, 271.0, 271.0, 268.0, 259.0, 243.0, 229.0, 218.0, 216.0, 216.0, 225.0, 235.0, 283.0, 310.0, 334.0, 349.0, 360.0, 366.0, 368.0, 369.0, 369.0, 370.0, 370.0, 371.0, 372.0, 372.0, 372.0, 372.0, 372.0, 372.0, 372.0, 372.0, 372.0, 372.0, 372.0, 372.0, 372.0, 372.0, 372.0]	[0.012834092623961624, 0.02003588093793951, 0.025533734122291207, 0.04220444558450254, 0.058638271839299705, 0.0741180719123804, 0.0920298707424081, 0.108863739456865, 0.1239223344164202, 0.14209559444134356, 0.15864137797325384, 0.1741464367005392, 0.1917858516681008, 0.20883714960655198, 0.2238913072287687, 0.24214478055364452, 0.2586134227894945, 0.2741532974978327, 0.2919715710377204, 0.30883957307378296, 0.323676642809005, 0.3421154600364389, 0.3586035582557088, 0.37411271298333304, 0.3917900159358396, 0.40891196983284317, 0.42394769546808675, 0.44211003283271566, 0.4585602430815925, 0.474130496440921, 0.49182213538733777, 0.5088311080107815, 0.5238780976360431, 0.5420397523412248, 0.5584981545762275, 0.5741021999201621, 0.5919853267696453, 0.6088533287984319, 0.6236183772343793, 0.6420083838238497, 0.6584667860588524, 0.6741462660356774, 0.691972731576243, 0.7087714429726475, 0.7238914779009065, 0.7421326632247656, 0.7583422335956129, 0.7740227375616087, 0.7918843604202266, 0.8089015250370721, 0.8239287173419143, 0.8420466813986422, 0.8585573076125002, 0.8740889903274365, 0.8918744958937168, 0.9088599165261257, 0.9239150981520652, 0.9420842621839256, 0.958514675105107, 0.9740944857912837, 0.9919950206312933, 1.008903299974918, 1.023918545615743, 1.0420132990184356, 1.0583576959834318, 1.0741102212487021, 1.0919046014751075, 1.1087473448496894, 1.1252688937238418, 1.1420826237808797, 1.1585157673689537, 1.1741283460432896, 1.1918394409731263, 1.208984605531441, 1.223874923241965, 1.2420618365940754, 1.258515460169292, 1.2741116548495484, 1.2918626857644995, 1.3087579944476602, 1.3236448988245684, 1.342069380058092, 1.3585472382837906, 1.3740147503704065, 1.3918593065682217]
20	漫画	False	animate	inanimate	right	1.051	[0.0, -1.0, -1.0, -1.0, -3.0, -10.0, -12.0, -16.0, -18.0, -19.0, -25.0, -30.0, -32.0, -32.0, -31.0, -30.0, -33.0, -37.0, -43.0, -45.0, -46.0, -46.0, -46.0, -46.0, -46.0, -46.0, -46.0, -46.0, -45.0, -27.0, -17.0, 48.0, 113.0, 200.0, 278.0, 352.0, 428.0, 494.0, 556.0, 605.0, 633.0, 651.0, 651.0, 652.0, 652.0, 652.0, 652.0, 652.0, 652.0, 652.0, 652.0, 651.0, 650.0, 650.0, 650.0, 650.0, 659.0, 671.0, 684.0, 696.0, 710.0, 720.0, 723.0, 723.0]	[-490.0, -490.0, -490.0, -490.0, -490.0, -489.0, -487.0, -482.0, -478.0, -477.0, -469.0, -460.0, -447.0, -427.0, -406.0, -387.0, -369.0, -360.0, -351.0, -348.0, -348.0, -348.0, -348.0, -348.0, -348.0, -348.0, -348.0, -348.0, -353.0, -352.0, -345.0, -298.0, -257.0, -198.0, -129.0, -41.0, 53.0, 135.0, 201.0, 247.0, 267.0, 284.0, 286.0, 289.0, 292.0, 292.0, 295.0, 295.0, 299.0, 305.0, 309.0, 314.0, 317.0, 318.0, 319.0, 327.0, 342.0, 359.0, 375.0, 387.0, 396.0, 402.0, 405.0, 405.0]	[0.015183045026788022, 0.02233397469535703, 0.028710419435810763, 0.046665908907016274, 0.06488900357362581, 0.07896148703730432, 0.0967585979233263, 0.11374026389967185, 0.12849780300894054, 0.14703560685302364, 0.16343325178604573, 0.17899804381886497, 0.19688833865802735, 0.21374029802973382, 0.22849305847921642, 0.24700457966537215, 0.26348346189479344, 0.2789694059683825, 0.2968798394649639, 0.3136799161948147, 0.32873680448392406, 0.3470541071073967, 0.3635084133493365, 0.37900528008322, 0.39683072162006283, 0.4137437796307495, 0.42847503608936677, 0.44701659458951326, 0.46361562609672546, 0.4790114582137903, 0.4968949263857212, 0.5137444964275346, 0.5286767981160665, 0.5469978554028785, 0.5634914149559336, 0.578989988352987, 0.5966604646382621, 0.6136076559632784, 0.6287532908754656, 0.6469463482280844, 0.6634921317599947, 0.6789671531660133, 0.6967697253858205, 0.7136356794144376, 0.7287499116791878, 0.7469477476915927, 0.7634771472294233, 0.7790159979413147, 0.7968332474847557, 0.8137326521682553, 0.8287496044795262, 0.8469658724861802, 0.8632955921275425, 0.8790412907328573, 0.896886188260396, 0.9136139023612486, 0.9288895852077985, 0.9471454478625674, 0.9634307941887528, 0.9789891008913401, 0.9965554705631803, 1.0136391951455153, 1.0285254168629763, 1.0468850447941804]
21	皇帝	True	inanimate	animate	right	0.9	[0.0, 0.0, 0.0, 0.0, 0.0, 0.0, 0.0, 0.0, 1.0, 12.0, 23.0, 30.0, 34.0, 34.0, 34.0, 34.0, 34.0, 34.0, 34.0, 34.0, 34.0, 34.0, 41.0, 49.0, 63.0, 87.0, 109.0, 124.0, 186.0, 248.0, 321.0, 393.0, 450.0, 498.0, 533.0, 566.0, 573.0, 586.0, 587.0, 589.0, 591.0, 597.0, 609.0, 622.0, 630.0, 634.0, 644.0, 653.0, 672.0, 702.0, 720.0, 732.0, 738.0, 738.0, 738.0]	[-490.0, -490.0, -490.0, -490.0, -490.0, -490.0, -490.0, -490.0, -488.0, -468.0, -450.0, -433.0, -426.0, -415.0, -415.0, -415.0, -415.0, -415.0, -415.0, -415.0, -415.0, -415.0, -416.0, -417.0, -419.0, -415.0, -401.0, -387.0, -330.0, -274.0, -180.0, -75.0, 27.0, 109.0, 159.0, 205.0, 215.0, 234.0, 238.0, 242.0, 248.0, 260.0, 274.0, 288.0, 297.0, 302.0, 311.0, 316.0, 332.0, 353.0, 366.0, 375.0, 379.0, 379.0, 379.0]	[0.008257395238615572, 0.013336773969058413, 0.017378499898768496, 0.034042384701024275, 0.049805832633865066, 0.0652484273959999, 0.0831854848729563, 0.09999648427037755, 0.11498954326089006, 0.1332372139149811, 0.1498137174276053, 0.1652191068715183, 0.18313295370171545, 0.20000914773117984, 0.21497660673048813, 0.23339938130084192, 0.24977688758372096, 0.26525566365307895, 0.2829196546081221, 0.2999774378768052, 0.31472985698928824, 0.3332212395253009, 0.34979842570464825, 0.365207228482177, 0.3831094699780806, 0.39997883734758943, 0.41496643500431674, 0.43345576954015996, 0.44961891859566094, 0.46524105459684506, 0.48315319475659635, 0.49984472754294984, 0.5150900317385094, 0.5332134571290226, 0.5496506967101595, 0.5652513287277543, 0.5830201089629554, 0.5999669589509722, 0.6150084872497246, 0.6332288512567175, 0.6497149014758179, 0.6652930055061006, 0.6830549590740702, 0.6999267157734721, 0.7147129268632852, 0.7332524373778142, 0.7496548609778984, 0.7652124850137625, 0.783132475837192, 0.8000161791933351, 0.8150631688185968, 0.8332767061656341, 0.8495159725134727, 0.8652091058102087, 0.8830161153600784]
22	蚂蚁	True	animate	inanimate	left	1.109	[0.0, 0.0, 0.0, 0.0, 0.0, 0.0, 0.0, 0.0, 2.0, 4.0, 8.0, 11.0, 13.0, 13.0, 13.0, 13.0, 13.0, 13.0, 13.0, 13.0, 13.0, 13.0, 13.0, 16.0, 23.0, 37.0, 55.0, 86.0, 159.0, 215.0, 239.0, 309.0, 358.0, 393.0, 423.0, 447.0, 465.0, 481.0, 493.0, 502.0, 510.0, 518.0, 518.0, 515.0, 502.0, 479.0, 430.0, 341.0, 217.0, 63.0, -106.0, -260.0, -442.0, -548.0, -634.0, -692.0, -731.0, -752.0, -765.0, -774.0, -777.0, -777.0, -777.0, -777.0, -777.0, -777.0, -777.0]	[-490.0, -490.0, -490.0, -490.0, -490.0, -490.0, -490.0, -491.0, -476.0, -450.0, -434.0, -429.0, -427.0, -427.0, -427.0, -427.0, -427.0, -427.0, -427.0, -427.0, -427.0, -427.0, -427.0, -427.0, -427.0, -427.0, -416.0, -389.0, -302.0, -211.0, -156.0, 12.0, 120.0, 213.0, 269.0, 309.0, 335.0, 358.0, 374.0, 390.0, 404.0, 423.0, 430.0, 436.0, 437.0, 437.0, 425.0, 398.0, 367.0, 344.0, 329.0, 329.0, 329.0, 345.0, 368.0, 388.0, 401.0, 409.0, 415.0, 417.0, 417.0, 417.0, 417.0, 417.0, 417.0, 417.0, 417.0]	[0.0009921189630404115, 0.00544207934581209, 0.01673645223490894, 0.035445605317363515, 0.05156950106174918, 0.0669888851698488, 0.08491604399023345, 0.10185572598129511, 0.11678017701342469, 0.1351230796208256, 0.1516221005076659, 0.1670264659478562, 0.1849700087623205, 0.20174243750807364, 0.21674402982898755, 0.23503402579808608, 0.25151188402378466, 0.2669800787771237, 0.28484477362508187, 0.30171823698765365, 0.3167269973055227, 0.33507775057660183, 0.351584963456844, 0.36698352624080144, 0.38483593309501885, 0.40171042046131333, 0.4164758102342603, 0.4350358007286559, 0.4515064909646753, 0.466975027040462, 0.48489877253450686, 0.501831627865613, 0.5165328470029635, 0.5351245814817958, 0.551563186403655, 0.5670149971556384, 0.5847506680729566, 0.6016391500961618, 0.6167277823697077, 0.6349027490650769, 0.6512375887032249, 0.6670058152958518, 0.6847797155278386, 0.7017583095002919, 0.7168377257839893, 0.7351963297114708, 0.7515154680222622, 0.7669703507781378, 0.784799546985596, 0.8016668663476594, 0.8167722239450086, 0.8348953079985222, 0.8512451662973035, 0.866958096921735, 0.8847992397859343, 0.9017266337832552, 0.9167531434213743, 0.9350718113782932, 0.9515302136205719, 0.9669854377061711, 0.9847467086074175, 1.0016805879422463, 1.0167647828857298, 1.034992997549125, 1.05145105846168, 1.0669796691727242, 1.0848146680436912]
23	蜗牛	True	inanimate	animate	right	0.966	[0.0, 0.0, 0.0, 0.0, 0.0, 0.0, 0.0, 0.0, 5.0, 8.0, 12.0, 12.0, 12.0, 12.0, 12.0, 12.0, 10.0, 7.0, 7.0, 16.0, 33.0, 50.0, 85.0, 125.0, 150.0, 249.0, 324.0, 399.0, 508.0, 537.0, 584.0, 609.0, 622.0, 625.0, 621.0, 612.0, 600.0, 593.0, 586.0, 578.0, 574.0, 573.0, 573.0, 573.0, 573.0, 574.0, 621.0, 657.0, 694.0, 731.0, 760.0, 781.0, 796.0, 799.0, 799.0, 799.0, 799.0, 799.0]	[-490.0, -490.0, -490.0, -490.0, -490.0, -490.0, -487.0, -484.0, -482.0, -481.0, -481.0, -482.0, -487.0, -492.0, -492.0, -492.0, -501.0, -507.0, -517.0, -527.0, -527.0, -525.0, -497.0, -456.0, -425.0, -294.0, -185.0, -80.0, 72.0, 116.0, 179.0, 226.0, 251.0, 263.0, 272.0, 277.0, 279.0, 281.0, 281.0, 283.0, 283.0, 284.0, 284.0, 284.0, 284.0, 285.0, 304.0, 322.0, 350.0, 382.0, 404.0, 419.0, 429.0, 430.0, 430.0, 430.0, 430.0, 430.0]	[0.0011812175289378501, 0.005618207251245622, 0.017143321354524232, 0.03558521057857433, 0.051811847602948546, 0.06734045832126867, 0.0852447478173417, 0.10215780582802836, 0.11714096615469316, 0.13547943143203156, 0.15196718832157785, 0.16739135109673953, 0.18526696860499214, 0.20218241594557185, 0.21719151759316446, 0.2355132575466996, 0.25200545177358435, 0.2673480359153473, 0.28529499206342734, 0.3021370527712861, 0.3171758504031459, 0.3354323957246379, 0.3520536138821626, 0.3674187260112376, 0.3853465674983454, 0.4021415242314106, 0.4171417512188782, 0.4354918218232342, 0.4519850400465657, 0.46735493084270274, 0.48517320438986644, 0.5020456437487155, 0.5171335933555383, 0.5353682933564414, 0.5517103009915445, 0.5673529169798712, 0.5851978145074099, 0.6021531978258281, 0.6171431848197244, 0.6355017887544818, 0.6518475510529242, 0.6674259964056546, 0.6851951179778553, 0.7021805386175402, 0.717186226931517, 0.7353294496424496, 0.7518492918534321, 0.7673639079075656, 0.7852036854383186, 0.8021850100776646, 0.8171538344176952, 0.8354796703642933, 0.8516912887353101, 0.8673786193685373, 0.8851293089464889, 0.9021502282266738, 0.9171333885606145, 0.935480728498078]
24	窗户	False	animate	inanimate	right	2.082	[0.0, 0.0, 0.0, 0.0, 0.0, 0.0, -2.0, -4.0, -5.0, -5.0, 0.0, 14.0, 29.0, 50.0, 58.0, 65.0, 67.0, 69.0, 69.0, 69.0, 69.0, 69.0, 69.0, 69.0, 69.0, 69.0, 69.0, 69.0, 69.0, 78.0, 100.0, 144.0, 216.0, 279.0, 373.0, 435.0, 488.0, 533.0, 565.0, 589.0, 604.0, 609.0, 611.0, 611.0, 611.0, 611.0, 611.0, 611.0, 611.0, 611.0, 611.0, 611.0, 611.0, 611.0, 611.0, 611.0, 611.0, 611.0, 611.0, 611.0, 611.0, 611.0, 612.0, 618.0, 623.0, 632.0, 646.0, 656.0, 661.0, 661.0, 661.0, 661.0, 661.0, 661.0, 658.0, 638.0, 616.0, 607.0, 601.0, 599.0, 599.0, 599.0, 599.0, 606.0, 612.0, 629.0, 638.0, 646.0, 655.0, 660.0, 660.0, 660.0, 660.0, 660.0, 660.0, 660.0, 660.0, 660.0, 660.0, 660.0, 660.0, 660.0, 660.0, 660.0, 660.0, 660.0, 660.0, 660.0, 660.0, 660.0, 660.0, 660.0, 660.0, 660.0, 660.0, 660.0, 667.0, 670.0, 677.0, 682.0, 686.0, 689.0, 689.0, 689.0, 689.0]	[-490.0, -490.0, -490.0, -490.0, -490.0, -490.0, -490.0, -483.0, -458.0, -393.0, -257.0, -141.0, -79.0, 77.0, 137.0, 176.0, 197.0, 211.0, 216.0, 217.0, 217.0, 217.0, 217.0, 217.0, 217.0, 217.0, 217.0, 217.0, 217.0, 212.0, 204.0, 204.0, 205.0, 219.0, 249.0, 277.0, 305.0, 333.0, 359.0, 380.0, 395.0, 402.0, 404.0, 404.0, 404.0, 404.0, 404.0, 404.0, 404.0, 404.0, 404.0, 404.0, 404.0, 404.0, 404.0, 404.0, 404.0, 404.0, 404.0, 404.0, 404.0, 404.0, 406.0, 406.0, 406.0, 407.0, 410.0, 410.0, 410.0, 410.0, 410.0, 410.0, 410.0, 410.0, 410.0, 408.0, 402.0, 397.0, 394.0, 393.0, 393.0, 393.0, 393.0, 393.0, 394.0, 399.0, 401.0, 402.0, 404.0, 405.0, 405.0, 405.0, 405.0, 405.0, 405.0, 405.0, 405.0, 405.0, 405.0, 405.0, 405.0, 405.0, 405.0, 405.0, 405.0, 405.0, 405.0, 405.0, 405.0, 405.0, 405.0, 405.0, 405.0, 405.0, 405.0, 405.0, 405.0, 405.0, 405.0, 405.0, 404.0, 404.0, 403.0, 403.0, 403.0]	[0.0020154357625870034, 0.007776798149279784, 0.018839064483472612, 0.037186404420936015, 0.05368952130811522, 0.06906009477097541, 0.08679815502546262, 0.10383238630311098, 0.11878755730867852, 0.137066289287759, 0.15356360350415343, 0.1690812915621791, 0.18677531983121298, 0.2039058070658939, 0.21882821009057807, 0.23710148073587334, 0.25360835227911593, 0.2690843976888573, 0.28685761526139686, 0.3039345131837763, 0.3188087882299442, 0.3371117548595066, 0.35335648254840635, 0.3690977438163827, 0.3868040600864333, 0.4038389740308048, 0.41886821433581645, 0.43703191703389166, 0.4533831406661193, 0.4690711539660697, 0.48685529419162776, 0.5038233068407862, 0.518808173830621, 0.5370800791424699, 0.5535432600518106, 0.5690769907596405, 0.5868334830011008, 0.6039185729241581, 0.6188761332668946, 0.6371770518962876, 0.6536054168172996, 0.6690934088910581, 0.6869345517552574, 0.7038865217400598, 0.7188754847302334, 0.7370603500894504, 0.7536450455954764, 0.7690900296875043, 0.7867939566276618, 0.8039025985344779, 0.8189267188427038, 0.8370979308674578, 0.8534788504839526, 0.8690886984913959, 0.8869277933554258, 0.9038077420482296, 0.9188414196833037, 0.9370443756997702, 0.9534723992837826, 0.9690672286378685, 0.9868814061774174, 1.0038859414707986, 1.0188858271285426, 1.0372358977328986, 1.053347846813267, 1.0691126600795542, 1.0868643736539525, 1.1037822103244253, 1.1188066719696508, 1.1370505879604025, 1.1535233261893154, 1.1691215688697412, 1.1868773784517543, 1.2039576897004736, 1.2188043167698197, 1.2371676993643632, 1.2535407683171798, 1.269043437714572, 1.2868265539436834, 1.303810609242646, 1.3188391668809345, 1.3371786561619956, 1.3533926638629055, 1.3690615625018836, 1.3868610627250746, 1.4038673046816257, 1.4187228064110968, 1.4371626476349775, 1.4537432471479406, 1.4690629619726678, 1.486809214220557, 1.5038506134951604, 1.5188160244942992, 1.5371507351082982, 1.553587292029988, 1.5691022494138451, 1.5869386136182584, 1.6038281196379103, 1.6186706507069175, 1.6371883158863056, 1.653592104827112, 1.6691101342148613, 1.6868420504688402, 1.7038390764282667, 1.7188085834350204, 1.7370804887468694, 1.7534907630106318, 1.7691255283352803, 1.7866338713720324, 1.803764699936437, 1.8188485535429209, 1.8371351361856796, 1.8535297091220855, 1.86911600514577, 1.8868305134092225, 1.9038111553818453, 1.9188100170358666, 1.9371628182998393, 1.9533502020130982, 1.9690839539616718, 1.986844542196195, 2.0039391894461005, 2.0189650164174964, 2.0370874178115628, 2.053499398738495]
25	花瓶	False	inanimate	animate	left	1.689	[0.0, -1.0, -1.0, -1.0, -1.0, -1.0, -2.0, -2.0, -2.0, 0.0, 11.0, 20.0, 30.0, 41.0, 46.0, 46.0, 46.0, 46.0, 46.0, 46.0, 46.0, 46.0, 46.0, 45.0, 41.0, 41.0, 45.0, 50.0, 76.0, 103.0, 139.0, 182.0, 227.0, 278.0, 327.0, 379.0, 423.0, 485.0, 519.0, 533.0, 549.0, 554.0, 555.0, 555.0, 556.0, 557.0, 561.0, 564.0, 572.0, 587.0, 603.0, 611.0, 642.0, 663.0, 682.0, 700.0, 717.0, 729.0, 733.0, 733.0, 733.0, 733.0, 733.0, 733.0, 733.0, 733.0, 733.0, 733.0, 733.0, 733.0, 725.0, 702.0, 653.0, 512.0, 380.0, 307.0, 75.0, -88.0, -230.0, -328.0, -406.0, -457.0, -483.0, -500.0, -508.0, -517.0, -526.0, -530.0, -551.0, -572.0, -605.0, -636.0, -660.0, -676.0, -692.0, -707.0, -713.0, -721.0, -723.0, -723.0, -723.0, -723.0]	[-490.0, -491.0, -491.0, -491.0, -491.0, -491.0, -491.0, -491.0, -491.0, -483.0, -469.0, -455.0, -432.0, -411.0, -403.0, -402.0, -402.0, -402.0, -402.0, -402.0, -402.0, -402.0, -402.0, -404.0, -406.0, -409.0, -411.0, -412.0, -405.0, -388.0, -361.0, -324.0, -264.0, -183.0, -95.0, 4.0, 96.0, 215.0, 268.0, 292.0, 318.0, 329.0, 332.0, 336.0, 337.0, 339.0, 343.0, 345.0, 348.0, 351.0, 356.0, 360.0, 367.0, 375.0, 380.0, 385.0, 392.0, 397.0, 398.0, 398.0, 398.0, 398.0, 398.0, 398.0, 398.0, 398.0, 398.0, 398.0, 398.0, 398.0, 398.0, 396.0, 385.0, 344.0, 309.0, 287.0, 238.0, 210.0, 199.0, 199.0, 199.0, 209.0, 218.0, 228.0, 239.0, 255.0, 265.0, 270.0, 284.0, 292.0, 304.0, 315.0, 324.0, 336.0, 349.0, 362.0, 371.0, 383.0, 385.0, 385.0, 385.0, 385.0]	[0.007953267398988828, 0.012148251917096786, 0.01639443641033722, 0.032912571950873826, 0.049010526374331675, 0.0647442783229053, 0.08254548520926619, 0.09955275116226403, 0.11449904751498252, 0.13264124622219242, 0.14924164305557497, 0.16462928317923797, 0.18257419132714858, 0.19939747871103464, 0.2144045323584578, 0.2327092056584661, 0.24921198120864574, 0.2646603786270134, 0.2825534041330684, 0.2994336941628717, 0.3144472331405268, 0.3326880771346623, 0.3491870980215026, 0.3646614367607981, 0.3824971182984882, 0.39942792562942486, 0.41421140605962137, 0.43273623924324056, 0.4492478894535452, 0.4646355295772082, 0.4825333337430493, 0.49972457827971084, 0.514149658891256, 0.5325454681369592, 0.5489830490550958, 0.5646188383834669, 0.5824429145941394, 0.5993365166068543, 0.614169831678737, 0.6325632515945472, 0.6491629657684825, 0.6646263818474836, 0.6824477273912635, 0.6995410093077226, 0.7141688418123522, 0.7325257390839397, 0.7491227225837065, 0.7646653279589373, 0.7824419588578166, 0.7993328302109148, 0.81440917449072, 0.8326500184848555, 0.8492159406741848, 0.8646639967628289, 0.8825385902746348, 0.8995403949083993, 0.9142057740609744, 0.9326220633010962, 0.9491361028485699, 0.9646746122234617, 0.9824382724618772, 0.9995342850379529, 1.0143740854400676, 1.0326958253936027, 1.0488753584431834, 1.0646995636780048, 1.0824447919221711, 1.0993240579482517, 1.1144509195364662, 1.132617352901434, 1.149115008454828, 1.1646333791795769, 1.1823748527604039, 1.199258556116547, 1.2142239671229618, 1.2325975897110766, 1.2492781998371356, 1.2646221493196208, 1.282417553535197, 1.2994138968351763, 1.3141413986304542, 1.3326027438452002, 1.3490768474075594, 1.3646334474469768, 1.38237799302442, 1.3993378136729007, 1.414381048642099, 1.4326078979720478, 1.4491434415103868, 1.4646532788974582, 1.482376320491312, 1.4993948504488799, 1.5141527308878722, 1.5326632280775812, 1.5491438169774483, 1.5646249823839753, 1.5824203866068274, 1.5992556206474546, 1.6144073995601502, 1.6326458542243927, 1.649216555073508, 1.6646540298315813]
26	楼梯	False	inanimate	animate	left	1.351	[0.0, 0.0, 0.0, 0.0, 0.0, 0.0, 0.0, 0.0, 0.0, -2.0, -2.0, 0.0, 8.0, 19.0, 53.0, 67.0, 129.0, 168.0, 208.0, 253.0, 292.0, 324.0, 346.0, 363.0, 370.0, 373.0, 373.0, 373.0, 373.0, 373.0, 373.0, 373.0, 373.0, 373.0, 373.0, 373.0, 373.0, 373.0, 373.0, 373.0, 373.0, 373.0, 373.0, 373.0, 391.0, 416.0, 453.0, 493.0, 538.0, 569.0, 584.0, 585.0, 585.0, 574.0, 534.0, 445.0, 331.0, 197.0, 69.0, -42.0, -155.0, -253.0, -331.0, -394.0, -454.0, -483.0, -502.0, -518.0, -526.0, -536.0, -549.0, -562.0, -584.0, -610.0, -662.0, -681.0, -732.0, -760.0, -779.0, -797.0, -803.0, -803.0]	[-490.0, -490.0, -490.0, -490.0, -490.0, -490.0, -490.0, -490.0, -490.0, -486.0, -474.0, -459.0, -439.0, -415.0, -336.0, -302.0, -166.0, -77.0, 10.0, 85.0, 147.0, 191.0, 216.0, 234.0, 243.0, 246.0, 246.0, 246.0, 246.0, 246.0, 246.0, 246.0, 246.0, 246.0, 246.0, 246.0, 245.0, 245.0, 245.0, 244.0, 244.0, 244.0, 243.0, 242.0, 245.0, 254.0, 270.0, 288.0, 310.0, 329.0, 341.0, 341.0, 342.0, 342.0, 337.0, 324.0, 310.0, 296.0, 294.0, 294.0, 294.0, 294.0, 294.0, 302.0, 319.0, 328.0, 334.0, 337.0, 339.0, 343.0, 344.0, 346.0, 348.0, 348.0, 348.0, 348.0, 349.0, 354.0, 357.0, 362.0, 365.0, 365.0]	[0.013516997882106807, 0.01945448817423312, 0.025227114550943952, 0.04400112094299402, 0.060201475316716824, 0.07572189403435914, 0.09364563952112803, 0.11052183355059242, 0.12527459399279905, 0.14366391791554634, 0.1600718028494157, 0.17571783217135817, 0.19364874565508217, 0.21066659293865087, 0.2254811346938368, 0.24376225599553436, 0.2602588875524816, 0.27568714632070623, 0.29359587314684177, 0.3103894645537366, 0.325489019487577, 0.34388141539966455, 0.35999438848375576, 0.3757264337618835, 0.3935573366325116, 0.41046629864285933, 0.425584968237672, 0.44370839362818515, 0.46017293986369623, 0.47578381186758634, 0.49335564287321176, 0.5104461941227783, 0.5255064957455033, 0.5438340383625473, 0.5599910434248159, 0.5757497126833186, 0.5935918795512407, 0.6103957109444309, 0.6255037992086727, 0.6437251872193883, 0.6601887094511767, 0.6757135655061575, 0.6935106763921794, 0.7104861983680166, 0.725502809342288, 0.7439030559253297, 0.7600003276820644, 0.7756763943252736, 0.793522315856535, 0.8104363978563924, 0.8254728061583592, 0.8437713354578591, 0.8601853643849608, 0.875698615112924, 0.8935257633202127, 0.9104790986384614, 0.925383411005896, 0.9439130228565773, 0.9599792332955985, 0.9756843132563517, 0.9934950774695608, 1.0106095220398856, 1.025475263762928, 1.043698017099814, 1.0600144247437129, 1.0757956219968037, 1.0936159435368609, 1.1105242228804855, 1.1253732392797247, 1.1439397151043522, 1.1599267362544197, 1.1757075921777869, 1.193481151072774, 1.2104498463886557, 1.2254869373573456, 1.2436871626996435, 1.2601687755959574, 1.2757069436411257, 1.293503713197424, 1.3104089205371565, 1.3252893395911087, 1.3438530847488437]
27	观众	True	inanimate	animate	right	1.008	[0.0, 0.0, 0.0, 0.0, 0.0, 0.0, 0.0, -4.0, -6.0, -6.0, -10.0, -22.0, -44.0, -60.0, -63.0, -63.0, -63.0, -63.0, -63.0, -43.0, -31.0, -19.0, -10.0, -1.0, 15.0, 37.0, 71.0, 131.0, 217.0, 337.0, 372.0, 469.0, 518.0, 553.0, 568.0, 575.0, 575.0, 575.0, 575.0, 575.0, 575.0, 575.0, 575.0, 575.0, 575.0, 575.0, 575.0, 577.0, 593.0, 613.0, 633.0, 648.0, 670.0, 683.0, 689.0, 702.0, 707.0, 707.0, 707.0, 707.0, 707.0, 707.0]	[-490.0, -490.0, -490.0, -490.0, -490.0, -490.0, -490.0, -484.0, -462.0, -427.0, -369.0, -300.0, -246.0, -238.0, -238.0, -238.0, -238.0, -238.0, -240.0, -286.0, -293.0, -294.0, -298.0, -300.0, -300.0, -296.0, -275.0, -228.0, -141.0, 15.0, 66.0, 183.0, 227.0, 249.0, 258.0, 260.0, 260.0, 260.0, 260.0, 260.0, 260.0, 260.0, 260.0, 260.0, 260.0, 260.0, 260.0, 261.0, 268.0, 280.0, 300.0, 317.0, 338.0, 349.0, 353.0, 363.0, 366.0, 367.0, 367.0, 367.0, 367.0, 367.0]	[0.015313434298150241, 0.031022610251966398, 0.03797898002812872, 0.0470133860653732, 0.06388411876105238, 0.07889390307536814, 0.09722827235236764, 0.11349245603196323, 0.1291401920170756, 0.14702229486283613, 0.16393774220341584, 0.1786666093248641, 0.19712078654265497, 0.21372630337282317, 0.22913203415373573, 0.24703632365708472, 0.2638521017142921, 0.2788700780220097, 0.2971453966674744, 0.3137178041797597, 0.32910373763297684, 0.3469858404787374, 0.36402246109355474, 0.3786636055956478, 0.3971696654552943, 0.41367687833553646, 0.4291385877513676, 0.44695651996153174, 0.4638774286286207, 0.478931927587837, 0.4971898382427753, 0.5135885071795201, 0.5291208725611796, 0.5469074021166307, 0.5640310626840801, 0.578872228419641, 0.5971414030645974, 0.6136144826305099, 0.6291321706885356, 0.6469398629051284, 0.6638744248994044, 0.6789173185316031, 0.6971417785316589, 0.7133851408871124, 0.7291530261427397, 0.7469279503784492, 0.7640819895968889, 0.7786613527932786, 0.797093343360757, 0.8135882682472584, 0.8291247296219808, 0.8469392485058052, 0.8638526478462154, 0.8788952001414145, 0.8971060068215593, 0.9136739770037821, 0.9290977984419442, 0.9469020773249213, 0.963924703275552, 0.978890796941414, 0.9972347235525376, 1.0136115471686935]
28	河流	False	animate	inanimate	right	1.291	[0.0, 0.0, 0.0, 0.0, 0.0, 0.0, 0.0, -2.0, 4.0, 11.0, 35.0, 45.0, 53.0, 59.0, 66.0, 72.0, 72.0, 72.0, 72.0, 72.0, 72.0, 72.0, 72.0, 72.0, 59.0, 50.0, 48.0, 53.0, 73.0, 98.0, 144.0, 240.0, 306.0, 341.0, 431.0, 467.0, 493.0, 514.0, 533.0, 548.0, 553.0, 554.0, 554.0, 554.0, 554.0, 554.0, 554.0, 554.0, 554.0, 552.0, 532.0, 506.0, 426.0, 377.0, 253.0, 10.0, -145.0, -206.0, -273.0, -275.0, -267.0, -236.0, -135.0, 9.0, 238.0, 303.0, 436.0, 586.0, 639.0, 663.0, 691.0, 693.0, 693.0, 693.0, 692.0, 692.0, 692.0, 692.0]	[-490.0, -490.0, -490.0, -490.0, -490.0, -490.0, -490.0, -476.0, -453.0, -436.0, -366.0, -308.0, -243.0, -186.0, -163.0, -152.0, -152.0, -152.0, -152.0, -152.0, -152.0, -152.0, -152.0, -152.0, -166.0, -172.0, -174.0, -176.0, -176.0, -164.0, -136.0, -65.0, 1.0, 38.0, 130.0, 171.0, 198.0, 218.0, 234.0, 248.0, 256.0, 260.0, 260.0, 260.0, 260.0, 260.0, 260.0, 260.0, 260.0, 260.0, 259.0, 254.0, 245.0, 245.0, 245.0, 261.0, 278.0, 282.0, 300.0, 320.0, 342.0, 359.0, 378.0, 382.0, 382.0, 382.0, 387.0, 392.0, 395.0, 400.0, 407.0, 411.0, 415.0, 419.0, 423.0, 424.0, 424.0, 424.0]	[0.007932104737847112, 0.012707355628663208, 0.01670266025030287, 0.0328501079857233, 0.04912931031140033, 0.06459511572757037, 0.08242772526864428, 0.0992882179634762, 0.11427683962392621, 0.13256956625991734, 0.14914880043943413, 0.16452346990263322, 0.18236256476666313, 0.19939133471052628, 0.2142854070843896, 0.23265322701627156, 0.24891399735497544, 0.26456651200714987, 0.28235611356649315, 0.2992401582596358, 0.3143704331741901, 0.33260137851175386, 0.3490894767382997, 0.36455698881763965, 0.3823609263636172, 0.39944089628988877, 0.4143772939714836, 0.4325635246641468, 0.44901168690557824, 0.46453586029383587, 0.4823759791615885, 0.49916274389397586, 0.5140796855921508, 0.5325154308229685, 0.5490769156749593, 0.5645741237385664, 0.5823241306497948, 0.5994880685320823, 0.614067431735748, 0.6324895236321026, 0.6488462085908395, 0.6645171552372631, 0.6821825115257525, 0.6992570201182389, 0.7141336845015758, 0.7326455470174551, 0.7488667227153201, 0.7645854560032603, 0.78228289760591, 0.7993324888739153, 0.8140470200087293, 0.8325158745574299, 0.8488940634997562, 0.8645288288316806, 0.8823197957244702, 0.8992820057028439, 0.9142385420418577, 0.9325261486810632, 0.9489517829351826, 0.9645578762792866, 0.9823365551783354, 0.9993738584526, 1.014044016279513, 1.0325115054874914, 1.048998921047314, 1.0645811210706597, 1.0821020934308763, 1.099280367307074, 1.1144307808790472, 1.1325862915837206, 1.149023189835134, 1.1645425845563295, 1.1823898714210372, 1.1994418520189356, 1.2142191884558997, 1.2325702830567025, 1.2490044506484992, 1.2645689013443189]
29	新娘	True	animate	inanimate	left	1.266	[0.0, 0.0, 0.0, 0.0, 0.0, 0.0, 0.0, 0.0, 0.0, 1.0, 19.0, 30.0, 57.0, 103.0, 121.0, 125.0, 144.0, 152.0, 156.0, 161.0, 168.0, 175.0, 184.0, 185.0, 194.0, 194.0, 194.0, 194.0, 194.0, 194.0, 194.0, 194.0, 194.0, 187.0, 181.0, 181.0, 191.0, 217.0, 249.0, 265.0, 368.0, 455.0, 525.0, 583.0, 625.0, 649.0, 666.0, 666.0, 667.0, 667.0, 666.0, 666.0, 665.0, 665.0, 654.0, 638.0, 591.0, 481.0, 310.0, 94.0, -119.0, -378.0, -532.0, -595.0, -753.0, -820.0, -846.0, -856.0, -858.0, -858.0, -858.0, -858.0, -858.0, -858.0, -858.0, -858.0, -858.0]	[-490.0, -490.0, -490.0, -490.0, -490.0, -490.0, -490.0, -490.0, -490.0, -469.0, -395.0, -360.0, -265.0, -64.0, 53.0, 100.0, 171.0, 181.0, 184.0, 184.0, 184.0, 184.0, 184.0, 184.0, 180.0, 180.0, 180.0, 180.0, 180.0, 180.0, 180.0, 180.0, 178.0, 168.0, 157.0, 156.0, 156.0, 156.0, 164.0, 167.0, 197.0, 226.0, 256.0, 296.0, 329.0, 348.0, 362.0, 362.0, 363.0, 366.0, 367.0, 367.0, 368.0, 369.0, 369.0, 369.0, 360.0, 346.0, 337.0, 337.0, 337.0, 337.0, 339.0, 343.0, 364.0, 376.0, 382.0, 385.0, 387.0, 387.0, 387.0, 387.0, 387.0, 387.0, 387.0, 387.0, 387.0]	[0.014586735996999778, 0.020926999415678438, 0.027572414677706547, 0.04599894391139969, 0.06238191152078798, 0.07782279961975291, 0.09569193180504953, 0.11268622709758347, 0.12736867291823728, 0.1458566421206342, 0.16218260709138121, 0.17781464175641304, 0.19557932599127525, 0.21250910932576517, 0.22763972557731904, 0.2458170816025813, 0.262351259807474, 0.2778587078646524, 0.2956800534084323, 0.3126606953810551, 0.3273438238611561, 0.34580175574228633, 0.36233354461728595, 0.3778201713503222, 0.39562615690374514, 0.4125385322404327, 0.4276128285273444, 0.4458256832003826, 0.462300469429465, 0.47782908014778513, 0.4956671510153683, 0.5127539476015954, 0.5273493534623412, 0.545851999988372, 0.562128812984156, 0.5778513009354356, 0.5955415745484061, 0.6126160831336165, 0.627602656793897, 0.64583906345797, 0.6623169216909446, 0.6778776177234249, 0.6955931499833241, 0.7127355838747462, 0.7273671710499912, 0.7458145216078265, 0.7624753344061901, 0.7778831131872721, 0.7956566720895353, 0.8126168340677395, 0.8276283250525012, 0.8458951103675645, 0.8623146006211755, 0.8778705179938697, 0.8956997141940519, 0.9127653481264133, 0.9274000072982744, 0.9458234645353514, 0.9620832108776085, 0.9778442694732803, 0.9956475243598106, 1.0125281557120616, 1.027677545294864, 1.0458948372979648, 1.0623522155365208, 1.0778347462764941, 1.095613425175543, 1.1125701738274074, 1.1275676701479824, 1.1458822421045625, 1.1623078763586818, 1.177816348419583, 1.1955660140010878, 1.212655199917208, 1.2276724935582024, 1.2458669162442675, 1.262279579845199]
30	筷子	False	inanimate	animate	left	1.334	[0.0, 0.0, 0.0, 0.0, 0.0, 0.0, 0.0, 7.0, 21.0, 48.0, 81.0, 119.0, 157.0, 201.0, 216.0, 222.0, 226.0, 226.0, 226.0, 226.0, 226.0, 226.0, 226.0, 219.0, 216.0, 216.0, 235.0, 248.0, 310.0, 363.0, 433.0, 518.0, 601.0, 684.0, 793.0, 816.0, 846.0, 861.0, 864.0, 864.0, 862.0, 860.0, 857.0, 857.0, 857.0, 857.0, 857.0, 854.0, 843.0, 802.0, 755.0, 715.0, 544.0, 371.0, 164.0, -49.0, -241.0, -401.0, -528.0, -634.0, -710.0, -768.0, -791.0, -800.0, -809.0, -810.0, -810.0, -810.0, -810.0, -810.0, -810.0, -810.0, -810.0, -810.0, -810.0, -810.0, -810.0, -810.0, -810.0, -810.0, -810.0]	[-490.0, -490.0, -490.0, -490.0, -490.0, -490.0, -490.0, -480.0, -454.0, -416.0, -364.0, -295.0, -229.0, -154.0, -126.0, -114.0, -102.0, -102.0, -102.0, -102.0, -102.0, -102.0, -102.0, -120.0, -124.0, -124.0, -124.0, -124.0, -96.0, -65.0, -18.0, 40.0, 109.0, 181.0, 274.0, 294.0, 327.0, 350.0, 357.0, 360.0, 364.0, 367.0, 369.0, 369.0, 369.0, 369.0, 369.0, 371.0, 374.0, 381.0, 382.0, 382.0, 382.0, 382.0, 382.0, 385.0, 385.0, 389.0, 391.0, 391.0, 391.0, 391.0, 391.0, 392.0, 393.0, 393.0, 393.0, 393.0, 393.0, 393.0, 393.0, 393.0, 393.0, 393.0, 393.0, 393.0, 393.0, 393.0, 393.0, 393.0, 393.0]	[0.008575859079428483, 0.012639089000003878, 0.017544046488183085, 0.034239333937875926, 0.05050385894719511, 0.06588979240041226, 0.08378588990308344, 0.10073615322471596, 0.11545955901965499, 0.13387448292633053, 0.15021853856160305, 0.16584306389268022, 0.18367123609641567, 0.20055801144917496, 0.2154005425181822, 0.23381956241792068, 0.2503660286165541, 0.2658816686744103, 0.2837501181929838, 0.30059490956773516, 0.31558796855824767, 0.3339540818196838, 0.3503862014040351, 0.3658543961500982, 0.3837672189838486, 0.40062498101906385, 0.4153634054673603, 0.43398142260411987, 0.4503708755437401, 0.46585511295415927, 0.48367236249760026, 0.5007468710900866, 0.5153736795982695, 0.533790310168115, 0.5502705577309825, 0.5658240857665078, 0.5836409939802252, 0.6005663399773766, 0.6155962629491114, 0.6338511016074335, 0.6503528531538905, 0.6658753198717022, 0.6835085908460314, 0.7006872060519527, 0.7156669530450017, 0.7338484050706029, 0.7503126099763904, 0.7658442926913267, 0.7835567529546097, 0.8006476455411757, 0.8156246618673322, 0.8339317244972335, 0.8503914920729585, 0.8658508121516206, 0.8836264190540533, 0.9006565543313627, 0.9153649414729443, 0.9338139986939495, 0.9502048169670161, 0.965870643609378, 0.983454079942021, 1.000520055204106, 1.015606980814482, 1.0338444114750018, 1.050396680329868, 1.0658850137333502, 1.0837599485821556, 1.100620782621263, 1.1156240816053469, 1.1339246588977403, 1.1501618772526854, 1.1659027971909381, 1.1836504147722735, 1.2006754300600733, 1.2156620037203538, 1.233872469063499, 1.2503738792802324, 1.2658523140198668, 1.2836808275606018, 1.300582962903718, 1.3156429231967195]
31	苹果	False	inanimate	animate	left	1.57	[0.0, 0.0, 0.0, 0.0, 0.0, 0.0, 0.0, 0.0, 0.0, 1.0, 4.0, 8.0, 13.0, 17.0, 17.0, 17.0, 17.0, 17.0, 17.0, 17.0, 17.0, 17.0, 17.0, 17.0, 20.0, 35.0, 65.0, 120.0, 228.0, 297.0, 336.0, 434.0, 501.0, 554.0, 596.0, 625.0, 638.0, 644.0, 644.0, 642.0, 636.0, 632.0, 629.0, 621.0, 617.0, 615.0, 615.0, 615.0, 615.0, 615.0, 615.0, 620.0, 654.0, 697.0, 714.0, 746.0, 758.0, 768.0, 770.0, 770.0, 770.0, 770.0, 770.0, 770.0, 770.0, 770.0, 770.0, 743.0, 701.0, 629.0, 553.0, 485.0, 422.0, 340.0, 224.0, 76.0, -89.0, -300.0, -360.0, -517.0, -608.0, -681.0, -730.0, -753.0, -769.0, -788.0, -796.0, -809.0, -820.0, -823.0, -824.0, -824.0, -824.0, -824.0, -824.0]	[-490.0, -490.0, -490.0, -490.0, -490.0, -490.0, -490.0, -490.0, -489.0, -482.0, -466.0, -449.0, -437.0, -431.0, -426.0, -426.0, -426.0, -426.0, -426.0, -426.0, -426.0, -426.0, -426.0, -427.0, -427.0, -427.0, -412.0, -367.0, -284.0, -215.0, -168.0, -27.0, 66.0, 142.0, 200.0, 241.0, 266.0, 282.0, 291.0, 297.0, 300.0, 301.0, 301.0, 301.0, 301.0, 301.0, 301.0, 301.0, 301.0, 301.0, 301.0, 305.0, 327.0, 357.0, 369.0, 397.0, 406.0, 413.0, 415.0, 415.0, 415.0, 415.0, 415.0, 415.0, 415.0, 415.0, 415.0, 409.0, 396.0, 380.0, 370.0, 361.0, 360.0, 360.0, 360.0, 360.0, 360.0, 356.0, 356.0, 356.0, 360.0, 372.0, 378.0, 385.0, 390.0, 397.0, 401.0, 403.0, 406.0, 406.0, 406.0, 406.0, 406.0, 406.0, 406.0]	[0.015587524816510268, 0.020526956956018694, 0.029305704461876303, 0.0475260684688692, 0.06445585179608315, 0.07951410541863879, 0.0978665653601638, 0.1142829836171586, 0.12966413841058966, 0.14760631589160766, 0.16453370988892857, 0.17923424636683194, 0.19772665289929137, 0.21405364187376108, 0.2296716818746063, 0.24754525138996542, 0.26456378134025726, 0.2794803817087086, 0.2978693642944563, 0.31423867857665755, 0.329777529288549, 0.3476091148259002, 0.36453548482677434, 0.3792080319763045, 0.3977178464992903, 0.41428888868540525, 0.4296618514781585, 0.447514941006375, 0.4644290230135084, 0.47942890866397647, 0.49777044593793107, 0.5141397602274083, 0.5296970429262728, 0.5474716258249828, 0.5645717344086734, 0.5792139029072132, 0.5977114294364583, 0.6141124877103721, 0.6296694290795131, 0.6474457186413929, 0.6645369525576825, 0.6794764222431695, 0.6976537782684318, 0.7140981858465238, 0.7296636605460662, 0.7474334647777141, 0.7644007947601494, 0.7794361790583935, 0.7977541643485893, 0.8141176759745576, 0.8296677906764671, 0.8473280269681709, 0.8644097035576124, 0.8794259732021601, 0.8977296224984457, 0.914114979437727, 0.9296432488190476, 0.9473741410765797, 0.9644831243203953, 0.9794587753203814, 0.9978805258870125, 1.0139781389734708, 1.0296804882673314, 1.0475124151416821, 1.0644933984440286, 1.0794629054507823, 1.0976812214503298, 1.1141816076706164, 1.1297085117257666, 1.1474353079829598, 1.1645586272134096, 1.1792113770425203, 1.1976969569150242, 1.2141369271630538, 1.2297409725069883, 1.2472329315496609, 1.2644200800859835, 1.2794612670477363, 1.29766319906048, 1.3141369612931157, 1.329697657325596, 1.3475285601962241, 1.3645484554872382, 1.3792162239769823, 1.3976369505398907, 1.4141427980939625, 1.4296819901355775, 1.4474599863679032, 1.464458377660776, 1.4794459753247793, 1.4977697632784839, 1.5141401015571319, 1.529702504260058, 1.5473067619095673, 1.5643966304924106]
32	药品	False	animate	inanimate	right	0.901	[0.0, 0.0, 0.0, 0.0, 0.0, 0.0, 5.0, 22.0, 39.0, 47.0, 50.0, 50.0, 50.0, 46.0, 46.0, 46.0, 46.0, 46.0, 46.0, 46.0, 48.0, 54.0, 72.0, 84.0, 103.0, 137.0, 182.0, 245.0, 333.0, 412.0, 475.0, 524.0, 553.0, 560.0, 563.0, 563.0, 563.0, 563.0, 563.0, 563.0, 571.0, 589.0, 637.0, 693.0, 779.0, 806.0, 884.0, 911.0, 927.0, 932.0, 932.0, 930.0, 924.0, 921.0]	[-490.0, -490.0, -490.0, -490.0, -490.0, -484.0, -465.0, -435.0, -410.0, -389.0, -374.0, -371.0, -371.0, -378.0, -378.0, -378.0, -378.0, -378.0, -378.0, -378.0, -378.0, -378.0, -375.0, -364.0, -347.0, -318.0, -262.0, -192.0, -87.0, 6.0, 77.0, 131.0, 166.0, 182.0, 194.0, 198.0, 198.0, 198.0, 198.0, 198.0, 202.0, 207.0, 226.0, 249.0, 291.0, 308.0, 365.0, 392.0, 411.0, 424.0, 427.0, 429.0, 429.0, 429.0]	[0.0021919050195720047, 0.007477448976715095, 0.01913636567769572, 0.037678606844565365, 0.05376120127766626, 0.06940142793609994, 0.08728933344536927, 0.10415835947787855, 0.11931082105002133, 0.13754517971392488, 0.15392882999731228, 0.1693864434128045, 0.18710846100293566, 0.20414951894781552, 0.21916169259202434, 0.23744588589761406, 0.25392886412737425, 0.26936497355927713, 0.28724707640503766, 0.30412361176422564, 0.31913442007498816, 0.33747595734894276, 0.3539797569028451, 0.3694059676709003, 0.3872785131825367, 0.40419464318983955, 0.4188958623271901, 0.437515244797396, 0.4537057005072711, 0.46936947915673954, 0.48718707002990413, 0.5040397120683338, 0.5191341470053885, 0.5373705536694615, 0.5538036972575355, 0.5694333425853983, 0.5871567255162518, 0.6041738901330973, 0.6191379358060658, 0.6376596969930688, 0.6536634434596635, 0.6693944647413446, 0.6871656343064387, 0.7041640256065875, 0.7191471859332523, 0.7374286485719495, 0.7540232427490992, 0.7693941575416829, 0.787439417639689, 0.804311174331815, 0.8191646280611167, 0.8375747733007302, 0.8537553303467575, 0.8693805383518338]
33	乌龟	True	animate	inanimate	left	1.17	[0.0, 0.0, 0.0, 0.0, 0.0, 0.0, 0.0, 0.0, 0.0, 0.0, 10.0, 25.0, 41.0, 45.0, 45.0, 45.0, 45.0, 45.0, 45.0, 43.0, 43.0, 43.0, 43.0, 43.0, 43.0, 43.0, 52.0, 65.0, 87.0, 126.0, 184.0, 228.0, 321.0, 351.0, 436.0, 481.0, 513.0, 533.0, 548.0, 565.0, 582.0, 598.0, 612.0, 625.0, 634.0, 634.0, 634.0, 634.0, 634.0, 634.0, 630.0, 610.0, 556.0, 464.0, 346.0, 208.0, 38.0, -130.0, -372.0, -499.0, -584.0, -649.0, -688.0, -711.0, -719.0, -720.0, -720.0, -720.0, -721.0, -721.0, -721.0]	[-490.0, -490.0, -490.0, -490.0, -490.0, -490.0, -490.0, -490.0, -489.0, -481.0, -442.0, -403.0, -360.0, -339.0, -329.0, -329.0, -329.0, -329.0, -329.0, -346.0, -346.0, -346.0, -347.0, -347.0, -348.0, -348.0, -341.0, -323.0, -290.0, -238.0, -149.0, -67.0, 64.0, 112.0, 227.0, 283.0, 323.0, 350.0, 369.0, 389.0, 410.0, 429.0, 441.0, 453.0, 461.0, 461.0, 461.0, 461.0, 461.0, 461.0, 460.0, 452.0, 437.0, 410.0, 379.0, 358.0, 336.0, 336.0, 336.0, 336.0, 337.0, 345.0, 352.0, 354.0, 358.0, 358.0, 358.0, 358.0, 360.0, 360.0, 360.0]	[0.016166084526048508, 0.021247852586384397, 0.030407869235205, 0.04859580658376217, 0.06552285925135948, 0.08050977424863959, 0.09885233551904093, 0.11530220443091821, 0.13072841519897338, 0.14864055536600063, 0.16549217340070754, 0.18054223502986133, 0.1988332549954066, 0.2152025692848838, 0.23074005466332892, 0.24867779481428443, 0.2654997168647242, 0.2804927758552367, 0.2987670704969787, 0.3152657500540954, 0.3308025527658174, 0.34860580764507176, 0.3655157936591422, 0.3805136313094408, 0.3988227419395116, 0.4152671495176037, 0.4308206775531289, 0.44841401254961966, 0.4654543878205004, 0.4804372068174416, 0.4987828400917351, 0.5152255410066573, 0.5307486903911922, 0.5485546759373392, 0.5654138033060008, 0.5805068729168852, 0.598722458256816, 0.6151692551648011, 0.6307436045244685, 0.6482970035358449, 0.665386189459241, 0.6805546936884639, 0.6986743644156377, 0.7152300466041197, 0.7307385186650208, 0.7485554268714623, 0.7655015942000318, 0.7805410744986148, 0.7987600731721614, 0.8152222300705034, 0.8307631287825643, 0.8482817118128878, 0.8655173296574503, 0.8805475939589087, 0.8986884273399482, 0.9150283869748819, 0.9307297122650198, 0.9484657245193375, 0.9653914118534885, 0.9806251107220305, 0.9987171334578306, 1.0151147783981287, 1.0307887970338925, 1.048287924080796, 1.0654754139468423, 1.0805439075629693, 1.0986867889369023, 1.114977596596873, 1.1307492365231155, 1.1485664860665565, 1.165461112082994]
34	鸽子	True	inanimate	animate	right	0.953	[0.0, 0.0, 0.0, 0.0, 0.0, 0.0, 0.0, 0.0, 0.0, 0.0, 0.0, 2.0, 8.0, 23.0, 41.0, 59.0, 91.0, 117.0, 142.0, 164.0, 176.0, 180.0, 184.0, 184.0, 180.0, 177.0, 173.0, 173.0, 173.0, 173.0, 173.0, 173.0, 173.0, 173.0, 173.0, 173.0, 173.0, 181.0, 245.0, 277.0, 390.0, 471.0, 530.0, 579.0, 624.0, 661.0, 688.0, 703.0, 709.0, 713.0, 716.0, 717.0, 717.0, 717.0, 717.0, 717.0, 717.0, 717.0]	[-490.0, -490.0, -490.0, -490.0, -490.0, -490.0, -490.0, -490.0, -490.0, -489.0, -482.0, -467.0, -448.0, -415.0, -369.0, -317.0, -208.0, -122.0, -32.0, 44.0, 89.0, 117.0, 136.0, 147.0, 158.0, 161.0, 163.0, 163.0, 163.0, 163.0, 163.0, 163.0, 163.0, 163.0, 163.0, 163.0, 163.0, 163.0, 173.0, 183.0, 221.0, 259.0, 296.0, 330.0, 365.0, 393.0, 416.0, 429.0, 433.0, 435.0, 436.0, 437.0, 437.0, 437.0, 437.0, 437.0, 437.0, 437.0]	[0.00838949117314769, 0.012632603669771925, 0.01722353465447668, 0.03372255553404102, 0.05003623251832323, 0.0654535686262534, 0.08340018343733391, 0.10024872947542462, 0.11531961242872057, 0.13369494168728124, 0.14995468802226242, 0.1654795440772432, 0.18339919357094914, 0.20029006492404733, 0.21507286268752068, 0.23352840523875784, 0.24981784756528214, 0.26546490088367136, 0.2833326677355217, 0.3002303657485754, 0.3152428807297838, 0.33365814596618293, 0.34970490042178426, 0.36546459368400974, 0.3832241579220863, 0.40014131193311187, 0.41522926153993467, 0.4335397374961758, 0.4498148438287899, 0.4655704410979524, 0.4832672000338789, 0.5001805993742892, 0.5152112050127471, 0.5335698089475045, 0.5497732353178435, 0.5655196165898815, 0.5832494848436909, 0.6002134014925105, 0.6152283058036119, 0.6334746111315326, 0.6499343786999816, 0.6654988294030773, 0.683252590977645, 0.7002178729599109, 0.715266910585342, 0.733643605177349, 0.7497118636165396, 0.7654882822025684, 0.783185723812494, 0.8003609256847994, 0.8152174514107173, 0.8335077887168154, 0.8497658283886267, 0.865471591016103, 0.8832994218901149, 0.9003415038314415, 0.9152471815323224, 0.9335692628155812]
35	歌手	True	inanimate	animate	right	1.103	[0.0, 0.0, 0.0, 0.0, 0.0, 0.0, 0.0, 0.0, 0.0, -1.0, -1.0, -1.0, -1.0, 1.0, 1.0, 1.0, 1.0, 1.0, 1.0, -2.0, -12.0, -13.0, -13.0, -11.0, -5.0, -3.0, -2.0, -2.0, -2.0, -2.0, -2.0, -2.0, -2.0, -2.0, 1.0, 24.0, 75.0, 134.0, 203.0, 279.0, 356.0, 420.0, 484.0, 519.0, 548.0, 553.0, 556.0, 556.0, 556.0, 557.0, 561.0, 562.0, 564.0, 564.0, 564.0, 566.0, 596.0, 616.0, 654.0, 677.0, 699.0, 712.0, 716.0, 718.0, 718.0, 718.0, 718.0]	[-490.0, -490.0, -490.0, -490.0, -490.0, -490.0, -490.0, -490.0, -483.0, -477.0, -457.0, -442.0, -421.0, -396.0, -358.0, -298.0, -214.0, -130.0, -51.0, 8.0, 64.0, 75.0, 100.0, 113.0, 121.0, 125.0, 125.0, 125.0, 125.0, 125.0, 125.0, 125.0, 125.0, 125.0, 126.0, 126.0, 125.0, 131.0, 159.0, 194.0, 238.0, 275.0, 310.0, 331.0, 349.0, 352.0, 357.0, 357.0, 360.0, 364.0, 372.0, 378.0, 379.0, 380.0, 380.0, 381.0, 391.0, 397.0, 409.0, 414.0, 422.0, 425.0, 426.0, 427.0, 427.0, 427.0, 427.0]	[0.01518918902729638, 0.02042216768313665, 0.028526099529699422, 0.04663689559674822, 0.06368716953147668, 0.07861947122000856, 0.0970262031260063, 0.1134494480502326, 0.12888897081575124, 0.14678540964814601, 0.16367423300107475, 0.17868265198922018, 0.19701155993243447, 0.21344709285040153, 0.2289402049209457, 0.2465953212158638, 0.2636100965028163, 0.27874003008764703, 0.2969040741227218, 0.3133699856916792, 0.32890235107333865, 0.34666123264469206, 0.36354288800794166, 0.3786834029160673, 0.3970372281910386, 0.41342531579721253, 0.42891228386724833, 0.4466960827630828, 0.46367399406881304, 0.4787066477074404, 0.49689731573016616, 0.5133437713084277, 0.5288962753402302, 0.5466466235884582, 0.5635033616272267, 0.5785469379188726, 0.5969656164888875, 0.6133571174359531, 0.6289751574367983, 0.646541185778915, 0.6635621050590998, 0.6786855533209746, 0.6968175120346132, 0.7133598822329077, 0.728889175610675, 0.7466357691955636, 0.7636037818374461, 0.778678760791081, 0.796816863497952, 0.8132926737307571, 0.8289171990691102, 0.846673349973571, 0.8636106426347396, 0.8786228162862244, 0.8968343056258163, 0.9133350331758265, 0.9288735425579944, 0.9465525521736708, 0.9637342393762083, 0.9786764397213119, 0.996850723749958, 1.0132893286645412, 1.0288660673613776, 1.0466986768951756, 1.0636591802103794, 1.0786501912007225, 1.0969060538554913]
36	乌鸦	True	inanimate	animate	right	0.79	[0.0, 0.0, 0.0, 0.0, 0.0, 4.0, 12.0, 21.0, 29.0, 31.0, 31.0, 31.0, 31.0, 31.0, 31.0, 31.0, 31.0, 31.0, 31.0, 37.0, 65.0, 100.0, 144.0, 198.0, 260.0, 342.0, 497.0, 552.0, 718.0, 811.0, 874.0, 904.0, 910.0, 910.0, 907.0, 900.0, 898.0, 895.0, 895.0, 895.0, 895.0, 894.0, 886.0, 874.0, 865.0, 861.0, 860.0, 860.0]	[-490.0, -490.0, -490.0, -489.0, -488.0, -486.0, -478.0, -475.0, -473.0, -471.0, -471.0, -471.0, -471.0, -471.0, -471.0, -471.0, -471.0, -471.0, -471.0, -471.0, -464.0, -455.0, -436.0, -398.0, -343.0, -266.0, -104.0, -39.0, 151.0, 261.0, 346.0, 388.0, 402.0, 406.0, 411.0, 414.0, 414.0, 415.0, 415.0, 415.0, 415.0, 415.0, 416.0, 417.0, 418.0, 418.0, 418.0, 418.0]	[0.007883976766606793, 0.016404335074184928, 0.030286013294244185, 0.049580894083192106, 0.06545152062608395, 0.0803216996791889, 0.09883731686568353, 0.11523769247287419, 0.13068028722773306, 0.1484616967936745, 0.16546042942354688, 0.18044120042031864, 0.19877966569765704, 0.21526059592724778, 0.2307107000160613, 0.2486037255221163, 0.2655911941546947, 0.28047297853481723, 0.2988278278062353, 0.3153043206984876, 0.3306824034953024, 0.3486122929825797, 0.3654536710237153, 0.3804962233261904, 0.39870293399872025, 0.41521321888285456, 0.4306834616290871, 0.4482825992818107, 0.46549159313872224, 0.4804416441547801, 0.49871525612979895, 0.5153634396046982, 0.5306971490863361, 0.5485679879348027, 0.5654598832916236, 0.5804638649424305, 0.5987879942258587, 0.6152197724804864, 0.6307296098675579, 0.6485502727446146, 0.6655698266986292, 0.680461851072323, 0.6987187377235387, 0.7152583772622165, 0.730723841341387, 0.7485240242240252, 0.7655920474862796, 0.7804468665490276]
