trialIndex	stimulus	isAnimate	left_option	right_option	response	response_time	xTrajectory	yTrajectory	tTrajectory
0	卡车	False	animate	inanimate	right	1.646	[0.0, 0.0, 0.0, 0.0, 0.0, 0.0, 0.0, 0.0, 0.0, 0.0, 0.0, 1.0, 3.0, 15.0, 37.0, 43.0, 59.0, 64.0, 64.0, 64.0, 64.0, 64.0, 64.0, 64.0, 64.0, 64.0, 64.0, 64.0, 64.0, 64.0, 64.0, 64.0, 82.0, 106.0, 144.0, 154.0, 155.0, 159.0, 159.0, 161.0, 176.0, 220.0, 236.0, 248.0, 224.0, 180.0, 124.0, 73.0, 16.0, -49.0, -118.0, -201.0, -284.0, -399.0, -433.0, -506.0, -526.0, -535.0, -535.0, -535.0, -535.0, -535.0, -535.0, -535.0, -535.0, -536.0, -536.0, -507.0, -438.0, -307.0, -151.0, 39.0, 243.0, 413.0, 524.0, 556.0, 560.0, 560.0, 560.0, 560.0, 560.0, 560.0, 570.0, 593.0, 626.0, 664.0, 688.0, 698.0, 704.0, 709.0, 716.0, 723.0, 724.0, 724.0, 724.0, 724.0, 724.0, 724.0, 724.0]	[-490.0, -490.0, -490.0, -490.0, -490.0, -490.0, -490.0, -490.0, -490.0, -489.0, -487.0, -486.0, -486.0, -484.0, -484.0, -481.0, -480.0, -480.0, -480.0, -480.0, -480.0, -480.0, -480.0, -480.0, -480.0, -480.0, -480.0, -480.0, -480.0, -480.0, -480.0, -480.0, -486.0, -500.0, -507.0, -507.0, -507.0, -500.0, -487.0, -465.0, -415.0, -279.0, -227.0, -52.0, 63.0, 173.0, 264.0, 328.0, 368.0, 396.0, 423.0, 443.0, 460.0, 476.0, 481.0, 499.0, 501.0, 502.0, 502.0, 502.0, 502.0, 502.0, 502.0, 502.0, 502.0, 503.0, 505.0, 513.0, 525.0, 538.0, 540.0, 540.0, 540.0, 540.0, 540.0, 540.0, 540.0, 540.0, 540.0, 540.0, 540.0, 540.0, 540.0, 540.0, 540.0, 540.0, 540.0, 537.0, 532.0, 522.0, 510.0, 499.0, 496.0, 496.0, 494.0, 494.0, 494.0, 494.0, 494.0]	[0.007448364747688174, 0.012008232879452407, 0.016193317249417305, 0.0320031811716035, 0.04843427112791687, 0.06373657274525613, 0.08184121863450855, 0.09878396685235202, 0.11362205550540239, 0.13207588507793844, 0.14856704964768142, 0.1637328180950135, 0.18183268525172025, 0.19916421186644584, 0.21350805030670017, 0.23193150118459016, 0.24853052699472755, 0.26376899937167764, 0.2818715972825885, 0.29868088429793715, 0.3136302474886179, 0.3320059118559584, 0.3484431457472965, 0.3637447647051886, 0.3819023172836751, 0.3987259402638301, 0.4136497034924105, 0.43192091991659254, 0.4482799886027351, 0.4638335113413632, 0.48163983214180917, 0.49848120438400656, 0.5133373837452382, 0.5319434478878975, 0.5482735033147037, 0.5637242847587913, 0.5815596188185737, 0.5991280305897817, 0.6133261197246611, 0.6319287705700845, 0.6481714446563274, 0.6635054902872071, 0.6816265201196074, 0.6984989537158981, 0.7133367010392249, 0.731962903868407, 0.7482308365870267, 0.7637102900771424, 0.7815504028694704, 0.7987030708463863, 0.8134111117105931, 0.8319796291179955, 0.8507874211063609, 0.863812007359229, 0.8833045134088024, 0.8985054390504956, 0.9164749170886353, 0.9320335597731173, 0.9490988465258852, 0.9637345247901976, 0.9816528027877212, 0.9985764363082126, 1.0167237488785759, 1.031796674709767, 1.0499115604907274, 1.0635915062157437, 1.0830901562003419, 1.0982972258934751, 1.1163745651720092, 1.1315881201298907, 1.1494364249520004, 1.1635713675059378, 1.1825668927049264, 1.1984436578350142, 1.214611921343021, 1.2317417199956253, 1.248641118989326, 1.2635000289883465, 1.2818869572365656, 1.298454921809025, 1.3137404980370775, 1.3316570695023984, 1.3485557857202366, 1.3633778317598626, 1.3818760345457122, 1.3984682337613776, 1.4136753034545109, 1.4316539973951876, 1.448579679010436, 1.4634993462823331, 1.481886615860276, 1.4984381964895874, 1.5136954421177506, 1.5317089520394802, 1.548541449708864, 1.5635857034940273, 1.581949079874903, 1.598061706055887, 1.6137456180294976]
1	沙发	False	animate	inanimate	right	0.917	[0.0, 0.0, 0.0, 0.0, 0.0, 0.0, 0.0, 0.0, 0.0, 0.0, 0.0, 0.0, 0.0, 0.0, 1.0, 1.0, 1.0, 1.0, 1.0, 1.0, 1.0, 4.0, 12.0, 41.0, 63.0, 184.0, 294.0, 416.0, 544.0, 709.0, 748.0, 819.0, 826.0, 830.0, 830.0, 829.0, 829.0, 829.0, 829.0, 829.0, 829.0, 829.0, 829.0, 829.0, 829.0, 829.0, 829.0, 829.0, 829.0, 829.0, 829.0, 821.0, 810.0, 807.0, 807.0, 807.0]	[-490.0, -490.0, -490.0, -490.0, -490.0, -490.0, -490.0, -490.0, -490.0, -490.0, -490.0, -490.0, -490.0, -490.0, -490.0, -490.0, -490.0, -490.0, -490.0, -490.0, -490.0, -490.0, -490.0, -483.0, -471.0, -377.0, -260.0, -122.0, 25.0, 227.0, 279.0, 378.0, 391.0, 402.0, 410.0, 412.0, 412.0, 412.0, 412.0, 412.0, 412.0, 412.0, 412.0, 412.0, 412.0, 412.0, 412.0, 412.0, 412.0, 412.0, 412.0, 412.0, 411.0, 411.0, 411.0, 411.0]	[0.01368588488548994, 0.01784468663390726, 0.025849970523267984, 0.04428741615265608, 0.06071953009814024, 0.07612866896670312, 0.09392474975902587, 0.11097877251449972, 0.12575985863804817, 0.14432974136434495, 0.1607652687234804, 0.17604504234623164, 0.19395649374928325, 0.21088012726977468, 0.22564585332293063, 0.24427649343851954, 0.26048093824647367, 0.27601261576637626, 0.2938694538315758, 0.3109029965708032, 0.3255820240592584, 0.3441778481937945, 0.36053589289076626, 0.3760313889943063, 0.39387628051918, 0.4107749967370182, 0.42562912800349295, 0.4442270001163706, 0.46042120503261685, 0.4758596984902397, 0.49379128857981414, 0.51080810604617, 0.5256291279802099, 0.5443256454309449, 0.5604198396904394, 0.5758573091588914, 0.593783437856473, 0.6107644153526053, 0.6256147919921204, 0.6442983387969434, 0.6604174503590912, 0.6760064717382193, 0.6938465845305473, 0.7107292581349611, 0.7258103758795187, 0.7443218907574192, 0.7605160955572501, 0.775989405112341, 0.7965554035035893, 0.8107879674062133, 0.8257950159022585, 0.8441597576020285, 0.8628323816228658, 0.8759935010457411, 0.8957959375111386, 0.9108319993829355]
2	樱桃	False	inanimate	animate	right	1.646	[0.0, 0.0, 0.0, 0.0, 0.0, 0.0, 0.0, 0.0, 1.0, 1.0, 1.0, 1.0, 1.0, 1.0, 1.0, 1.0, 1.0, 1.0, 2.0, 2.0, 2.0, 2.0, 2.0, 6.0, 17.0, 33.0, 81.0, 166.0, 275.0, 421.0, 465.0, 527.0, 530.0, 526.0, 454.0, 361.0, 250.0, 132.0, 18.0, -76.0, -138.0, -166.0, -178.0, -183.0, -185.0, -187.0, -187.0, -188.0, -188.0, -192.0, -199.0, -220.0, -258.0, -353.0, -473.0, -575.0, -671.0, -701.0, -715.0, -720.0, -721.0, -721.0, -721.0, -716.0, -702.0, -680.0, -634.0, -477.0, -310.0, -201.0, 128.0, 319.0, 479.0, 584.0, 628.0, 632.0, 633.0, 627.0, 622.0, 618.0, 617.0, 617.0, 617.0, 617.0, 617.0, 617.0, 617.0, 622.0, 656.0, 693.0, 713.0, 742.0, 742.0, 742.0, 742.0, 742.0, 742.0, 742.0, 742.0]	[-490.0, -490.0, -490.0, -490.0, -490.0, -490.0, -490.0, -490.0, -490.0, -490.0, -490.0, -490.0, -490.0, -490.0, -490.0, -490.0, -490.0, -490.0, -490.0, -490.0, -490.0, -490.0, -490.0, -490.0, -484.0, -464.0, -398.0, -282.0, -153.0, 68.0, 141.0, 315.0, 378.0, 400.0, 460.0, 489.0, 506.0, 516.0, 516.0, 516.0, 513.0, 502.0, 495.0, 491.0, 489.0, 481.0, 477.0, 474.0, 473.0, 470.0, 467.0, 464.0, 459.0, 457.0, 453.0, 439.0, 412.0, 402.0, 396.0, 393.0, 392.0, 391.0, 388.0, 385.0, 382.0, 382.0, 382.0, 397.0, 421.0, 430.0, 432.0, 432.0, 432.0, 432.0, 432.0, 429.0, 427.0, 422.0, 419.0, 416.0, 415.0, 415.0, 415.0, 415.0, 415.0, 415.0, 415.0, 417.0, 426.0, 431.0, 432.0, 434.0, 434.0, 434.0, 434.0, 434.0, 434.0, 434.0, 434.0]	[0.013634753180667758, 0.018451303709298372, 0.025155084673315287, 0.04395058867521584, 0.06013318814802915, 0.07568978285416961, 0.09349815174937248, 0.11052520922385156, 0.1252414418850094, 0.14390758064109832, 0.1601553747896105, 0.17564609227702022, 0.19352648232597858, 0.21059176907874644, 0.2252994686132297, 0.24393557000439614, 0.2602581160608679, 0.27553550037555397, 0.29366847686469555, 0.3106136143906042, 0.32535886054392904, 0.3439819912891835, 0.3624064662726596, 0.3756733989575878, 0.3957250084495172, 0.41061361436732113, 0.4268665285781026, 0.4438553567742929, 0.4615937522612512, 0.4756641829153523, 0.4943077936768532, 0.5103480573743582, 0.5262019531801343, 0.5437369141727686, 0.5600963241886348, 0.5753586898790672, 0.59367496217601, 0.6103589800186455, 0.6255302097415552, 0.6433856824878603, 0.6602553854463622, 0.6753904338693246, 0.6936012342339382, 0.7103634172817692, 0.7255831162910908, 0.7435287010157481, 0.7602987346472219, 0.7755153616890311, 0.793629223597236, 0.810464110574685, 0.825570828281343, 0.8434402957791463, 0.8603936253348365, 0.8756249296711758, 0.8934459277661517, 0.9100715775275603, 0.9255520550068468, 0.9436194956069812, 0.9602857640711591, 0.9754986363695934, 0.9937889674911276, 1.0104221266228706, 1.0253366738324985, 1.043581607635133, 1.0600652629509568, 1.0755641723517329, 1.0935640289681032, 1.1104880038183182, 1.1255049511091784, 1.143425618414767, 1.1605588304810226, 1.1753508391557261, 1.1939132126281038, 1.2100050175795332, 1.225402892450802, 1.2434863756643608, 1.25997856433969, 1.275779553456232, 1.2951293822843581, 1.3102401960641146, 1.3257251108298078, 1.3439884765539318, 1.3601287507917732, 1.3752450259635225, 1.3937428875360638, 1.4125865193782374, 1.4256199803203344, 1.4448547798674554, 1.462779201916419, 1.4752521939808503, 1.4937295755371451, 1.5120117145124823, 1.5256500175455585, 1.5449657131684944, 1.5604031826369464, 1.5778729490702972, 1.5937422048300505, 1.6111546272877604, 1.6256609403062612]
3	婴儿	True	inanimate	animate	right	1.049	[0.0, 0.0, 0.0, 0.0, 0.0, 0.0, 0.0, 0.0, 0.0, 0.0, 0.0, 0.0, 0.0, 0.0, 0.0, 0.0, 2.0, 7.0, 19.0, 36.0, 65.0, 111.0, 169.0, 274.0, 309.0, 399.0, 431.0, 434.0, 421.0, 309.0, 245.0, -7.0, -93.0, -257.0, -393.0, -467.0, -471.0, -471.0, -471.0, -471.0, -471.0, -463.0, -400.0, -272.0, -94.0, 141.0, 383.0, 686.0, 760.0, 853.0, 854.0, 850.0, 831.0, 817.0, 810.0, 807.0, 805.0, 804.0, 804.0, 804.0, 804.0, 804.0, 804.0, 804.0]	[-490.0, -490.0, -490.0, -490.0, -490.0, -490.0, -490.0, -490.0, -490.0, -490.0, -490.0, -490.0, -490.0, -490.0, -490.0, -490.0, -489.0, -486.0, -478.0, -470.0, -447.0, -395.0, -318.0, -176.0, -127.0, 13.0, 93.0, 157.0, 226.0, 333.0, 367.0, 456.0, 471.0, 492.0, 497.0, 493.0, 493.0, 492.0, 492.0, 492.0, 492.0, 486.0, 475.0, 467.0, 467.0, 467.0, 467.0, 459.0, 454.0, 448.0, 448.0, 448.0, 444.0, 439.0, 437.0, 436.0, 435.0, 434.0, 434.0, 434.0, 434.0, 434.0, 434.0, 434.0]	[0.013808764750137925, 0.018437582184560597, 0.025965341017581522, 0.04440142132807523, 0.06098338053561747, 0.07638023130130023, 0.09432922932319343, 0.11144981207326055, 0.12620837020222098, 0.144604173139669, 0.1608861006097868, 0.17647068458609283, 0.194471565191634, 0.2111699189990759, 0.22629199677612633, 0.24455536250025034, 0.26106905506458133, 0.2764317726250738, 0.2944415279198438, 0.31125047360546887, 0.3259967436315492, 0.34442599723115563, 0.3607976953499019, 0.37633210339117795, 0.39416163484565914, 0.41111223376356065, 0.425953735713847, 0.4444737839512527, 0.46074751939158887, 0.47620205546263605, 0.49410599761176854, 0.5111351030645892, 0.5260540876770392, 0.5446396718034521, 0.56241732055787, 0.5763344927690923, 0.5960556919453666, 0.6111787937115878, 0.6292001543333754, 0.6444181465776637, 0.6616196252871305, 0.6763867166591808, 0.6948514688992873, 0.7110873163910583, 0.7266920390538871, 0.7443468080600724, 0.7615243933396414, 0.7763628233224154, 0.7947917355922982, 0.8110647883731872, 0.8259824076667428, 0.8441334748640656, 0.8625944724772125, 0.8762133194832131, 0.8944234373047948, 0.9108620366314426, 0.9277887421194464, 0.9443048241082579, 0.9621787287760526, 0.9760621089953929, 0.9948842369485646, 1.0109572685323656, 1.0263776713982224, 1.0442802481120452]
4	灯泡	False	animate	inanimate	right	1.113	[0.0, 0.0, 0.0, 0.0, 0.0, 0.0, 0.0, 0.0, 0.0, 0.0, 0.0, 0.0, 0.0, 0.0, 0.0, 1.0, 1.0, 1.0, 1.0, 1.0, 1.0, 4.0, 9.0, 19.0, 21.0, 34.0, 37.0, 37.0, 9.0, -57.0, -156.0, -261.0, -333.0, -382.0, -433.0, -491.0, -536.0, -577.0, -591.0, -606.0, -618.0, -623.0, -623.0, -609.0, -574.0, -476.0, -305.0, -73.0, 169.0, 466.0, 598.0, 640.0, 700.0, 707.0, 707.0, 707.0, 707.0, 707.0, 707.0, 707.0, 707.0, 707.0, 710.0, 710.0, 710.0, 710.0, 710.0]	[-490.0, -490.0, -490.0, -490.0, -490.0, -490.0, -490.0, -488.0, -488.0, -488.0, -488.0, -488.0, -487.0, -487.0, -487.0, -487.0, -487.0, -487.0, -487.0, -487.0, -487.0, -487.0, -484.0, -466.0, -453.0, -366.0, -270.0, -151.0, -9.0, 141.0, 280.0, 377.0, 417.0, 441.0, 460.0, 472.0, 476.0, 474.0, 467.0, 457.0, 445.0, 431.0, 418.0, 402.0, 393.0, 382.0, 371.0, 371.0, 371.0, 396.0, 413.0, 418.0, 420.0, 420.0, 420.0, 422.0, 427.0, 429.0, 429.0, 429.0, 430.0, 433.0, 436.0, 437.0, 437.0, 437.0, 437.0]	[0.0068445466458797455, 0.01171571051236242, 0.019660578458569944, 0.0306665210518986, 0.04716519499197602, 0.0626596671063453, 0.08041239855811, 0.09754049067851156, 0.11223248881287873, 0.1308057849528268, 0.14715666160918772, 0.16254361381288618, 0.18046803586184978, 0.19757018657401204, 0.21241612592712045, 0.23085459554567933, 0.2502057896926999, 0.26244223793037236, 0.2833065614104271, 0.29746744537260383, 0.3124526485335082, 0.33075868093874305, 0.349945011199452, 0.3624313152395189, 0.38244059949647635, 0.3974749547196552, 0.4123307926347479, 0.43076072889380157, 0.4493377797771245, 0.4625070912297815, 0.48205762379802763, 0.49750977067742497, 0.5150979796890169, 0.530751854297705, 0.548373855301179, 0.5625555604929104, 0.5812179445056245, 0.5972940481733531, 0.6131056186277419, 0.6306026917882264, 0.647297632182017, 0.6623046806780621, 0.6807137957075611, 0.6974302401067689, 0.7122611607192084, 0.7302692093653604, 0.7471699735615402, 0.7626224617706612, 0.7804724732413888, 0.797429216094315, 0.8123191873310134, 0.8302681853529066, 0.8486421430716291, 0.8624627179233357, 0.8810336247552186, 0.8971834562253207, 0.9132626318605617, 0.9302873000269756, 0.9471948909340426, 0.9624466752866283, 0.9808110755402595, 0.9971325976075605, 1.012570749851875, 1.030441923881881, 1.047444746713154, 1.0625166485551745, 1.080819267546758]
5	红色	False	inanimate	animate	left	0.888	[0.0, 0.0, 0.0, 0.0, 0.0, 0.0, 0.0, 2.0, 2.0, 2.0, 2.0, 2.0, 2.0, 2.0, 2.0, 2.0, 2.0, 2.0, 2.0, 2.0, 2.0, 4.0, 12.0, 24.0, 42.0, 55.0, 59.0, 59.0, 17.0, -100.0, -149.0, -304.0, -422.0, -522.0, -593.0, -616.0, -620.0, -620.0, -620.0, -622.0, -627.0, -632.0, -640.0, -648.0, -651.0, -656.0, -658.0, -666.0, -682.0, -706.0, -725.0, -727.0, -727.0, -727.0]	[-490.0, -490.0, -490.0, -490.0, -490.0, -490.0, -490.0, -487.0, -486.0, -486.0, -486.0, -486.0, -486.0, -486.0, -486.0, -486.0, -486.0, -486.0, -486.0, -486.0, -485.0, -481.0, -469.0, -445.0, -388.0, -301.0, -189.0, -51.0, 89.0, 255.0, 292.0, 358.0, 382.0, 398.0, 406.0, 406.0, 406.0, 406.0, 406.0, 405.0, 401.0, 399.0, 398.0, 398.0, 398.0, 400.0, 403.0, 411.0, 422.0, 433.0, 439.0, 439.0, 439.0, 439.0]	[0.013949803658761084, 0.018256061361171305, 0.025694732321426272, 0.04441377765033394, 0.06075919303111732, 0.07606490806210786, 0.09407602867577225, 0.11106690485030413, 0.12583706818986684, 0.1445073029026389, 0.16084486769977957, 0.17616764921694994, 0.1941828659037128, 0.21128706459421664, 0.22599749476648867, 0.24445507896598428, 0.2632451216923073, 0.27632978244218975, 0.2969254768686369, 0.31124576332513243, 0.325987596064806, 0.34459843882359564, 0.3631102950312197, 0.37626390520017594, 0.396131536224857, 0.41117374203167856, 0.42757650138810277, 0.44435028976295143, 0.4620337306987494, 0.4762103159446269, 0.49539903551340103, 0.5109853262547404, 0.527122528408654, 0.5442526685073972, 0.5616961523192003, 0.5764775796560571, 0.5949477932881564, 0.6110051235882565, 0.6261906892759725, 0.6440523059573025, 0.6607909370213747, 0.6760942626278847, 0.6939729460282251, 0.7106805158546194, 0.7262063905363902, 0.7440301193855703, 0.7608551076846197, 0.776097676018253, 0.7941845725290477, 0.8109720142092556, 0.8261268599890172, 0.8440212446730584, 0.86203304794617, 0.8761085986625403]
6	将军	True	animate	inanimate	left	1.535	[0.0, 0.0, 0.0, 0.0, 0.0, 0.0, 1.0, 2.0, 2.0, 2.0, 2.0, 2.0, 2.0, 2.0, 2.0, 2.0, 2.0, 2.0, 2.0, 2.0, 2.0, 2.0, 3.0, 8.0, 17.0, 23.0, 17.0, 5.0, -73.0, -173.0, -284.0, -386.0, -471.0, -522.0, -551.0, -565.0, -569.0, -569.0, -569.0, -569.0, -569.0, -569.0, -570.0, -563.0, -545.0, -498.0, -386.0, -210.0, 6.0, 345.0, 448.0, 599.0, 679.0, 692.0, 693.0, 693.0, 693.0, 693.0, 693.0, 692.0, 684.0, 670.0, 654.0, 648.0, 618.0, 552.0, 398.0, 149.0, -94.0, -277.0, -395.0, -441.0, -463.0, -465.0, -469.0, -475.0, -500.0, -520.0, -542.0, -558.0, -576.0, -593.0, -614.0, -641.0, -670.0, -701.0, -729.0, -732.0, -732.0, -732.0, -732.0, -732.0]	[-490.0, -490.0, -490.0, -490.0, -490.0, -489.0, -487.0, -486.0, -486.0, -486.0, -486.0, -486.0, -486.0, -486.0, -486.0, -486.0, -486.0, -486.0, -486.0, -486.0, -486.0, -486.0, -484.0, -476.0, -459.0, -396.0, -313.0, -264.0, -101.0, 30.0, 156.0, 244.0, 293.0, 313.0, 321.0, 326.0, 327.0, 327.0, 327.0, 327.0, 327.0, 327.0, 328.0, 334.0, 342.0, 360.0, 382.0, 408.0, 443.0, 468.0, 470.0, 470.0, 469.0, 466.0, 465.0, 465.0, 465.0, 465.0, 465.0, 463.0, 463.0, 460.0, 458.0, 458.0, 458.0, 458.0, 458.0, 469.0, 478.0, 478.0, 471.0, 464.0, 460.0, 460.0, 457.0, 454.0, 440.0, 430.0, 424.0, 421.0, 421.0, 423.0, 427.0, 430.0, 434.0, 438.0, 443.0, 444.0, 444.0, 444.0, 444.0, 444.0]	[0.00020869099535048008, 0.0055440678261220455, 0.015117435599677265, 0.033653185120783746, 0.05002112849615514, 0.06547190994024277, 0.08339940407313406, 0.10010902176145464, 0.11510924366302788, 0.1333852387033403, 0.15126733540091664, 0.16508756903931499, 0.18401414481922984, 0.20022200304083526, 0.21571681648492813, 0.23360710521228611, 0.2506201680516824, 0.2653480061562732, 0.28379773965571076, 0.2999137792503461, 0.3156191952293739, 0.3333930893568322, 0.35035017353948206, 0.36534322740044445, 0.3837151371408254, 0.40019469638355076, 0.41547754197381437, 0.433413228020072, 0.4504382375162095, 0.4655091152526438, 0.48354003322310746, 0.5001295018009841, 0.515590523253195, 0.5335303052561358, 0.5503549522254616, 0.565359270083718, 0.5837509770644829, 0.600160563015379, 0.6154884645948187, 0.6334855905734003, 0.6504419920966029, 0.6653015847550705, 0.6837322037899867, 0.7004438694566488, 0.7157390031497926, 0.7333319907775149, 0.7503426641924307, 0.7652793981833383, 0.7837151370476931, 0.7999270912259817, 0.815513381967321, 0.833151766913943, 0.8503870374988765, 0.8650793769629672, 0.8835915745003149, 0.8999591765459627, 0.9153444221010432, 0.9333026361418888, 0.9502989735919982, 0.9651797289261594, 0.9836482357932255, 1.0022560065845028, 1.0155546832829714, 1.0347215575166047, 1.0502952189417556, 1.065327184740454, 1.083774187718518, 1.1013589833164588, 1.1155294246273115, 1.135269397054799, 1.150336520280689, 1.167937699938193, 1.1835728011792526, 1.2012972021475434, 1.21548129664734, 1.2336449931608513, 1.2501399123575538, 1.265439824666828, 1.2832041615620255, 1.3020751001313329, 1.3152505555190146, 1.333577750599943, 1.3498869846807793, 1.3665788531070575, 1.3834830306004733, 1.4011722741415724, 1.4153795794118196, 1.4338818782707676, 1.4501648297300562, 1.4654930726392195, 1.483400086639449, 1.5003913041437045]
7	蝌蚪	True	animate	inanimate	left	0.866	[0.0, 0.0, 0.0, 0.0, 0.0, 0.0, 0.0, 0.0, 0.0, 0.0, 0.0, 0.0, 0.0, 0.0, 0.0, 0.0, 0.0, 0.0, 0.0, 0.0, 0.0, 0.0, 0.0, 0.0, -1.0, -1.0, -4.0, -10.0, -33.0, -79.0, -133.0, -219.0, -287.0, -379.0, -486.0, -576.0, -641.0, -693.0, -745.0, -785.0, -795.0, -796.0, -796.0, -796.0, -796.0, -796.0, -796.0, -796.0, -796.0, -796.0, -796.0, -796.0, -796.0]	[-490.0, -490.0, -490.0, -490.0, -490.0, -490.0, -490.0, -490.0, -490.0, -490.0, -490.0, -490.0, -490.0, -490.0, -490.0, -490.0, -490.0, -490.0, -490.0, -490.0, -490.0, -490.0, -490.0, -490.0, -488.0, -479.0, -460.0, -430.0, -364.0, -266.0, -163.0, -3.0, 102.0, 204.0, 290.0, 354.0, 398.0, 424.0, 448.0, 470.0, 478.0, 479.0, 479.0, 480.0, 481.0, 486.0, 488.0, 488.0, 488.0, 488.0, 488.0, 488.0, 488.0]	[0.01534749404527247, 0.020880843978375196, 0.030554563738405704, 0.045757878688164055, 0.06313548516482115, 0.07747181435115635, 0.09664926992263645, 0.11238130985293537, 0.1281485070940107, 0.14590977190528065, 0.16290098940953612, 0.17766944610048085, 0.1960908491164446, 0.21254071244038641, 0.22788260865490884, 0.24574900406878442, 0.26275455753784627, 0.2777517073554918, 0.2961219104472548, 0.3125929363304749, 0.32785905664786696, 0.34600397979374975, 0.36278561886865646, 0.3777619474567473, 0.39622533426154405, 0.4127465361962095, 0.4278863633517176, 0.4459800865733996, 0.46274261083453894, 0.47774761146865785, 0.49597581988200545, 0.5122761792736128, 0.5278696379391477, 0.545593356131576, 0.5627351015573367, 0.5774318783078343, 0.5960382837802172, 0.6122437526937574, 0.6278409659862518, 0.6455029029166326, 0.6626668350072578, 0.6774858089629561, 0.6960167798679322, 0.7123352298513055, 0.7277566567063332, 0.7456274895230308, 0.7626777576515451, 0.7775373503100127, 0.7959904972231016, 0.8148443690733984, 0.8278430140344426, 0.8483199245529249, 0.8626934589119628]
8	兔子	True	animate	inanimate	left	0.811	[0.0, 0.0, 0.0, 0.0, 0.0, 0.0, 0.0, 0.0, 0.0, 0.0, 0.0, 0.0, 0.0, 0.0, 0.0, 0.0, 0.0, 0.0, 0.0, 0.0, 0.0, 0.0, 0.0, 1.0, 3.0, 3.0, -7.0, -52.0, -131.0, -261.0, -410.0, -539.0, -672.0, -703.0, -750.0, -764.0, -768.0, -774.0, -780.0, -783.0, -783.0, -783.0, -783.0, -783.0, -784.0, -784.0, -784.0, -784.0, -784.0]	[-490.0, -490.0, -490.0, -490.0, -490.0, -490.0, -490.0, -490.0, -490.0, -490.0, -490.0, -490.0, -490.0, -490.0, -490.0, -490.0, -490.0, -490.0, -490.0, -490.0, -490.0, -490.0, -491.0, -491.0, -484.0, -463.0, -409.0, -319.0, -198.0, -52.0, 92.0, 204.0, 302.0, 327.0, 364.0, 378.0, 383.0, 388.0, 390.0, 391.0, 391.0, 391.0, 391.0, 391.0, 392.0, 394.0, 395.0, 395.0, 395.0]	[0.014944721013307571, 0.019787554279901087, 0.02793073665816337, 0.046226187725551426, 0.06310749601107091, 0.0780008805450052, 0.09619768639095128, 0.11366438085678965, 0.12824203236959875, 0.14725872012786567, 0.16317644529044628, 0.17875351989641786, 0.1964304755674675, 0.21331861044745892, 0.2279979792656377, 0.2465559154516086, 0.2629620881052688, 0.27830773894675076, 0.29636971827130765, 0.31332031707279384, 0.3283089336473495, 0.34653065679594874, 0.36298086144961417, 0.3782725817291066, 0.39637381420470774, 0.4133336291415617, 0.4282652430702001, 0.4466136007104069, 0.46286549081560224, 0.47830705635715276, 0.4961417077574879, 0.513128146645613, 0.528229744406417, 0.5463582836091518, 0.562911570770666, 0.578289648401551, 0.5960481825750321, 0.6131390692899004, 0.6280788752483204, 0.6461360757239163, 0.6634208397008479, 0.6800413695164025, 0.6967711258912459, 0.7147815638454631, 0.7283427256625146, 0.7467566193081439, 0.7626716137165204, 0.7783364109927788, 0.7976763411425054]
9	书包	False	animate	inanimate	right	1.467	[0.0, 0.0, 0.0, 0.0, 0.0, 0.0, 0.0, 0.0, 0.0, 0.0, 0.0, 0.0, 0.0, 0.0, 0.0, 0.0, 0.0, 0.0, 0.0, 0.0, 0.0, 0.0, -5.0, -41.0, -67.0, -206.0, -309.0, -392.0, -455.0, -517.0, -569.0, -623.0, -655.0, -662.0, -663.0, -663.0, -663.0, -663.0, -663.0, -663.0, -663.0, -671.0, -684.0, -688.0, -688.0, -688.0, -675.0, -540.0, -452.0, -109.0, 136.0, 363.0, 519.0, 603.0, 622.0, 623.0, 623.0, 623.0, 623.0, 623.0, 623.0, 623.0, 623.0, 623.0, 623.0, 623.0, 623.0, 623.0, 623.0, 623.0, 623.0, 623.0, 623.0, 623.0, 623.0, 626.0, 657.0, 703.0, 753.0, 810.0, 861.0, 885.0, 889.0, 889.0, 889.0, 889.0, 889.0, 889.0, 889.0]	[-490.0, -490.0, -490.0, -490.0, -490.0, -490.0, -490.0, -490.0, -490.0, -490.0, -490.0, -490.0, -490.0, -490.0, -490.0, -490.0, -490.0, -490.0, -490.0, -490.0, -490.0, -489.0, -477.0, -413.0, -378.0, -218.0, -102.0, 5.0, 89.0, 179.0, 236.0, 285.0, 314.0, 322.0, 324.0, 324.0, 324.0, 324.0, 324.0, 324.0, 324.0, 331.0, 340.0, 344.0, 345.0, 347.0, 355.0, 392.0, 410.0, 447.0, 447.0, 447.0, 447.0, 447.0, 447.0, 447.0, 447.0, 447.0, 447.0, 447.0, 447.0, 447.0, 447.0, 447.0, 447.0, 447.0, 447.0, 447.0, 447.0, 447.0, 447.0, 447.0, 447.0, 447.0, 447.0, 447.0, 438.0, 424.0, 417.0, 407.0, 403.0, 400.0, 400.0, 400.0, 400.0, 400.0, 400.0, 400.0, 400.0]	[0.01367257279343903, 0.018029347760602832, 0.025753373163752258, 0.044517133152112365, 0.060675498098134995, 0.07626690878532827, 0.09405786963179708, 0.11116923636291176, 0.12580150121357292, 0.14443760260473937, 0.16074103396385908, 0.17608224763534963, 0.19407698418945074, 0.21109892171807587, 0.22577590122818947, 0.24440449324902147, 0.2635816076071933, 0.2761017035227269, 0.29568978282622993, 0.3110525003867224, 0.3287574453279376, 0.3443730906583369, 0.36242653662338853, 0.37612491426989436, 0.3955638309707865, 0.4110228044446558, 0.4287373066181317, 0.44423587480559945, 0.46212138480041176, 0.47616519150324166, 0.4945452931569889, 0.5109528311295435, 0.5258851277176291, 0.5438525577774271, 0.5609185271896422, 0.5760433356044814, 0.5963581129908562, 0.610610474133864, 0.6293032368412241, 0.6441734108375385, 0.6636491914978251, 0.6760658635757864, 0.6965881714131683, 0.7108337059617043, 0.729137007612735, 0.744033464230597, 0.7621841900981963, 0.7760545996716246, 0.7950514900730923, 0.8107623673276976, 0.8265517512336373, 0.8441133361775428, 0.8613448521355167, 0.8760586956050247, 0.89435482933186, 0.9107115087099373, 0.9261100662406534, 0.944079544278793, 0.9610714444424957, 0.9757880185497925, 0.9942514054710045, 1.01095863385126, 1.0261872075498104, 1.043980899034068, 1.0610420897137374, 1.0758190797641873, 1.094348685350269, 1.1105172901879996, 1.1262496714480221, 1.143873379100114, 1.1609441271284595, 1.1757764131762087, 1.1942974854027852, 1.2105391354998574, 1.2260093729710206, 1.2438962484011427, 1.2610495990375057, 1.2757532024988905, 1.294315917417407, 1.3107193593168631, 1.3261452235747129, 1.3460053452290595, 1.3611137697007507, 1.3787183626554906, 1.3943913519615307, 1.4122720833402127, 1.4263083806727082, 1.445043127401732, 1.460919551202096]
10	腰带	False	animate	inanimate	right	1.152	[0.0, 0.0, 0.0, 0.0, 0.0, 0.0, 0.0, 0.0, 0.0, 0.0, 0.0, 0.0, 0.0, 0.0, 0.0, 0.0, 0.0, 0.0, 0.0, 1.0, 2.0, 4.0, 5.0, 5.0, 3.0, -42.0, -92.0, -160.0, -232.0, -280.0, -313.0, -335.0, -353.0, -373.0, -397.0, -422.0, -437.0, -458.0, -482.0, -514.0, -524.0, -526.0, -526.0, -511.0, -467.0, -323.0, -83.0, 197.0, 467.0, 691.0, 888.0, 909.0, 917.0, 917.0, 913.0, 913.0, 913.0, 913.0, 913.0, 906.0, 892.0, 875.0, 852.0, 839.0, 829.0, 824.0, 820.0, 820.0, 820.0, 820.0]	[-490.0, -490.0, -490.0, -490.0, -490.0, -490.0, -490.0, -490.0, -490.0, -490.0, -489.0, -489.0, -489.0, -489.0, -489.0, -488.0, -488.0, -488.0, -488.0, -487.0, -483.0, -473.0, -456.0, -393.0, -362.0, -221.0, -118.0, -15.0, 73.0, 141.0, 186.0, 211.0, 228.0, 244.0, 258.0, 269.0, 276.0, 287.0, 296.0, 309.0, 314.0, 316.0, 317.0, 318.0, 325.0, 329.0, 329.0, 329.0, 331.0, 340.0, 355.0, 359.0, 360.0, 361.0, 361.0, 361.0, 361.0, 361.0, 361.0, 365.0, 371.0, 378.0, 390.0, 399.0, 405.0, 409.0, 410.0, 410.0, 410.0, 410.0]	[0.014640934648923576, 0.019487181096337736, 0.027506459620781243, 0.04634565417654812, 0.0625821843277663, 0.07799371250439435, 0.09586659329943359, 0.11299229599535465, 0.1276525502325967, 0.1462336969561875, 0.16261973103974015, 0.17808621376752853, 0.1960181451868266, 0.2129096934804693, 0.22785257128998637, 0.24639344087336212, 0.2629706213483587, 0.2780005391687155, 0.2989044573623687, 0.31290730414912105, 0.3278191207209602, 0.3462415476096794, 0.3646557825850323, 0.37801180325914174, 0.3978606609161943, 0.41296976804733276, 0.4307590222451836, 0.4462569076567888, 0.4633331170771271, 0.4780432058032602, 0.4959324705414474, 0.5126366269541904, 0.5277494887122884, 0.5457916706800461, 0.5641246683662757, 0.577677296823822, 0.5970578455599025, 0.6127199121983722, 0.6297507244162261, 0.6460466465214267, 0.6633542797062546, 0.6778841445920989, 0.6963727901456878, 0.7123949632514268, 0.7281061818357557, 0.7457107747904956, 0.7629204454133287, 0.7778619580203667, 0.7961215691175312, 0.8126533522736281, 0.828026992501691, 0.8460572278127074, 0.862968573346734, 0.8778674192726612, 0.8964803101262078, 0.9127390269422904, 0.9279894458595663, 0.9460459637921304, 0.9629767653532326, 0.9778725393116474, 0.9961987104034051, 1.0125048724003136, 1.02803552581463, 1.045925814541988, 1.0627525096060708, 1.0778151953127235, 1.0962086090585217, 1.112702845595777, 1.1280017339158803, 1.145746956113726]
11	乌鸦	True	inanimate	animate	right	1.311	[0.0, 0.0, 0.0, 0.0, 0.0, 0.0, 0.0, 0.0, 0.0, 0.0, 0.0, 0.0, 0.0, 3.0, 6.0, 11.0, 17.0, 34.0, 40.0, 49.0, 49.0, 35.0, -3.0, -50.0, -119.0, -215.0, -325.0, -444.0, -574.0, -696.0, -789.0, -833.0, -833.0, -833.0, -833.0, -828.0, -822.0, -811.0, -796.0, -786.0, -774.0, -763.0, -750.0, -715.0, -665.0, -632.0, -474.0, -339.0, -164.0, 11.0, 200.0, 366.0, 472.0, 532.0, 562.0, 584.0, 593.0, 599.0, 599.0, 599.0, 600.0, 602.0, 603.0, 604.0, 606.0, 610.0, 626.0, 682.0, 731.0, 749.0, 786.0, 788.0, 788.0, 788.0, 788.0, 788.0, 788.0, 788.0, 788.0]	[-490.0, -490.0, -490.0, -490.0, -490.0, -490.0, -490.0, -490.0, -490.0, -490.0, -490.0, -489.0, -489.0, -485.0, -482.0, -477.0, -462.0, -408.0, -377.0, -258.0, -165.0, -70.0, 29.0, 106.0, 199.0, 312.0, 414.0, 520.0, 540.0, 540.0, 540.0, 540.0, 540.0, 540.0, 540.0, 533.0, 521.0, 502.0, 478.0, 453.0, 424.0, 398.0, 378.0, 354.0, 351.0, 351.0, 356.0, 373.0, 399.0, 421.0, 468.0, 512.0, 540.0, 540.0, 540.0, 540.0, 540.0, 539.0, 539.0, 539.0, 538.0, 536.0, 532.0, 532.0, 527.0, 524.0, 512.0, 493.0, 480.0, 476.0, 467.0, 467.0, 467.0, 467.0, 467.0, 467.0, 467.0, 467.0, 467.0]	[0.007861036458052695, 0.012477565789595246, 0.016427813097834587, 0.03292887634597719, 0.04910021193791181, 0.06440490286331624, 0.08244367141742259, 0.09948779561091214, 0.11421051365323365, 0.13280258316081017, 0.1491804252145812, 0.1646097026532516, 0.1854535462334752, 0.1994004143634811, 0.21440302557311952, 0.23286675370763987, 0.25050070136785507, 0.2645888814004138, 0.28388341423124075, 0.29949667025357485, 0.31559427781030536, 0.33274148451164365, 0.35006857372354716, 0.3645550893852487, 0.38323078549001366, 0.39947653154376894, 0.4142644442617893, 0.4322888769675046, 0.44900532136671245, 0.46445064153522253, 0.48250579403247684, 0.49937413167208433, 0.514470950816758, 0.5323475862387568, 0.5492848730646074, 0.5645462147658691, 0.5825921513605863, 0.5994437636109069, 0.6142251909477636, 0.6322987755993381, 0.649209097144194, 0.6646677292883396, 0.6826894312398508, 0.6993655983824283, 0.7142105136299506, 0.7323172076139599, 0.7496043607825413, 0.7642868015682325, 0.7825375380925834, 0.799213363789022, 0.8146170413820073, 0.8326732179848477, 0.8496729687321931, 0.8642809989396483, 0.8827228818554431, 0.8990010546986014, 0.9146207959856838, 0.9323155009187758, 0.9494521262822673, 0.9642291163327172, 0.9828908178023994, 0.999020169256255, 1.014386982889846, 1.032293655560352, 1.0492657584836707, 1.0642082949634641, 1.0827433618251234, 1.0990321160061285, 1.1145624280907214, 1.1323397355154157, 1.149513907614164, 1.1645161773776636, 1.1828034365316853, 1.1994103129254654, 1.2146668760105968, 1.2352953383233398, 1.249481822247617, 1.2643827161518857, 1.2828007058706135]
12	白菜	False	inanimate	animate	left	1.016	[0.0, 0.0, 0.0, 0.0, 0.0, 0.0, 0.0, 0.0, 0.0, 0.0, 0.0, 0.0, 0.0, 0.0, 0.0, 0.0, 5.0, 8.0, 17.0, 32.0, 59.0, 105.0, 165.0, 262.0, 291.0, 364.0, 382.0, 371.0, 319.0, 225.0, 96.0, -34.0, -147.0, -240.0, -311.0, -352.0, -372.0, -378.0, -378.0, -378.0, -378.0, -378.0, -394.0, -443.0, -504.0, -556.0, -600.0, -644.0, -668.0, -694.0, -704.0, -709.0, -729.0, -742.0, -746.0, -746.0, -746.0, -746.0, -746.0, -746.0, -746.0, -746.0]	[-490.0, -490.0, -490.0, -490.0, -490.0, -490.0, -490.0, -490.0, -490.0, -490.0, -490.0, -490.0, -490.0, -490.0, -488.0, -488.0, -488.0, -487.0, -486.0, -482.0, -469.0, -439.0, -382.0, -251.0, -195.0, -16.0, 97.0, 205.0, 303.0, 395.0, 474.0, 516.0, 532.0, 532.0, 532.0, 525.0, 518.0, 515.0, 515.0, 515.0, 515.0, 515.0, 513.0, 502.0, 487.0, 471.0, 466.0, 459.0, 455.0, 447.0, 440.0, 438.0, 432.0, 424.0, 421.0, 421.0, 421.0, 421.0, 421.0, 421.0, 421.0, 421.0]	[0.012507261824794114, 0.016568783670663834, 0.023219316732138395, 0.041883748723194, 0.06072021275758743, 0.07351644709706306, 0.0927399827633053, 0.1088389556389302, 0.12495567789301276, 0.14185166347306222, 0.1592333660228178, 0.17366595100611448, 0.19254439882934093, 0.20846895058639348, 0.2240924466168508, 0.2417625755770132, 0.25840153731405735, 0.2736843830207363, 0.2919784686528146, 0.3086054838495329, 0.32333571126218885, 0.34152944502420723, 0.3602024104911834, 0.373599732411094, 0.39322057960089296, 0.4082958947401494, 0.4250901631312445, 0.4417349275900051, 0.4595613870769739, 0.4733140366151929, 0.49192658602260053, 0.5080504763172939, 0.523728585569188, 0.5413161119213328, 0.5584906252333894, 0.5734829964349046, 0.5918265754589811, 0.608235820196569, 0.6236814816948026, 0.6415891783544794, 0.6585462625371292, 0.6734908471116796, 0.691862074076198, 0.7083675747271627, 0.7238668254576623, 0.7414533278206363, 0.7585541132139042, 0.7732563513563946, 0.7918030235450715, 0.8079777724342421, 0.8236326710321009, 0.8413256692001596, 0.8584151907125488, 0.8732563513331115, 0.8918177008163184, 0.9079774310812354, 0.9234568844549358, 0.9415017970604822, 0.9584278200054541, 0.9732816099422053, 0.9918443248607218, 1.00838805467356]
13	海鸥	True	animate	inanimate	left	0.851	[0.0, 0.0, 0.0, 0.0, 0.0, 0.0, 0.0, 0.0, 0.0, 0.0, 0.0, 0.0, 0.0, 0.0, 0.0, 0.0, 0.0, 0.0, 0.0, 0.0, 0.0, 0.0, 0.0, -5.0, -26.0, -67.0, -131.0, -221.0, -343.0, -467.0, -565.0, -632.0, -664.0, -682.0, -699.0, -709.0, -710.0, -710.0, -710.0, -710.0, -710.0, -708.0, -703.0, -701.0, -698.0, -698.0, -698.0, -700.0, -701.0, -701.0, -701.0, -701.0]	[-490.0, -490.0, -490.0, -490.0, -490.0, -490.0, -490.0, -490.0, -490.0, -490.0, -490.0, -490.0, -490.0, -490.0, -490.0, -490.0, -490.0, -490.0, -490.0, -490.0, -490.0, -490.0, -485.0, -464.0, -413.0, -338.0, -244.0, -139.0, -26.0, 87.0, 183.0, 251.0, 287.0, 316.0, 348.0, 363.0, 367.0, 367.0, 367.0, 367.0, 368.0, 372.0, 380.0, 386.0, 395.0, 396.0, 405.0, 409.0, 410.0, 410.0, 410.0, 410.0]	[0.010620714048855007, 0.014589051948860288, 0.021035467856563628, 0.0362125001847744, 0.054711385746486485, 0.06806194502860308, 0.08647686266340315, 0.10284548869822174, 0.11866627517156303, 0.13608962029684335, 0.15302042185794562, 0.16803020099177957, 0.185853588511236, 0.20254613959696144, 0.21764398273080587, 0.23589028185233474, 0.25287740328349173, 0.26789161982014775, 0.28748652583453804, 0.3027263634139672, 0.3187539977952838, 0.3360817696666345, 0.3530463632196188, 0.3679032251238823, 0.3864949533017352, 0.40267345681786537, 0.41800955042708665, 0.4359302177326754, 0.45278865669388324, 0.46759568410925567, 0.4861413323087618, 0.5024621717166156, 0.5179778063902631, 0.5357288313098252, 0.5528739900328219, 0.5678591931937262, 0.5862037962069735, 0.6026185022201389, 0.618043001042679, 0.6359155405079946, 0.6529323579743505, 0.6675748627167195, 0.6863573960727081, 0.7026618515374139, 0.7180102330166847, 0.7360421749763191, 0.7528702353592962, 0.7676489320583642, 0.786113342968747, 0.8024410089710727, 0.8179870224557817, 0.8357575032860041]
14	戒指	False	animate	inanimate	right	1.079	[0.0, 0.0, 0.0, 0.0, 0.0, 0.0, 0.0, 0.0, 0.0, 0.0, 0.0, -1.0, -1.0, -1.0, -1.0, -1.0, -1.0, -1.0, 0.0, 3.0, 5.0, 5.0, -13.0, -59.0, -132.0, -274.0, -321.0, -426.0, -538.0, -641.0, -667.0, -690.0, -690.0, -690.0, -690.0, -690.0, -690.0, -690.0, -690.0, -690.0, -690.0, -690.0, -690.0, -645.0, -497.0, -287.0, -10.0, 286.0, 534.0, 697.0, 784.0, 810.0, 811.0, 811.0, 811.0, 808.0, 806.0, 805.0, 804.0, 804.0, 804.0, 804.0, 804.0, 804.0, 804.0, 804.0]	[-490.0, -490.0, -490.0, -490.0, -490.0, -490.0, -490.0, -490.0, -490.0, -490.0, -490.0, -489.0, -489.0, -489.0, -489.0, -489.0, -489.0, -488.0, -484.0, -471.0, -450.0, -432.0, -340.0, -242.0, -134.0, 34.0, 79.0, 169.0, 254.0, 336.0, 352.0, 367.0, 367.0, 367.0, 367.0, 367.0, 367.0, 367.0, 367.0, 367.0, 367.0, 367.0, 367.0, 382.0, 414.0, 446.0, 472.0, 472.0, 472.0, 468.0, 456.0, 447.0, 443.0, 438.0, 433.0, 430.0, 428.0, 427.0, 424.0, 423.0, 423.0, 423.0, 423.0, 423.0, 423.0, 423.0]	[0.013503271737135947, 0.01821776374708861, 0.02507787523791194, 0.04389590711798519, 0.06020991993136704, 0.07561564538627863, 0.09371721930801868, 0.11066986620426178, 0.1254751868546009, 0.14382593391928822, 0.16034577041864395, 0.17558321880642325, 0.19377729389816523, 0.2105377702973783, 0.22680433769710362, 0.24383583257440478, 0.2601768105523661, 0.27562315471004695, 0.29345063818618655, 0.3104551676660776, 0.32522362435702235, 0.34381603519432247, 0.3601269759237766, 0.3753801255952567, 0.3934154808521271, 0.4103609597077593, 0.42521748039871454, 0.443766200565733, 0.45998122671153396, 0.47559687204193324, 0.4962553718360141, 0.5104643836384639, 0.5254157949239016, 0.54376620054245, 0.5631436774274334, 0.5756368080619723, 0.5957816014997661, 0.6104497063206509, 0.6282543204724789, 0.6437467446085066, 0.661681747995317, 0.6755839014658704, 0.6946500824997202, 0.7103411623975262, 0.726450034067966, 0.7436477580340579, 0.7612093430943787, 0.7756071120966226, 0.794302946771495, 0.8103152210824192, 0.8257929679239169, 0.8436334220459685, 0.8607307941420004, 0.875651826732792, 0.8937469152733684, 0.910399530432187, 0.9251905151177198, 0.9433067663339898, 0.9602222078246996, 0.9755555707961321, 0.9934956941287965, 1.0100578559795395, 1.025594653445296, 1.0433692302322015, 1.0602498558582738, 1.0754494161810726]
15	窗户	False	animate	inanimate	right	1.168	[0.0, 0.0, 0.0, 0.0, 0.0, 0.0, 0.0, 0.0, 0.0, 0.0, 0.0, 0.0, 0.0, 0.0, 0.0, 0.0, 0.0, 0.0, 6.0, 19.0, 36.0, 57.0, 82.0, 115.0, 148.0, 177.0, 192.0, 191.0, 110.0, -1.0, -126.0, -252.0, -369.0, -465.0, -530.0, -572.0, -599.0, -610.0, -616.0, -617.0, -620.0, -622.0, -627.0, -639.0, -654.0, -663.0, -662.0, -647.0, -584.0, -429.0, -58.0, 74.0, 479.0, 692.0, 826.0, 884.0, 896.0, 896.0, 897.0, 894.0, 894.0, 894.0, 894.0, 894.0, 894.0, 894.0, 894.0, 894.0, 894.0, 894.0, 894.0]	[-490.0, -490.0, -490.0, -490.0, -490.0, -490.0, -490.0, -490.0, -490.0, -490.0, -490.0, -490.0, -490.0, -490.0, -490.0, -490.0, -490.0, -491.0, -491.0, -491.0, -488.0, -473.0, -446.0, -385.0, -310.0, -222.0, -81.0, -35.0, 114.0, 224.0, 319.0, 385.0, 426.0, 449.0, 458.0, 465.0, 467.0, 468.0, 468.0, 468.0, 467.0, 463.0, 459.0, 452.0, 443.0, 433.0, 426.0, 417.0, 406.0, 402.0, 402.0, 402.0, 402.0, 400.0, 386.0, 376.0, 373.0, 373.0, 371.0, 369.0, 369.0, 369.0, 369.0, 369.0, 369.0, 369.0, 369.0, 369.0, 369.0, 369.0, 369.0]	[0.014501670724712312, 0.019436663831584156, 0.02705078001599759, 0.045867446693591774, 0.06424891366623342, 0.07751789432950318, 0.0983743672259152, 0.1125120404176414, 0.13019821199122816, 0.14591011323500425, 0.16363383154384792, 0.1776151742087677, 0.19625434768386185, 0.21236424322705716, 0.22798159520607442, 0.24568483349867165, 0.26241868583019823, 0.27761380886659026, 0.2957334734965116, 0.3123785792849958, 0.3272446572082117, 0.34541006037034094, 0.36200840352103114, 0.3774953663814813, 0.3955907962517813, 0.4122249793726951, 0.4274487743386999, 0.4454438523389399, 0.46215859008952975, 0.4775974248768762, 0.4954494843259454, 0.5123174806358293, 0.527433073031716, 0.5454561403021216, 0.5621220674365759, 0.5775783102726564, 0.5954945402918383, 0.612284712609835, 0.6273723157355562, 0.6452414419036359, 0.6619036142947152, 0.6774738623062149, 0.6954542630119249, 0.7120324674760923, 0.7274282943690196, 0.7453076604288071, 0.7621562007116154, 0.7776182462694123, 0.7952371751889586, 0.8122065473580733, 0.8273719744756818, 0.8452701137866825, 0.862091688788496, 0.8775731902569532, 0.895546764251776, 0.9121949420077726, 0.9273849450983107, 0.9454063057200983, 0.9621210434706882, 0.9775537343230098, 0.9955385723151267, 1.0121806060196832, 1.0273996223695576, 1.045520993648097, 1.062253480660729, 1.0776680808048695, 1.0955808975268155, 1.1124721044907346, 1.1273992811329663, 1.1456776654813439, 1.162190334056504]
16	钥匙	False	inanimate	animate	left	2.399	[0.0, 0.0, 0.0, 0.0, 0.0, 0.0, 0.0, 0.0, 0.0, 0.0, 0.0, 0.0, 0.0, 0.0, 0.0, 1.0, 3.0, 8.0, 18.0, 38.0, 105.0, 146.0, 305.0, 449.0, 614.0, 789.0, 935.0, 959.0, 959.0, 959.0, 959.0, 959.0, 958.0, 955.0, 927.0, 868.0, 771.0, 636.0, 485.0, 312.0, 136.0, -10.0, -91.0, -115.0, -119.0, -119.0, -119.0, -119.0, -121.0, -123.0, -133.0, -154.0, -257.0, -310.0, -422.0, -522.0, -671.0, -720.0, -856.0, -911.0, -931.0, -933.0, -933.0, -934.0, -933.0, -920.0, -886.0, -800.0, -540.0, -424.0, -33.0, 236.0, 498.0, 738.0, 922.0, 959.0, 959.0, 959.0, 959.0, 952.0, 924.0, 913.0, 861.0, 790.0, 685.0, 552.0, 387.0, 221.0, 86.0, -9.0, -104.0, -233.0, -476.0, -555.0, -747.0, -832.0, -859.0, -879.0, -888.0, -888.0, -888.0, -888.0, -888.0, -888.0, -888.0, -888.0, -896.0, -914.0, -946.0, -960.0, -960.0, -960.0, -960.0, -960.0, -960.0, -960.0, -960.0, -960.0, -960.0, -960.0, -960.0, -960.0, -960.0, -960.0, -960.0, -960.0, -960.0, -960.0, -944.0, -937.0, -921.0, -914.0, -903.0, -894.0, -883.0, -871.0, -863.0, -854.0, -844.0, -839.0, -839.0, -839.0, -839.0, -839.0]	[-490.0, -490.0, -490.0, -490.0, -490.0, -490.0, -490.0, -490.0, -490.0, -490.0, -490.0, -490.0, -490.0, -490.0, -490.0, -490.0, -490.0, -490.0, -490.0, -490.0, -470.0, -455.0, -351.0, -248.0, -132.0, -4.0, 97.0, 178.0, 226.0, 249.0, 255.0, 259.0, 262.0, 264.0, 273.0, 291.0, 312.0, 333.0, 354.0, 381.0, 407.0, 426.0, 439.0, 442.0, 443.0, 443.0, 443.0, 443.0, 443.0, 444.0, 447.0, 454.0, 483.0, 493.0, 508.0, 526.0, 537.0, 540.0, 540.0, 540.0, 538.0, 537.0, 537.0, 537.0, 535.0, 534.0, 529.0, 518.0, 511.0, 511.0, 511.0, 511.0, 509.0, 500.0, 473.0, 455.0, 446.0, 446.0, 446.0, 446.0, 443.0, 441.0, 436.0, 436.0, 436.0, 437.0, 459.0, 477.0, 491.0, 493.0, 493.0, 493.0, 493.0, 493.0, 476.0, 461.0, 460.0, 460.0, 460.0, 460.0, 460.0, 460.0, 460.0, 460.0, 460.0, 460.0, 460.0, 460.0, 462.0, 462.0, 461.0, 459.0, 459.0, 455.0, 454.0, 452.0, 452.0, 452.0, 452.0, 452.0, 452.0, 452.0, 452.0, 452.0, 452.0, 452.0, 452.0, 451.0, 448.0, 447.0, 443.0, 439.0, 434.0, 434.0, 434.0, 434.0, 434.0, 436.0, 437.0, 438.0, 438.0, 438.0, 438.0, 438.0]	[0.000497800181619823, 0.005275097442790866, 0.015899429679848254, 0.03440718993078917, 0.05079015193041414, 0.06616345082875341, 0.08405647019390017, 0.10091286117676646, 0.11592059233225882, 0.13427270471584052, 0.15078366652596742, 0.1661566240945831, 0.18404657149221748, 0.2009473358048126, 0.21593697636853904, 0.23422116332221776, 0.2507686478784308, 0.2660518349148333, 0.28409606486093253, 0.3008469839114696, 0.3158707576803863, 0.3341522141126916, 0.3507457786472514, 0.36608630954287946, 0.3840066355187446, 0.4010193570284173, 0.4156601552385837, 0.43424573936499655, 0.450645768083632, 0.46609177079517394, 0.48406602756585926, 0.5008674638811499, 0.5156768804881722, 0.5340818994445726, 0.5507737678708509, 0.5660842615179718, 0.5839035529643297, 0.6008869197685272, 0.6158291150350124, 0.6341013554483652, 0.6505720401182771, 0.6660917708650231, 0.6840042462572455, 0.7009787383722141, 0.7159932962385938, 0.7341044275090098, 0.7506147067761049, 0.7661327307578176, 0.7839564596069977, 0.800848349230364, 0.8157366138184443, 0.8342204807559028, 0.8504594002151862, 0.8660689014941454, 0.8840004915837198, 0.9008285518502817, 0.9157284218817949, 0.9340989661868662, 0.9506532773375511, 0.9660470562521368, 0.9839277876308188, 1.0008647331269458, 1.0160332322120667, 1.0341778140282258, 1.0504198055714369, 1.0660613921936601, 1.0839520222507417, 1.1008640505606309, 1.1158990883268416, 1.1341931740753353, 1.1506211920641363, 1.166065146913752, 1.1839124276302755, 1.2009483597939834, 1.2160393762169406, 1.2341774727683514, 1.2506679546786472, 1.2674854336073622, 1.284069440793246, 1.3008804344572127, 1.315987152280286, 1.3342778246151283, 1.3506457679904997, 1.3660532002104446, 1.3836103478679433, 1.4008131918963045, 1.415978277567774, 1.4340525448787957, 1.450595250702463, 1.4661753973923624, 1.4839052596362308, 1.5007964666001499, 1.5159496056148782, 1.534089408814907, 1.5503535869065672, 1.5660549069289118, 1.584146582055837, 1.6077323539648205, 1.6158827043836936, 1.634106816840358, 1.650625629350543, 1.6660750454757363, 1.6839421236654744, 1.7008725837804377, 1.715943802963011, 1.7340846301522106, 1.7507188132731244, 1.7660832374822348, 1.7840042462339625, 1.8008845305303112, 1.8159134243614972, 1.8341679153963923, 1.8504174161935225, 1.866106789559126, 1.8839926408836618, 1.9008630265016109, 1.9157420751871541, 1.9338975796708837, 1.95065600797534, 1.9660709495656192, 1.9838707849849015, 2.0008503971621394, 2.015875536366366, 2.0339723315555602, 2.0504904615227133, 2.06607606948819, 2.0839195956941694, 2.100817287922837, 2.1158670029835775, 2.134244373999536, 2.1506259706802666, 2.1661139575298876, 2.183907649014145, 2.200893063796684, 2.2158984056441113, 2.234056640882045, 2.250343346968293, 2.266052858904004, 2.2837386891478673, 2.3008517625276, 2.315924005699344, 2.3340266034938395, 2.3505604347446933, 2.3660644642077386]
17	药品	False	inanimate	animate	left	0.832	[0.0, 0.0, 0.0, 0.0, 0.0, 0.0, 0.0, 0.0, 0.0, 0.0, 0.0, 0.0, 0.0, 0.0, 0.0, 0.0, 0.0, 0.0, 0.0, 0.0, 0.0, 0.0, 0.0, -5.0, -20.0, -54.0, -113.0, -194.0, -296.0, -400.0, -485.0, -564.0, -594.0, -607.0, -618.0, -623.0, -630.0, -639.0, -644.0, -647.0, -648.0, -656.0, -669.0, -683.0, -683.0, -683.0, -683.0, -683.0, -683.0, -683.0, -683.0]	[-490.0, -490.0, -490.0, -490.0, -490.0, -490.0, -490.0, -490.0, -490.0, -490.0, -490.0, -490.0, -490.0, -490.0, -490.0, -490.0, -490.0, -490.0, -490.0, -490.0, -490.0, -490.0, -485.0, -464.0, -419.0, -338.0, -237.0, -118.0, 11.0, 134.0, 236.0, 331.0, 366.0, 384.0, 397.0, 404.0, 411.0, 415.0, 416.0, 417.0, 418.0, 423.0, 428.0, 431.0, 431.0, 431.0, 431.0, 431.0, 431.0, 431.0, 431.0]	[0.014983633067458868, 0.01947591721545905, 0.02803074731491506, 0.0463521396741271, 0.06319180526770651, 0.07820260850712657, 0.09647757955826819, 0.11297147476579994, 0.128429765580222, 0.14630913164000958, 0.16322798654437065, 0.17821865109726787, 0.1964192115701735, 0.21305817342363298, 0.22841952554881573, 0.24638285965193063, 0.26319794927258044, 0.2782108004903421, 0.29647826217114925, 0.31308991729747504, 0.32848403754178435, 0.3463688649935648, 0.3632215012330562, 0.37823196314275265, 0.39649567019660026, 0.4131356559228152, 0.42840280022937804, 0.44625315302982926, 0.4631313893478364, 0.4780213605845347, 0.4963840543059632, 0.5128974055405706, 0.5283867575926706, 0.5462244810769334, 0.5631624505622312, 0.5782947683474049, 0.5964547102339566, 0.6129728400846943, 0.6284608269343153, 0.646271585021168, 0.6631409466499463, 0.6782367418054491, 0.6965335581917316, 0.7127618963131681, 0.7284611682407558, 0.7460521078901365, 0.7631726906402037, 0.7779496806906536, 0.7962185076903552, 0.8129144721897319, 0.8284942775499076]
18	苍蝇	True	animate	inanimate	left	1.701	[0.0, 0.0, 0.0, 0.0, 0.0, 0.0, 0.0, 0.0, 0.0, 0.0, 0.0, 2.0, 2.0, 5.0, 7.0, 9.0, 17.0, 29.0, 50.0, 83.0, 137.0, 201.0, 318.0, 382.0, 407.0, 444.0, 455.0, 451.0, 401.0, 307.0, 164.0, -6.0, -151.0, -288.0, -448.0, -504.0, -513.0, -516.0, -517.0, -515.0, -512.0, -509.0, -500.0, -476.0, -435.0, -374.0, -297.0, -274.0, -257.0, -245.0, -236.0, -236.0, -236.0, -255.0, -326.0, -456.0, -588.0, -710.0, -852.0, -895.0, -911.0, -928.0, -929.0, -932.0, -937.0, -947.0, -959.0, -960.0, -960.0, -960.0, -960.0, -960.0, -960.0, -960.0, -960.0, -960.0, -960.0, -960.0, -960.0, -960.0, -960.0, -960.0, -959.0, -934.0, -899.0, -863.0, -839.0, -831.0, -831.0, -831.0, -831.0, -831.0, -831.0, -831.0, -831.0, -831.0, -829.0, -826.0, -824.0, -822.0, -821.0, -821.0, -821.0]	[-490.0, -490.0, -490.0, -490.0, -490.0, -490.0, -490.0, -490.0, -490.0, -490.0, -490.0, -491.0, -491.0, -492.0, -493.0, -494.0, -496.0, -496.0, -496.0, -496.0, -496.0, -494.0, -469.0, -433.0, -413.0, -357.0, -296.0, -211.0, -100.0, 17.0, 149.0, 257.0, 327.0, 383.0, 433.0, 444.0, 444.0, 444.0, 444.0, 434.0, 427.0, 421.0, 412.0, 399.0, 387.0, 386.0, 386.0, 389.0, 399.0, 411.0, 422.0, 429.0, 431.0, 434.0, 437.0, 439.0, 439.0, 439.0, 423.0, 418.0, 415.0, 410.0, 408.0, 407.0, 405.0, 404.0, 404.0, 405.0, 411.0, 413.0, 416.0, 417.0, 418.0, 420.0, 420.0, 420.0, 420.0, 420.0, 420.0, 420.0, 420.0, 420.0, 421.0, 421.0, 421.0, 421.0, 421.0, 421.0, 421.0, 421.0, 421.0, 421.0, 421.0, 421.0, 421.0, 422.0, 424.0, 426.0, 426.0, 427.0, 428.0, 428.0, 428.0]	[0.007833729847334325, 0.012280958006158471, 0.016683812951669097, 0.03268072730861604, 0.04910772119183093, 0.06438612949568778, 0.08221770904492587, 0.0992256518220529, 0.11426103103440255, 0.13252439675852656, 0.14907700126059353, 0.16445234813727438, 0.1821904022945091, 0.1992184838745743, 0.2142340657301247, 0.23252781003247947, 0.24912512919399887, 0.2644161668140441, 0.2824429888278246, 0.2992362331133336, 0.31404769781511277, 0.33249913807958364, 0.3491671131923795, 0.3644741934258491, 0.38237677013967186, 0.399190153228119, 0.41427297762129456, 0.432497090077959, 0.44888517213985324, 0.46441070549190044, 0.48232249822467566, 0.49922769982367754, 0.5142101723467931, 0.532406295533292, 0.549073246656917, 0.5644264068687335, 0.5822549143340439, 0.5992686598328874, 0.6142548869829625, 0.6324554474558681, 0.6490800732281059, 0.6644404014805332, 0.6823194262105972, 0.699144073179923, 0.7140074205817655, 0.7323725034948438, 0.7489947399590164, 0.7644291374599561, 0.7822948502143845, 0.7991539718350396, 0.8143477295525372, 0.8324936768040061, 0.8488336307927966, 0.8644281135639176, 0.8822948503075168, 0.8991655772551894, 0.9140903644729406, 0.932381036807783, 0.9489988359855488, 0.9644192388514057, 0.9823119168868288, 0.9991846918128431, 1.0142644443549216, 1.0324680767953396, 1.0490452572703362, 1.0643663322553039, 1.0822600342798978, 1.0991113052004948, 1.1155898405704647, 1.132445890107192, 1.1486909536179155, 1.1643287856131792, 1.1820282691624016, 1.1992106331745163, 1.2142088069813326, 1.232356802211143, 1.2490309212589636, 1.2644253828329965, 1.2822869996307418, 1.2991850331891328, 1.3141692123608664, 1.3324595434824005, 1.3489087240304798, 1.3644451801665127, 1.3822388716507703, 1.3991447559092194, 1.4141797936754301, 1.4324161941185594, 1.4490032733883709, 1.4644796547945589, 1.482277100905776, 1.499154654564336, 1.5141726257279515, 1.5323120875982568, 1.5487998388707638, 1.5644195801578462, 1.5822528663557023, 1.5991266652708873, 1.6139702151995152, 1.632221975713037, 1.6489333000499755, 1.6643868122482672, 1.6822501355782151]
19	鸽子	True	inanimate	animate	right	1.642	[0.0, 0.0, 0.0, 0.0, 0.0, 0.0, 0.0, 0.0, 0.0, 0.0, 0.0, 0.0, 0.0, 4.0, 8.0, 12.0, 18.0, 24.0, 32.0, 34.0, 29.0, 16.0, -78.0, -184.0, -314.0, -448.0, -563.0, -656.0, -722.0, -761.0, -773.0, -773.0, -773.0, -773.0, -773.0, -773.0, -773.0, -773.0, -775.0, -776.0, -776.0, -776.0, -768.0, -750.0, -710.0, -633.0, -557.0, -534.0, -530.0, -530.0, -530.0, -529.0, -532.0, -540.0, -552.0, -557.0, -557.0, -557.0, -557.0, -557.0, -543.0, -484.0, -365.0, -201.0, 12.0, 252.0, 489.0, 645.0, 745.0, 751.0, 754.0, 754.0, 754.0, 753.0, 745.0, 735.0, 724.0, 721.0, 720.0, 720.0, 720.0, 720.0, 720.0, 720.0, 720.0, 720.0, 721.0, 726.0, 728.0, 732.0, 734.0, 735.0, 736.0, 738.0, 739.0, 740.0, 740.0, 740.0, 740.0]	[-490.0, -490.0, -490.0, -490.0, -490.0, -490.0, -490.0, -490.0, -490.0, -490.0, -490.0, -490.0, -490.0, -490.0, -489.0, -488.0, -484.0, -474.0, -455.0, -420.0, -316.0, -270.0, -91.0, 42.0, 170.0, 287.0, 383.0, 449.0, 497.0, 517.0, 524.0, 524.0, 524.0, 524.0, 524.0, 524.0, 524.0, 524.0, 524.0, 517.0, 505.0, 489.0, 470.0, 445.0, 413.0, 384.0, 370.0, 369.0, 368.0, 368.0, 368.0, 368.0, 376.0, 386.0, 392.0, 393.0, 393.0, 393.0, 393.0, 393.0, 400.0, 415.0, 436.0, 453.0, 453.0, 453.0, 429.0, 407.0, 392.0, 389.0, 387.0, 385.0, 384.0, 381.0, 375.0, 370.0, 365.0, 364.0, 363.0, 363.0, 363.0, 363.0, 363.0, 363.0, 363.0, 363.0, 364.0, 373.0, 380.0, 388.0, 390.0, 392.0, 394.0, 398.0, 399.0, 400.0, 400.0, 400.0, 400.0]	[0.000944946426898241, 0.0058601421769708395, 0.016788943554274738, 0.035328106372617185, 0.051602524472400546, 0.0670741272624582, 0.08503370662219822, 0.10182422026991844, 0.11694049544166774, 0.13521580782253295, 0.15153596457093954, 0.16703999403398484, 0.18502483202610165, 0.2017972549656406, 0.2169480046723038, 0.2351431038696319, 0.2516410951502621, 0.2670232686214149, 0.28497875202447176, 0.3017446896992624, 0.3168425328331068, 0.3350843945518136, 0.35159194318111986, 0.36712259659543633, 0.3849565653363243, 0.4017836016137153, 0.4168831513961777, 0.4351000959286466, 0.4515530312201008, 0.4670126873534173, 0.4849135574186221, 0.5018334363121539, 0.5168148848460987, 0.5349874560488388, 0.5515967218670994, 0.5670201967004687, 0.5849156053736806, 0.6019129669293761, 0.6167640262283385, 0.6350645972415805, 0.6515503005357459, 0.6670229273149744, 0.6849705600179732, 0.7017515163170174, 0.7169278661021963, 0.7351840637857094, 0.7516226631123573, 0.7670085913268849, 0.784951786743477, 0.8017702896613628, 0.816623397055082, 0.8348481921711937, 0.851549276500009, 0.8670464793685824, 0.8849282347364351, 0.9017955482704565, 0.9168312688125297, 0.9350260266801342, 0.9515912604983896, 0.9670321433804929, 0.9849886506563053, 1.0017436656635255, 1.0168565274216235, 1.0351813331944868, 1.051589212496765, 1.0671935938298702, 1.0848671360872686, 1.101835825596936, 1.1168609648011625, 1.1350321706850082, 1.1515516658546403, 1.1670246339635924, 1.1848671360639855, 1.2017382043413818, 1.2169640474021435, 1.2350813226075843, 1.2515926258638501, 1.2670249753864482, 1.2846715522464365, 1.3015132659347728, 1.316818980849348, 1.335129109211266, 1.3513567646732554, 1.366970362025313, 1.3848473387770355, 1.4017958897165954, 1.416880420758389, 1.435058111906983, 1.4514352713013068, 1.4670205380534753, 1.4848842027131468, 1.5017074843635783, 1.5166745969327167, 1.5350376319838688, 1.5516243698075414, 1.5671041646273807, 1.584905706695281, 1.6018327536294237, 1.6169230873929337]
20	黑猫	True	inanimate	animate	right	1.031	[0.0, 0.0, 0.0, 0.0, 0.0, 0.0, 0.0, 0.0, 0.0, 0.0, 0.0, 0.0, 0.0, 0.0, 0.0, 0.0, 0.0, 0.0, 2.0, 11.0, 24.0, 43.0, 68.0, 87.0, 109.0, 114.0, 105.0, 82.0, -52.0, -169.0, -294.0, -407.0, -486.0, -526.0, -537.0, -537.0, -537.0, -537.0, -537.0, -534.0, -433.0, -298.0, -120.0, 206.0, 322.0, 527.0, 681.0, 764.0, 790.0, 793.0, 793.0, 793.0, 793.0, 792.0, 791.0, 791.0, 791.0, 791.0, 792.0, 793.0, 793.0, 793.0, 793.0]	[-490.0, -490.0, -490.0, -490.0, -490.0, -490.0, -490.0, -490.0, -490.0, -490.0, -490.0, -490.0, -490.0, -490.0, -490.0, -490.0, -490.0, -490.0, -487.0, -480.0, -469.0, -453.0, -422.0, -376.0, -300.0, -168.0, -67.0, -4.0, 171.0, 265.0, 331.0, 376.0, 397.0, 403.0, 403.0, 403.0, 403.0, 403.0, 403.0, 404.0, 412.0, 412.0, 412.0, 412.0, 412.0, 412.0, 412.0, 410.0, 406.0, 406.0, 406.0, 405.0, 404.0, 401.0, 399.0, 399.0, 399.0, 399.0, 399.0, 399.0, 399.0, 399.0, 399.0]	[0.01577962178271264, 0.020796534838154912, 0.029707375215366483, 0.047937631607055664, 0.06485921726562083, 0.0799635456642136, 0.09814635675866157, 0.11465834267437458, 0.1300999082159251, 0.14805402618367225, 0.1648288385476917, 0.17988572176545858, 0.1981613754760474, 0.21452044416218996, 0.2299486977281049, 0.24783147708512843, 0.2648223532596603, 0.2797614764422178, 0.2981760527472943, 0.31466278003063053, 0.33006850560195744, 0.34795572236180305, 0.3648796972120181, 0.3797338284784928, 0.39809276757296175, 0.41438527626451105, 0.42999887361656874, 0.44790930103044957, 0.4648421505698934, 0.47990039899013937, 0.4982709434116259, 0.5145822254708037, 0.5300937641877681, 0.5479403623612598, 0.564829521230422, 0.5798891350859776, 0.5982422713423148, 0.6145924654556438, 0.6301121962023899, 0.6478809703839943, 0.6647656919667497, 0.6798304257681593, 0.7039039625087753, 0.7147361666429788, 0.7299777109874412, 0.7478990610688925, 0.7647523799678311, 0.7798369111260399, 0.7979808102827519, 0.8143815216608346, 0.829964057658799, 0.8479355836752802, 0.8648660439066589, 0.8796143619110808, 0.8977862504543737, 0.9146818947046995, 0.9300719188759103, 0.9478819944197312, 0.9647465773159638, 0.9798485164064914, 0.9980033382307738, 1.0146870147436857, 1.0300616789609194]
21	蜘蛛	True	inanimate	animate	right	0.853	[0.0, 0.0, 0.0, 0.0, 0.0, 0.0, 0.0, 0.0, 0.0, 0.0, 0.0, 0.0, 0.0, 1.0, 8.0, 23.0, 42.0, 73.0, 126.0, 184.0, 299.0, 365.0, 410.0, 430.0, 436.0, 436.0, 435.0, 433.0, 433.0, 433.0, 433.0, 433.0, 433.0, 433.0, 433.0, 433.0, 436.0, 463.0, 488.0, 529.0, 603.0, 669.0, 740.0, 820.0, 839.0, 841.0, 841.0, 841.0, 841.0, 841.0, 841.0, 841.0]	[-490.0, -490.0, -490.0, -490.0, -490.0, -490.0, -490.0, -490.0, -490.0, -490.0, -490.0, -490.0, -490.0, -491.0, -487.0, -478.0, -461.0, -420.0, -346.0, -252.0, -84.0, 21.0, 113.0, 191.0, 237.0, 273.0, 303.0, 324.0, 339.0, 342.0, 342.0, 342.0, 342.0, 342.0, 342.0, 342.0, 342.0, 342.0, 342.0, 350.0, 363.0, 377.0, 400.0, 423.0, 428.0, 429.0, 429.0, 429.0, 429.0, 429.0, 429.0, 429.0]	[0.01593424566090107, 0.020919756148941815, 0.030048366985283792, 0.04846123664174229, 0.06514047575183213, 0.08017824427224696, 0.09845321532338858, 0.11480955337174237, 0.13040164671838284, 0.14832811674568802, 0.165147302323021, 0.18013045762199908, 0.19835013267584145, 0.21487235859967768, 0.23036034544929862, 0.2483475727494806, 0.2651544703403488, 0.28024890017695725, 0.29839143401477486, 0.3148733825655654, 0.33041939605027437, 0.34817383415065706, 0.36506640643347055, 0.3800164524000138, 0.3982316901674494, 0.41504609712865204, 0.43030539073515683, 0.4482079674489796, 0.4650899583939463, 0.480146158952266, 0.49841805803589523, 0.514667900162749, 0.5303258707281202, 0.548202506150119, 0.5651264811167493, 0.5802075988613069, 0.5983726606937125, 0.6147283160826191, 0.6303712680237368, 0.6482124048052356, 0.6652357076527551, 0.6801273855380714, 0.6983866553055122, 0.7148918146267533, 0.730374681414105, 0.7482984208036214, 0.765103270416148, 0.7801280682906508, 0.7982323728501797, 0.8148802092764527, 0.8304429480340332, 0.8482403941452503]
22	面包	False	inanimate	animate	left	1.201	[0.0, 0.0, 0.0, 0.0, 0.0, 0.0, 0.0, 0.0, -1.0, -1.0, -1.0, -1.0, -1.0, -1.0, -1.0, -1.0, 3.0, 6.0, 9.0, 17.0, 31.0, 52.0, 86.0, 138.0, 189.0, 256.0, 379.0, 423.0, 590.0, 711.0, 819.0, 879.0, 895.0, 892.0, 868.0, 845.0, 833.0, 833.0, 833.0, 833.0, 833.0, 833.0, 833.0, 833.0, 833.0, 833.0, 833.0, 833.0, 831.0, 813.0, 673.0, 591.0, 220.0, -82.0, -338.0, -524.0, -635.0, -679.0, -693.0, -697.0, -703.0, -706.0, -708.0, -708.0, -708.0, -708.0, -708.0, -708.0, -708.0, -708.0, -708.0, -708.0, -708.0]	[-490.0, -490.0, -490.0, -490.0, -490.0, -490.0, -490.0, -490.0, -490.0, -490.0, -490.0, -490.0, -490.0, -490.0, -490.0, -490.0, -490.0, -490.0, -490.0, -490.0, -490.0, -487.0, -476.0, -447.0, -401.0, -320.0, -176.0, -124.0, 61.0, 185.0, 312.0, 398.0, 435.0, 457.0, 473.0, 482.0, 484.0, 484.0, 484.0, 484.0, 484.0, 484.0, 484.0, 484.0, 484.0, 484.0, 484.0, 484.0, 484.0, 483.0, 464.0, 457.0, 457.0, 457.0, 457.0, 457.0, 457.0, 450.0, 447.0, 444.0, 439.0, 431.0, 422.0, 422.0, 422.0, 422.0, 422.0, 422.0, 422.0, 422.0, 422.0, 422.0, 422.0]	[0.015131089021451771, 0.021847840631380677, 0.028931183856911957, 0.04741709877271205, 0.06378128752112389, 0.07912489038426429, 0.09711075236555189, 0.11402346333488822, 0.1289049012120813, 0.14721195760648698, 0.1636870795628056, 0.17912215972319245, 0.19720188830979168, 0.21395997540093958, 0.22881069337017834, 0.24713754700496793, 0.2638266847934574, 0.2791696049971506, 0.29718584567308426, 0.31393062067218125, 0.32902163721155375, 0.3471686083357781, 0.3637242849217728, 0.37912386644165963, 0.3969322352204472, 0.4138367541600019, 0.42886735463980585, 0.44716963230166584, 0.46361096226610243, 0.4791047517210245, 0.4970817391294986, 0.5139367646770552, 0.5289475679164752, 0.5472191256703809, 0.5636611382942647, 0.5790992904221639, 0.5970110831549391, 0.6139528073836118, 0.6287185334367678, 0.6468945179367438, 0.6636744502466172, 0.6791132850339636, 0.6971411310369149, 0.7139640713576227, 0.7288646239321679, 0.7469907738268375, 0.7638130314880982, 0.7790924637811258, 0.7970001604408026, 0.8138418741291389, 0.8286598240956664, 0.8469982831738889, 0.863666940946132, 0.8791023624362424, 0.897049312479794, 0.9138432394247502, 0.9289581491611898, 0.9472454083152115, 0.9636826422065496, 0.9791508316993713, 0.9969803631538525, 1.013846994144842, 1.0289178718812764, 1.047102048411034, 1.0636628449428827, 1.0790934878168628, 1.0970052804332227, 1.1138732767431065, 1.1289100212743506, 1.1470505071338266, 1.1637017568573356, 1.17919008503668, 1.1970766191370785]
23	枕头	False	animate	inanimate	right	1.232	[0.0, 0.0, 0.0, 0.0, 0.0, 0.0, 0.0, 0.0, 0.0, 0.0, 0.0, 0.0, 0.0, 0.0, 0.0, 0.0, 0.0, 0.0, 0.0, 0.0, 0.0, 3.0, 5.0, 7.0, 7.0, -16.0, -123.0, -178.0, -382.0, -549.0, -689.0, -777.0, -810.0, -817.0, -817.0, -817.0, -817.0, -817.0, -817.0, -817.0, -817.0, -817.0, -814.0, -809.0, -792.0, -765.0, -714.0, -643.0, -591.0, -567.0, -535.0, -516.0, -375.0, -216.0, -45.0, 116.0, 287.0, 458.0, 624.0, 764.0, 856.0, 889.0, 893.0, 893.0, 891.0, 891.0, 891.0, 891.0, 891.0, 891.0, 891.0, 891.0, 891.0, 891.0, 891.0]	[-490.0, -490.0, -490.0, -490.0, -490.0, -490.0, -490.0, -490.0, -490.0, -489.0, -489.0, -489.0, -489.0, -489.0, -489.0, -489.0, -489.0, -489.0, -489.0, -489.0, -489.0, -488.0, -477.0, -451.0, -409.0, -332.0, -163.0, -100.0, 90.0, 213.0, 300.0, 349.0, 369.0, 374.0, 374.0, 374.0, 374.0, 374.0, 374.0, 374.0, 375.0, 375.0, 375.0, 378.0, 384.0, 387.0, 391.0, 400.0, 408.0, 411.0, 416.0, 418.0, 419.0, 419.0, 419.0, 419.0, 418.0, 407.0, 399.0, 399.0, 399.0, 399.0, 399.0, 399.0, 400.0, 400.0, 400.0, 400.0, 400.0, 400.0, 400.0, 400.0, 400.0, 400.0, 400.0]	[0.008495916030369699, 0.013401213102042675, 0.017765156109817326, 0.03405766480136663, 0.05022080836351961, 0.06571869377512485, 0.0836506251944229, 0.10052203480154276, 0.11566220317035913, 0.1339559475891292, 0.15037099493201822, 0.1657060645520687, 0.18368578248191625, 0.20050701615400612, 0.21549324330408126, 0.2337323745014146, 0.2503204776439816, 0.2657340537989512, 0.283757803728804, 0.3004998480901122, 0.3156523045618087, 0.33378971845377237, 0.35035358695313334, 0.36569616582710296, 0.3837151371408254, 0.40047663752920926, 0.41532360087148845, 0.4338040543952957, 0.4502525524003431, 0.465724837849848, 0.48355368664488196, 0.5004459174815565, 0.515521232620813, 0.5338214624207467, 0.5502180777257308, 0.5657415630994365, 0.5836260492214933, 0.6004363602260128, 0.615428731427528, 0.6336477238219231, 0.6502774696564302, 0.6656927524600178, 0.6835280866362154, 0.7004527441458777, 0.7154969980474561, 0.7336702517932281, 0.7502150057116523, 0.7656552059343085, 0.7833946254104376, 0.8003954002633691, 0.8154659366700798, 0.8337368117645383, 0.8500791551778093, 0.8656889979029074, 0.8836349238408729, 0.900416221586056, 0.9156755151925609, 0.9337753824656829, 0.9502194430679083, 0.9657057231524959, 0.9835946465609595, 1.0004448934923857, 1.015272059594281, 1.0336511371424422, 1.050315698958002, 1.0656948004616424, 1.0837004597997293, 1.1004360188962892, 1.1152614782331511, 1.133591745281592, 1.150328669580631, 1.1657954937545583, 1.1835089719388634, 1.2004640081431717, 1.2154727634042501]
24	桥梁	False	animate	inanimate	right	1.248	[0.0, 0.0, 0.0, 0.0, 0.0, 0.0, 0.0, 0.0, 0.0, 0.0, 0.0, 1.0, 1.0, 1.0, 7.0, 19.0, 37.0, 72.0, 121.0, 217.0, 280.0, 311.0, 391.0, 431.0, 458.0, 462.0, 437.0, 356.0, 224.0, 59.0, -136.0, -475.0, -655.0, -714.0, -777.0, -779.0, -779.0, -779.0, -779.0, -779.0, -779.0, -779.0, -779.0, -779.0, -779.0, -779.0, -779.0, -779.0, -777.0, -767.0, -748.0, -731.0, -712.0, -693.0, -655.0, -450.0, -207.0, -67.0, 319.0, 516.0, 646.0, 702.0, 714.0, 714.0, 714.0, 714.0, 714.0, 714.0, 714.0, 714.0, 714.0, 714.0, 714.0, 714.0, 714.0, 714.0]	[-490.0, -490.0, -490.0, -490.0, -490.0, -490.0, -490.0, -490.0, -490.0, -490.0, -490.0, -490.0, -490.0, -490.0, -490.0, -490.0, -490.0, -490.0, -490.0, -469.0, -434.0, -409.0, -315.0, -251.0, -172.0, -92.0, -18.0, 64.0, 151.0, 233.0, 296.0, 361.0, 374.0, 374.0, 374.0, 374.0, 374.0, 374.0, 374.0, 374.0, 374.0, 374.0, 374.0, 374.0, 374.0, 374.0, 374.0, 374.0, 374.0, 378.0, 383.0, 384.0, 384.0, 384.0, 384.0, 370.0, 368.0, 368.0, 374.0, 399.0, 417.0, 424.0, 424.0, 424.0, 424.0, 424.0, 424.0, 424.0, 424.0, 424.0, 424.0, 424.0, 424.0, 424.0, 424.0, 424.0]	[0.013599527650512755, 0.019293304183520377, 0.02558850939385593, 0.04405053099617362, 0.06041915703099221, 0.07583239185623825, 0.09377763525117189, 0.11079820734448731, 0.12561718141660094, 0.14393277117051184, 0.1604253010591492, 0.1758559439331293, 0.19376568857114762, 0.21062139689456671, 0.22555983741767704, 0.24384504847694188, 0.26051063428167254, 0.2758375118719414, 0.29376637120731175, 0.3107630501035601, 0.32557895209174603, 0.34391604585107416, 0.3602519038831815, 0.3758788132108748, 0.39361277141142637, 0.41060330625623465, 0.42557144281454384, 0.44385836052242666, 0.46037307707592845, 0.4758313678903505, 0.4936834273394197, 0.5106094501679763, 0.5255400401074439, 0.5438559711910784, 0.5603464531013742, 0.5758306852076203, 0.5934765795245767, 0.6107005861122161, 0.6256762320408598, 0.643860749900341, 0.6603713703807443, 0.6758866638410836, 0.6934560994850472, 0.7106135461945087, 0.7256001147907227, 0.743860749877058, 0.7602058239281178, 0.7758194212801754, 0.7938452191883698, 0.8106220795307308, 0.8256209361134097, 0.8438365152105689, 0.8601204906590283, 0.8758095225784928, 0.8935038861818612, 0.9106500688940287, 0.9256229840684682, 0.9437798538710922, 0.9601508693303913, 0.9758177145849913, 0.9937895819311962, 1.0105589329032227, 1.0256011387100443, 1.0437583499588072, 1.0603170985123143, 1.0758197625400499, 1.093666019383818, 1.110615935525857, 1.125597042730078, 1.143801016616635, 1.1602805758593604, 1.1758399012032896, 1.1934397155418992, 1.210579412872903, 1.2256315173581243, 1.2438030645716935]
25	太阳	False	inanimate	animate	left	0.998	[0.0, 0.0, 0.0, 0.0, 0.0, 0.0, 0.0, 0.0, 6.0, 13.0, 20.0, 24.0, 29.0, 38.0, 54.0, 75.0, 130.0, 192.0, 258.0, 325.0, 385.0, 422.0, 431.0, 418.0, 380.0, 306.0, 193.0, 37.0, -272.0, -453.0, -516.0, -588.0, -596.0, -601.0, -607.0, -616.0, -624.0, -631.0, -631.0, -631.0, -631.0, -631.0, -631.0, -631.0, -631.0, -632.0, -632.0, -632.0, -632.0, -647.0, -680.0, -734.0, -794.0, -806.0, -806.0, -806.0, -806.0, -806.0, -806.0, -806.0]	[-490.0, -490.0, -490.0, -490.0, -490.0, -490.0, -490.0, -489.0, -487.0, -485.0, -484.0, -484.0, -484.0, -483.0, -480.0, -473.0, -446.0, -403.0, -343.0, -258.0, -166.0, -70.0, 3.0, 72.0, 129.0, 199.0, 272.0, 342.0, 445.0, 478.0, 484.0, 484.0, 484.0, 484.0, 483.0, 480.0, 475.0, 466.0, 462.0, 459.0, 455.0, 453.0, 452.0, 444.0, 442.0, 441.0, 441.0, 441.0, 441.0, 441.0, 441.0, 441.0, 441.0, 441.0, 441.0, 441.0, 441.0, 441.0, 441.0, 441.0]	[0.01611726835835725, 0.020273680798709393, 0.03050684544723481, 0.04889377381186932, 0.06529653305187821, 0.08069816266652197, 0.09864818467758596, 0.11549843160901219, 0.13053961342666298, 0.14874631783459336, 0.16524567443411797, 0.1806875813053921, 0.19853247271385044, 0.21544518368318677, 0.23027132567949593, 0.24870945396833122, 0.26520403183531016, 0.280687581282109, 0.2985676300013438, 0.31545132759492844, 0.3305109414504841, 0.3487261792179197, 0.36511084786616266, 0.38071079191286117, 0.3983979874756187, 0.41541855968534946, 0.43050889344885945, 0.44877772056497633, 0.46493574406486005, 0.4806780240032822, 0.4986116619547829, 0.5154731729999185, 0.5304303868906572, 0.5486623499309644, 0.5652156372088939, 0.5806244346313179, 0.5985300834290683, 0.6153953489847481, 0.6303839655593038, 0.648657571291551, 0.6651975464774296, 0.6806691492674872, 0.6983191395411268, 0.715410367702134, 0.7305007014656439, 0.7485742860008031, 0.7650616959435865, 0.780737757217139, 0.7983713635476306, 0.8153550716815516, 0.8304699815344065, 0.8487043338827789, 0.8650026452960446, 0.8806715386454016, 0.8983409849461168, 0.9154424529988319, 0.9304948988137767, 0.9487207179190591, 0.9653736744076014, 0.9807196665788069]
26	病人	True	animate	inanimate	left	1.233	[0.0, 0.0, 0.0, 0.0, 0.0, 0.0, 0.0, 0.0, 0.0, 0.0, 0.0, 0.0, 0.0, 0.0, 0.0, 0.0, 0.0, 0.0, 1.0, 4.0, 5.0, 1.0, -36.0, -119.0, -230.0, -396.0, -483.0, -554.0, -619.0, -672.0, -707.0, -720.0, -723.0, -723.0, -723.0, -723.0, -723.0, -712.0, -691.0, -675.0, -615.0, -597.0, -594.0, -594.0, -601.0, -617.0, -628.0, -633.0, -634.0, -634.0, -634.0, -634.0, -634.0, -634.0, -634.0, -634.0, -634.0, -634.0, -634.0, -634.0, -634.0, -634.0, -638.0, -644.0, -716.0, -760.0, -776.0, -777.0, -777.0, -777.0, -777.0, -777.0, -777.0, -777.0, -777.0]	[-490.0, -490.0, -490.0, -490.0, -490.0, -490.0, -490.0, -490.0, -490.0, -490.0, -490.0, -490.0, -490.0, -490.0, -490.0, -490.0, -490.0, -490.0, -490.0, -477.0, -450.0, -397.0, -308.0, -186.0, -57.0, 110.0, 174.0, 226.0, 268.0, 297.0, 318.0, 324.0, 325.0, 325.0, 325.0, 325.0, 328.0, 340.0, 352.0, 358.0, 387.0, 399.0, 411.0, 419.0, 428.0, 435.0, 437.0, 438.0, 438.0, 438.0, 438.0, 438.0, 438.0, 438.0, 438.0, 438.0, 438.0, 438.0, 438.0, 438.0, 438.0, 438.0, 438.0, 438.0, 438.0, 438.0, 438.0, 438.0, 438.0, 438.0, 438.0, 438.0, 438.0, 438.0, 438.0]	[0.008427308057434857, 0.013006973429583013, 0.017555577564053237, 0.042402575025334954, 0.050265864352695644, 0.06560127518605441, 0.08354242262430489, 0.10044694144744426, 0.11511572892777622, 0.133544982643798, 0.15022080834023654, 0.1655347152845934, 0.18353149993345141, 0.20043294678907841, 0.21524987288285047, 0.2336695691337809, 0.2501986217685044, 0.2655661179451272, 0.2833891640184447, 0.300260232295841, 0.3153498833999038, 0.3336289505241439, 0.3501149951480329, 0.3655357393436134, 0.3834202253492549, 0.40033122955355793, 0.4153556860983372, 0.43371087044943124, 0.4498996139736846, 0.4655391526175663, 0.4835256972583011, 0.5004834641003981, 0.5153317927615717, 0.5335750199155882, 0.5498528513126075, 0.5655388112645596, 0.583376876078546, 0.6002418003045022, 0.6153256488032639, 0.6335989132057875, 0.6500436564674601, 0.6655978618655354, 0.6832597987959161, 0.7003042643191293, 0.7153433981584385, 0.7335408865474164, 0.7501245524035767, 0.7656681764638051, 0.7834236386697739, 0.8003977895714343, 0.8154741286998615, 0.8335931105539203, 0.8500914431642741, 0.8654739579651505, 0.8835625612409785, 0.900440456229262, 0.9154287313576788, 0.9335043639875948, 0.9499999658437446, 0.9655668005580083, 0.9835547106340528, 1.0004155389033258, 1.0153266728157178, 1.033672982477583, 1.0500842751935124, 1.0655442726565525, 1.0834540172945708, 1.1004264615476131, 1.1153730941005051, 1.1334664759924635, 1.1501300138188526, 1.1655422246549278, 1.1831505722366273, 1.2002629629569128, 1.2153614887502044]
27	戒指	False	inanimate	animate	left	0.743	[0.0, 0.0, 0.0, 0.0, 0.0, 0.0, 0.0, 0.0, 0.0, 0.0, 4.0, 9.0, 22.0, 41.0, 63.0, 87.0, 113.0, 154.0, 214.0, 305.0, 345.0, 359.0, 349.0, 271.0, 111.0, -94.0, -298.0, -463.0, -574.0, -637.0, -645.0, -660.0, -676.0, -693.0, -701.0, -704.0, -704.0, -705.0, -705.0, -708.0, -708.0, -708.0, -708.0, -708.0, -708.0]	[-490.0, -490.0, -490.0, -490.0, -490.0, -490.0, -490.0, -490.0, -490.0, -490.0, -490.0, -490.0, -490.0, -490.0, -490.0, -489.0, -482.0, -464.0, -433.0, -340.0, -258.0, -171.0, -71.0, 37.0, 152.0, 263.0, 343.0, 389.0, 409.0, 419.0, 420.0, 421.0, 421.0, 420.0, 415.0, 413.0, 413.0, 413.0, 413.0, 413.0, 413.0, 413.0, 413.0, 413.0, 413.0]	[0.01152661198284477, 0.016435322468169034, 0.02174509922042489, 0.03953094012103975, 0.056333741755224764, 0.071358198300004, 0.08968471060507, 0.10599735798314214, 0.12158979277592152, 0.13965586794074625, 0.15643853100482374, 0.17145479551982135, 0.189664913341403, 0.20615198195446283, 0.22161812335252762, 0.2395698520122096, 0.25631223781965673, 0.2713558089453727, 0.2896673026261851, 0.3061362805310637, 0.3215665820753202, 0.3395251374458894, 0.35637606703676283, 0.37114861980080605, 0.38945055613294244, 0.4059830220649019, 0.4215075314277783, 0.43954766541719437, 0.4564067870378494, 0.47106704115867615, 0.4895672920392826, 0.5060994166415185, 0.5215505394153297, 0.5394544814480469, 0.5626603496493772, 0.5711185825057328, 0.5894522628514096, 0.6059488886967301, 0.6215669234516099, 0.6397859158460051, 0.6563968883128837, 0.6712435103254393, 0.6899454890517518, 0.7062086431542411, 0.7216539633227512]
28	老鹰	True	inanimate	animate	right	1.183	[0.0, 0.0, 0.0, 0.0, 0.0, 0.0, 0.0, 0.0, 0.0, 0.0, 0.0, 0.0, 0.0, 0.0, 0.0, 8.0, 24.0, 44.0, 59.0, 75.0, 80.0, 85.0, 85.0, 64.0, 42.0, -108.0, -266.0, -446.0, -617.0, -738.0, -799.0, -814.0, -815.0, -815.0, -815.0, -815.0, -815.0, -815.0, -815.0, -815.0, -815.0, -791.0, -715.0, -575.0, -379.0, -147.0, 228.0, 483.0, 581.0, 746.0, 754.0, 754.0, 749.0, 745.0, 741.0, 738.0, 737.0, 733.0, 729.0, 729.0, 729.0, 729.0, 729.0, 729.0, 729.0, 729.0, 729.0, 732.0, 736.0, 736.0, 736.0, 736.0]	[-490.0, -490.0, -490.0, -490.0, -490.0, -490.0, -490.0, -490.0, -490.0, -490.0, -490.0, -490.0, -490.0, -490.0, -490.0, -490.0, -490.0, -490.0, -490.0, -478.0, -465.0, -430.0, -340.0, -254.0, -204.0, -16.0, 108.0, 227.0, 312.0, 364.0, 386.0, 395.0, 395.0, 395.0, 395.0, 395.0, 395.0, 395.0, 395.0, 395.0, 395.0, 395.0, 406.0, 414.0, 414.0, 416.0, 421.0, 410.0, 395.0, 369.0, 368.0, 367.0, 365.0, 364.0, 363.0, 362.0, 362.0, 361.0, 360.0, 360.0, 360.0, 360.0, 360.0, 360.0, 360.0, 360.0, 362.0, 365.0, 368.0, 369.0, 369.0, 369.0]	[0.014334417530335486, 0.018928077653981745, 0.026748700300231576, 0.04513358057010919, 0.06207155017182231, 0.07695708412211388, 0.09534571913536638, 0.11187750229146332, 0.12720540387090296, 0.14523734583053738, 0.1620285422541201, 0.1769236334366724, 0.19523410324472934, 0.21185633970890194, 0.22728117986116558, 0.24501650338061154, 0.2619377475930378, 0.27676696167327464, 0.29522625252138823, 0.31188671838026494, 0.32715864130295813, 0.3451373352436349, 0.36203161417506635, 0.3769557188497856, 0.39524127123877406, 0.4117143451003358, 0.4271542039932683, 0.4450274260016158, 0.46192750765476376, 0.4769376281183213, 0.4951180500211194, 0.5116006812313572, 0.5271808279212564, 0.5451322152512148, 0.5618810863234103, 0.5769697134383023, 0.5951678846031427, 0.611751550459303, 0.627161371987313, 0.645004898076877, 0.6618203290272504, 0.6769376281881705, 0.6950979112880304, 0.7117044464685023, 0.7271999425720423, 0.7450421033427119, 0.7619677849579602, 0.776805532281287, 0.7951613992918283, 0.8117501850938424, 0.8271811692975461, 0.8450752126518637, 0.8620193261886016, 0.8769468441605568, 0.8952146471710876, 0.9117836357327178, 0.9271832172526047, 0.9450441513909027, 0.9620186435058713, 0.9769601561129093, 0.9952047485858202, 1.0117105904500932, 1.0271733186673373, 1.0451933138538152, 1.0619899715529755, 1.0769427481573075, 1.0950996179599315, 1.1116559772053733, 1.1271555692655966, 1.1451946792658418, 1.1620049902703613, 1.1769860974745825]
29	鸭子	True	animate	inanimate	left	1.033	[0.0, 0.0, 0.0, 0.0, 0.0, 0.0, 0.0, 0.0, 0.0, 0.0, 0.0, 0.0, 0.0, 0.0, 0.0, 0.0, 0.0, 0.0, 0.0, 0.0, 0.0, 0.0, 0.0, 0.0, -17.0, -60.0, -140.0, -246.0, -354.0, -460.0, -558.0, -654.0, -690.0, -697.0, -702.0, -702.0, -702.0, -702.0, -702.0, -700.0, -695.0, -687.0, -672.0, -602.0, -536.0, -511.0, -484.0, -483.0, -487.0, -510.0, -553.0, -591.0, -618.0, -641.0, -662.0, -700.0, -723.0, -734.0, -753.0, -756.0, -756.0, -756.0]	[-490.0, -490.0, -490.0, -490.0, -490.0, -490.0, -490.0, -490.0, -490.0, -490.0, -490.0, -490.0, -490.0, -490.0, -490.0, -490.0, -490.0, -491.0, -492.0, -492.0, -492.0, -492.0, -468.0, -422.0, -347.0, -240.0, -129.0, -3.0, 95.0, 176.0, 241.0, 298.0, 316.0, 321.0, 323.0, 323.0, 323.0, 323.0, 323.0, 326.0, 330.0, 337.0, 347.0, 385.0, 418.0, 435.0, 463.0, 470.0, 473.0, 479.0, 483.0, 483.0, 483.0, 481.0, 478.0, 470.0, 466.0, 462.0, 460.0, 458.0, 458.0, 458.0]	[0.0007241038838401437, 0.005705518298782408, 0.01633428782224655, 0.034733504173345864, 0.05110349552705884, 0.06662459159269929, 0.08431929652579129, 0.10113029018975794, 0.11639129044488072, 0.13458058692049235, 0.15115981549024582, 0.16657475696410984, 0.18453672563191503, 0.20135625265538692, 0.2162895732326433, 0.2345543042756617, 0.25121920742094517, 0.26657782902475446, 0.28446402167901397, 0.30137946328613907, 0.3163523784605786, 0.33463827217929065, 0.3511932661058381, 0.36654710897710174, 0.3844998616259545, 0.401330993976444, 0.4163721757940948, 0.4345314350211993, 0.4510789195774123, 0.466524581075646, 0.48422372329514474, 0.501251463429071, 0.516110714757815, 0.534569664276205, 0.5510594635270536, 0.5666000156197697, 0.5843742510769516, 0.6013053939677775, 0.6163042505504563, 0.634549867012538, 0.6510819914983585, 0.6665785115910694, 0.684354112483561, 0.7013023219769821, 0.7163390665082261, 0.7345993602648377, 0.751015090267174, 0.7665344796841964, 0.78444422443863, 0.8012289353646338, 0.8162994718877599, 0.8345863895956427, 0.8508160930359736, 0.8665682716527954, 0.8843807365046814, 0.9012429300928488, 0.9160902347648516, 0.9346334935398772, 0.9511041782097891, 0.9665597382700071, 0.9841759366681799, 1.0011575968237594]
30	将军	True	inanimate	animate	right	1.182	[0.0, 0.0, 0.0, 0.0, 0.0, 0.0, 0.0, 0.0, 0.0, 0.0, 0.0, 0.0, 0.0, 0.0, 0.0, 0.0, 0.0, 0.0, 1.0, 5.0, 6.0, 8.0, 8.0, -23.0, -108.0, -244.0, -407.0, -584.0, -756.0, -881.0, -960.0, -960.0, -960.0, -960.0, -960.0, -960.0, -960.0, -960.0, -960.0, -960.0, -947.0, -910.0, -814.0, -660.0, -468.0, -258.0, 15.0, 171.0, 303.0, 402.0, 467.0, 500.0, 517.0, 530.0, 536.0, 545.0, 560.0, 578.0, 610.0, 632.0, 651.0, 671.0, 688.0, 692.0, 692.0, 692.0, 692.0, 693.0, 695.0, 697.0, 697.0, 697.0]	[-490.0, -490.0, -490.0, -490.0, -490.0, -490.0, -490.0, -490.0, -490.0, -490.0, -490.0, -490.0, -489.0, -489.0, -489.0, -489.0, -489.0, -489.0, -489.0, -486.0, -484.0, -473.0, -436.0, -359.0, -244.0, -111.0, 14.0, 130.0, 238.0, 331.0, 398.0, 422.0, 422.0, 422.0, 422.0, 422.0, 422.0, 422.0, 422.0, 423.0, 416.0, 398.0, 379.0, 358.0, 336.0, 334.0, 334.0, 350.0, 370.0, 392.0, 411.0, 425.0, 433.0, 438.0, 440.0, 440.0, 440.0, 440.0, 442.0, 444.0, 445.0, 445.0, 445.0, 445.0, 445.0, 445.0, 445.0, 445.0, 445.0, 445.0, 445.0, 445.0]	[0.009625728474929929, 0.014307793811894953, 0.020009762258268893, 0.03644665493629873, 0.052639494417235255, 0.06808686256408691, 0.08597954059951007, 0.10311718995217234, 0.11775559885427356, 0.13634220696985722, 0.15264324902091175, 0.16819711308926344, 0.18606896989513189, 0.20306291803717613, 0.21782352414447814, 0.23641730018425733, 0.25276954227592796, 0.2681486437795684, 0.28903276461642236, 0.3029461820842698, 0.3179986278992146, 0.33639682026114315, 0.3542635570047423, 0.36817902245093137, 0.38742201402783394, 0.4029792913934216, 0.41880280862096697, 0.43610702850855887, 0.45367066154722124, 0.4681667344411835, 0.48737695813179016, 0.5029813394648954, 0.5189570911461487, 0.5361793910851702, 0.553476101718843, 0.5681954064639285, 0.5861290445318446, 0.6027253397041932, 0.6179187559755519, 0.6358616100624204, 0.6525234411237761, 0.6680479506030679, 0.6860512205166742, 0.7028912275563926, 0.7180047719739377, 0.7360442231874913, 0.7527057130355388, 0.768194041098468, 0.7858771407045424, 0.8026529770577326, 0.8181225318694487, 0.8361049805535004, 0.8527442836202681, 0.8681575184455141, 0.8860512205865234, 0.9027949715964496, 0.9180843025678769, 0.9360070179682225, 0.9527620329754427, 0.9681773157790303, 0.9860099192010239, 1.0028779155109078, 1.018031395971775, 1.0359452366828918, 1.0528016275493428, 1.0683571982663125, 1.0860614605480805, 1.1028424168471247, 1.1177282921271399, 1.1358814074192196, 1.1530245180474594, 1.1677861481439322]
31	窗户	False	inanimate	animate	left	0.732	[0.0, 0.0, 0.0, 0.0, 0.0, 0.0, 0.0, 0.0, 0.0, 0.0, 0.0, 0.0, 0.0, 0.0, 0.0, 0.0, 0.0, 0.0, 0.0, 0.0, -7.0, -41.0, -116.0, -220.0, -348.0, -473.0, -589.0, -677.0, -739.0, -756.0, -762.0, -762.0, -762.0, -762.0, -762.0, -762.0, -762.0, -762.0, -762.0, -762.0, -762.0, -762.0, -762.0, -762.0, -762.0]	[-490.0, -490.0, -490.0, -490.0, -490.0, -490.0, -490.0, -490.0, -490.0, -490.0, -490.0, -490.0, -490.0, -490.0, -490.0, -490.0, -490.0, -490.0, -490.0, -472.0, -435.0, -364.0, -256.0, -115.0, 33.0, 163.0, 271.0, 341.0, 379.0, 385.0, 387.0, 387.0, 387.0, 387.0, 387.0, 387.0, 387.0, 387.0, 387.0, 387.0, 387.0, 387.0, 387.0, 387.0, 387.0]	[0.01182323053944856, 0.015905573731288314, 0.02204478974454105, 0.0409252856625244, 0.05710925057064742, 0.07272114115767181, 0.09029876883141696, 0.10743880760855973, 0.12230317888315767, 0.14065938722342253, 0.15713450917974114, 0.17245899746194482, 0.19034211814869195, 0.20739033829886466, 0.22227484825998545, 0.24066518992185593, 0.25704200787004083, 0.2724409067304805, 0.2904366673901677, 0.30725960771087557, 0.32226699753664434, 0.34064368589315563, 0.35697476530913264, 0.3723978988127783, 0.3903083262266591, 0.40731456235516816, 0.42226153623778373, 0.44049964332953095, 0.4569617946399376, 0.47241018677596003, 0.49010216107126325, 0.5072787223616615, 0.5220321604283527, 0.5405126140685752, 0.5567300295224413, 0.5724057494662702, 0.5900765610858798, 0.6072817944223061, 0.6220478618051857, 0.6405467473668978, 0.6567624561721459, 0.6724115521647036, 0.6901161556597799, 0.7071592558640987, 0.722052640398033]
32	船长	True	inanimate	animate	right	0.981	[0.0, 0.0, 0.0, 0.0, 0.0, 0.0, 0.0, 0.0, 0.0, 1.0, 8.0, 14.0, 25.0, 41.0, 87.0, 139.0, 207.0, 308.0, 453.0, 602.0, 748.0, 863.0, 929.0, 956.0, 959.0, 957.0, 955.0, 944.0, 934.0, 923.0, 917.0, 895.0, 872.0, 839.0, 817.0, 811.0, 811.0, 811.0, 811.0, 811.0, 810.0, 813.0, 816.0, 825.0, 829.0, 832.0, 835.0, 838.0, 843.0, 851.0, 855.0, 855.0, 855.0, 855.0, 855.0, 855.0, 855.0, 855.0, 855.0, 855.0]	[-490.0, -490.0, -490.0, -490.0, -490.0, -490.0, -490.0, -490.0, -490.0, -484.0, -481.0, -480.0, -476.0, -467.0, -428.0, -366.0, -278.0, -160.0, -35.0, 69.0, 173.0, 265.0, 331.0, 367.0, 387.0, 405.0, 409.0, 422.0, 433.0, 443.0, 446.0, 453.0, 457.0, 462.0, 464.0, 464.0, 464.0, 464.0, 464.0, 464.0, 466.0, 468.0, 468.0, 469.0, 469.0, 469.0, 469.0, 468.0, 466.0, 464.0, 463.0, 463.0, 463.0, 463.0, 463.0, 463.0, 463.0, 463.0, 463.0, 463.0]	[0.013002194813452661, 0.017365455045364797, 0.024075721390545368, 0.04476425831671804, 0.06048196228221059, 0.07454590767156333, 0.09388242440763861, 0.10945574450306594, 0.1268265243852511, 0.14271421206649393, 0.16022527986206114, 0.1745305476943031, 0.19357044610660523, 0.2093922565691173, 0.22678522299975157, 0.2426264894893393, 0.2598699521040544, 0.27450972632505, 0.2925300629576668, 0.3090553608490154, 0.32415149733424187, 0.34238004707731307, 0.35952759510837495, 0.37420628126710653, 0.3945558745181188, 0.4092448006849736, 0.42714225745294243, 0.4426261482294649, 0.4604536317056045, 0.47441312903538346, 0.4936721633421257, 0.5092355846427381, 0.5249041366623715, 0.5425599295413122, 0.5595985923428088, 0.5741591772530228, 0.5927584148012102, 0.6091239687521011, 0.6245283290045336, 0.6424305643886328, 0.6593183579389006, 0.6741311879595742, 0.6926566974725574, 0.7091874567558989, 0.7245105796027929, 0.7422831085277721, 0.7594426032155752, 0.7743946970440447, 0.7925816042115912, 0.8091591261327267, 0.8244829316390678, 0.8425493482500315, 0.8594132484868169, 0.874430195777677, 0.8926860521314666, 0.9089693449204788, 0.9245655342238024, 0.9426677908049896, 0.9594231471419334, 0.9741561053087935]
33	信封	False	animate	inanimate	right	1.492	[0.0, 0.0, 0.0, 0.0, 0.0, 0.0, 0.0, 0.0, 1.0, 1.0, 2.0, 2.0, 3.0, 3.0, 3.0, 0.0, -41.0, -93.0, -123.0, -239.0, -326.0, -411.0, -484.0, -547.0, -597.0, -620.0, -627.0, -627.0, -627.0, -627.0, -627.0, -627.0, -625.0, -625.0, -625.0, -625.0, -625.0, -629.0, -641.0, -662.0, -682.0, -688.0, -689.0, -690.0, -690.0, -690.0, -690.0, -690.0, -690.0, -690.0, -690.0, -690.0, -690.0, -690.0, -690.0, -690.0, -690.0, -690.0, -690.0, -690.0, -690.0, -690.0, -688.0, -609.0, -327.0, -72.0, 66.0, 451.0, 633.0, 727.0, 747.0, 748.0, 748.0, 748.0, 748.0, 748.0, 748.0, 748.0, 748.0, 756.0, 768.0, 781.0, 786.0, 786.0, 786.0, 786.0, 786.0]	[-490.0, -490.0, -490.0, -490.0, -490.0, -490.0, -490.0, -490.0, -490.0, -489.0, -487.0, -486.0, -483.0, -478.0, -464.0, -434.0, -346.0, -256.0, -207.0, -52.0, 50.0, 133.0, 182.0, 227.0, 256.0, 269.0, 273.0, 274.0, 279.0, 280.0, 282.0, 287.0, 294.0, 301.0, 307.0, 313.0, 318.0, 329.0, 343.0, 355.0, 365.0, 368.0, 368.0, 368.0, 368.0, 368.0, 368.0, 368.0, 368.0, 368.0, 368.0, 368.0, 368.0, 368.0, 368.0, 368.0, 368.0, 368.0, 368.0, 368.0, 368.0, 368.0, 369.0, 377.0, 395.0, 409.0, 420.0, 448.0, 457.0, 457.0, 457.0, 457.0, 457.0, 457.0, 457.0, 457.0, 457.0, 457.0, 457.0, 446.0, 435.0, 429.0, 427.0, 427.0, 427.0, 427.0, 427.0]	[0.013226177543401718, 0.01747270196210593, 0.033085275208577514, 0.042832381557673216, 0.05935699678957462, 0.07480573037173599, 0.09271854697726667, 0.10985619644634426, 0.12470589042641222, 0.1430115815019235, 0.15936860220972449, 0.17480641300790012, 0.19283186958637089, 0.20969133253674954, 0.22464274382218719, 0.24294706946238875, 0.2595669166184962, 0.2748006102629006, 0.292819581576623, 0.30970430315937847, 0.32468472770415246, 0.3429016722366214, 0.35919793567154557, 0.37465178908314556, 0.392449235310778, 0.4095223726471886, 0.42437582137063146, 0.4428549095755443, 0.45914195699151605, 0.4747231276705861, 0.49246357125230134, 0.5095257860375568, 0.5243877680040896, 0.542891432181932, 0.5592423089547083, 0.5747227864339948, 0.5927489256719127, 0.6096012205816805, 0.6245652611833066, 0.6428968935506418, 0.6604379985947162, 0.6747804717160761, 0.6941896924981847, 0.7095602606423199, 0.7272286829538643, 0.7428470589220524, 0.7601980414474383, 0.7748214316088706, 0.7928465469740331, 0.8095449006650597, 0.8244048346532509, 0.8425081152236089, 0.8607885476667434, 0.8748070956207812, 0.893853479414247, 0.9091609009774402, 0.9247714263619855, 0.9427760615944862, 0.9596778498962522, 0.9746592984301969, 0.9929820561083034, 1.0095035993726924, 1.0247567490441725, 1.0427501202793792, 1.059694575262256, 1.0746715863933787, 1.092936658882536, 1.1096414979547262, 1.1247738156234846, 1.1425238165538758, 1.159597636666149, 1.1746709037106484, 1.192946216207929, 1.2093476101290435, 1.2247574316570535, 1.2427153043681756, 1.259661465883255, 1.274657591828145, 1.2929475815035403, 1.3094401113921776, 1.3248055595904589, 1.342525181826204, 1.3597171031869948, 1.3743930587079376, 1.3928919442696497, 1.4091469063423574, 1.4247458263998851]
34	椅子	False	animate	inanimate	right	1.215	[0.0, 0.0, 0.0, 0.0, 0.0, 0.0, 0.0, 0.0, 0.0, 0.0, 2.0, 2.0, 2.0, 2.0, 2.0, 2.0, 4.0, 6.0, 13.0, 21.0, 29.0, 36.0, 38.0, 31.0, 21.0, -25.0, -80.0, -172.0, -288.0, -385.0, -465.0, -539.0, -598.0, -639.0, -669.0, -677.0, -680.0, -689.0, -703.0, -727.0, -751.0, -774.0, -788.0, -794.0, -794.0, -794.0, -794.0, -794.0, -794.0, -689.0, -513.0, -271.0, 2.0, 255.0, 474.0, 623.0, 711.0, 719.0, 719.0, 719.0, 720.0, 723.0, 724.0, 726.0, 734.0, 746.0, 752.0, 753.0, 753.0, 753.0, 753.0, 754.0, 754.0, 754.0]	[-490.0, -490.0, -490.0, -490.0, -490.0, -490.0, -490.0, -490.0, -490.0, -490.0, -487.0, -487.0, -487.0, -487.0, -487.0, -487.0, -486.0, -484.0, -476.0, -463.0, -438.0, -389.0, -258.0, -159.0, -98.0, 59.0, 150.0, 232.0, 310.0, 356.0, 384.0, 409.0, 424.0, 431.0, 432.0, 432.0, 432.0, 431.0, 430.0, 425.0, 423.0, 421.0, 421.0, 421.0, 421.0, 421.0, 421.0, 421.0, 421.0, 421.0, 413.0, 397.0, 385.0, 383.0, 378.0, 374.0, 374.0, 374.0, 374.0, 374.0, 374.0, 374.0, 375.0, 376.0, 378.0, 382.0, 384.0, 385.0, 385.0, 385.0, 385.0, 389.0, 389.0, 389.0]	[0.013237031875178218, 0.017403342993929982, 0.02572674921248108, 0.041363898548297584, 0.05863398511428386, 0.07318125804886222, 0.09110943472478539, 0.10786854580510408, 0.12307937012519687, 0.14113861869554967, 0.15816943091340363, 0.1732000313932076, 0.1911394720664248, 0.2078101778170094, 0.22300291154533625, 0.2410799094941467, 0.25767313258256763, 0.2731324473861605, 0.2910596001893282, 0.30801600171253085, 0.3228694503195584, 0.34108980814926326, 0.3576345619512722, 0.3730177595280111, 0.3911620000144467, 0.40790028974879533, 0.42301622359082103, 0.44107444817200303, 0.4576536766253412, 0.47319695935584605, 0.491088954731822, 0.5077835539123043, 0.523042164859362, 0.5409392802976072, 0.5577256978722289, 0.5732013967353851, 0.5909950882196426, 0.6077995965024456, 0.6230227088090032, 0.6410177868092433, 0.6576864445814863, 0.6731129914987832, 0.690862309653312, 0.7076661352766678, 0.7232179513666779, 0.7411423734156415, 0.7581134522333741, 0.7728546023136005, 0.7913203785428777, 0.8079381777206436, 0.8232408206677064, 0.8408450722927228, 0.8580875109182671, 0.8727890664013103, 0.891176677425392, 0.9074483647709712, 0.9229360102908686, 0.9408044536830857, 0.9579687269870192, 0.9727306984132156, 0.9912998985964805, 1.0076265407260507, 1.0231015568133444, 1.0410003789002076, 1.058090241625905, 1.0727822397602722, 1.091377381235361, 1.1102592424722388, 1.1230831248685718, 1.1440297096269205, 1.1578840764705092, 1.1728952209232375, 1.191324474522844, 1.2098090241197497]
35	石头	False	inanimate	animate	left	0.782	[0.0, 0.0, 0.0, 0.0, 0.0, 0.0, 0.0, 0.0, 3.0, 7.0, 14.0, 21.0, 21.0, 23.0, 28.0, 32.0, 47.0, 62.0, 82.0, 112.0, 144.0, 171.0, 192.0, 209.0, 210.0, 177.0, 96.0, -37.0, -180.0, -327.0, -470.0, -605.0, -706.0, -754.0, -759.0, -759.0, -759.0, -759.0, -759.0, -759.0, -760.0, -766.0, -776.0, -787.0, -789.0, -790.0, -790.0, -790.0]	[-490.0, -490.0, -490.0, -490.0, -490.0, -490.0, -490.0, -491.0, -491.0, -491.0, -491.0, -491.0, -491.0, -491.0, -490.0, -490.0, -482.0, -472.0, -453.0, -407.0, -351.0, -282.0, -209.0, -132.0, -63.0, 45.0, 132.0, 221.0, 295.0, 349.0, 389.0, 427.0, 447.0, 453.0, 453.0, 453.0, 453.0, 453.0, 453.0, 453.0, 453.0, 452.0, 450.0, 447.0, 447.0, 446.0, 446.0, 446.0]	[0.009377237875014544, 0.01395280729047954, 0.021687414031475782, 0.03554826625622809, 0.05394953058566898, 0.06739839375950396, 0.08744829660281539, 0.10222323867492378, 0.11991043423768133, 0.1355055996682495, 0.15328939247410744, 0.16732364182826132, 0.18616863910574466, 0.20219320140313357, 0.21804095315746963, 0.23549399431794882, 0.2525889769895002, 0.26734855910763144, 0.28546719963196665, 0.3021351747447625, 0.31702173268422484, 0.33519123191945255, 0.353533104294911, 0.3669686554931104, 0.38654615345876664, 0.4020522307837382, 0.4181651984108612, 0.4352871464798227, 0.45317845919635147, 0.46718574326951057, 0.4854689063504338, 0.5019341296283528, 0.5174497644184157, 0.5352031785296276, 0.5522715373663232, 0.5670731033897027, 0.5855166929541156, 0.6019849881995469, 0.6173067458439618, 0.635223658522591, 0.6521868867566809, 0.6672509378986433, 0.6856969167711213, 0.7017044124659151, 0.7173739884747192, 0.7350796159589663, 0.752258566673845, 0.7672499138861895]
36	牙齿	False	animate	inanimate	right	1.322	[0.0, 0.0, 0.0, 0.0, 0.0, 0.0, 0.0, 0.0, 0.0, 0.0, 0.0, 0.0, 0.0, 1.0, 4.0, 8.0, 15.0, 22.0, 23.0, 23.0, -34.0, -74.0, -246.0, -369.0, -495.0, -608.0, -699.0, -768.0, -826.0, -857.0, -857.0, -857.0, -857.0, -857.0, -857.0, -857.0, -857.0, -857.0, -858.0, -855.0, -845.0, -817.0, -804.0, -781.0, -768.0, -749.0, -701.0, -585.0, -411.0, -233.0, -57.0, 132.0, 318.0, 485.0, 612.0, 722.0, 755.0, 763.0, 772.0, 774.0, 775.0, 779.0, 789.0, 805.0, 837.0, 874.0, 898.0, 904.0, 904.0, 904.0, 903.0, 903.0, 903.0, 903.0, 903.0, 901.0, 895.0, 891.0, 891.0, 891.0]	[-490.0, -490.0, -490.0, -490.0, -490.0, -490.0, -490.0, -490.0, -490.0, -490.0, -490.0, -490.0, -490.0, -488.0, -487.0, -484.0, -475.0, -455.0, -425.0, -371.0, -237.0, -181.0, 0.0, 97.0, 172.0, 225.0, 262.0, 285.0, 305.0, 313.0, 313.0, 313.0, 313.0, 313.0, 313.0, 313.0, 313.0, 313.0, 315.0, 323.0, 338.0, 372.0, 386.0, 406.0, 410.0, 412.0, 412.0, 412.0, 418.0, 418.0, 420.0, 423.0, 423.0, 423.0, 423.0, 434.0, 440.0, 441.0, 442.0, 442.0, 442.0, 443.0, 444.0, 446.0, 448.0, 450.0, 450.0, 451.0, 451.0, 451.0, 451.0, 451.0, 451.0, 451.0, 451.0, 451.0, 451.0, 451.0, 451.0, 451.0]	[0.01367605454288423, 0.018773863441310823, 0.02534486586228013, 0.04396594862919301, 0.060284398728981614, 0.07576043880544603, 0.09387054608669132, 0.110739566385746, 0.12546535639557987, 0.14402636454906315, 0.16052811045665294, 0.175878198700957, 0.19388419936876744, 0.21087473421357572, 0.22569643892347813, 0.24391338333953172, 0.2603048786986619, 0.2757235749159008, 0.29353569832164794, 0.310566169093363, 0.3253141458844766, 0.34384545811917633, 0.36023251607548445, 0.3757205029251054, 0.3934875703416765, 0.4107696036808193, 0.42539777245838195, 0.4438253194093704, 0.46012943354435265, 0.47568124963436276, 0.4961301707662642, 0.5105944997631013, 0.5254755964269862, 0.5438584287185222, 0.5624924821313471, 0.5756891001947224, 0.5942576177185401, 0.6108859982341528, 0.6254308817442507, 0.6438201994169503, 0.6625286635244265, 0.6757153829094023, 0.6960233335848898, 0.7107450276380405, 0.7255452283425257, 0.7438611594261602, 0.7621747010853142, 0.7757205028319731, 0.7954963153460994, 0.8106149798259139, 0.8280925968429074, 0.8437454474624246, 0.8611978059634566, 0.8757553189061582, 0.8942292870488018, 0.910434755962342, 0.9254110844340175, 0.9434979810612276, 0.9605407398194075, 0.9757454202044755, 0.9937579061370343, 1.0106873423792422, 1.0253428178839386, 1.0434385890839621, 1.0603328680153936, 1.0757071909029037, 1.0937606368679553, 1.1105692411074415, 1.1255991589277983, 1.1436887861927971, 1.1602983933407813, 1.1754423164529726, 1.1940139059443027, 1.2103709266521037, 1.2257315962342545, 1.2437058528885245, 1.2607291556196287, 1.2754580177133903, 1.293985916650854, 1.3104705958394334]
37	燕子	True	inanimate	animate	right	1.185	[0.0, 0.0, 0.0, 0.0, 0.0, 0.0, 0.0, 0.0, 0.0, 0.0, 6.0, 15.0, 21.0, 24.0, 24.0, 23.0, 12.0, -6.0, -42.0, -105.0, -242.0, -292.0, -390.0, -407.0, -428.0, -451.0, -492.0, -544.0, -576.0, -591.0, -597.0, -598.0, -599.0, -600.0, -615.0, -626.0, -636.0, -658.0, -702.0, -746.0, -761.0, -761.0, -761.0, -761.0, -761.0, -761.0, -761.0, -761.0, -761.0, -754.0, -669.0, -523.0, -302.0, -38.0, 232.0, 564.0, 699.0, 737.0, 762.0, 762.0, 762.0, 762.0, 762.0, 762.0, 762.0, 762.0, 762.0, 762.0, 762.0, 762.0, 762.0, 762.0]	[-490.0, -490.0, -490.0, -490.0, -490.0, -490.0, -489.0, -478.0, -472.0, -471.0, -467.0, -458.0, -440.0, -412.0, -363.0, -289.0, -208.0, -120.0, -22.0, 78.0, 225.0, 267.0, 339.0, 352.0, 363.0, 372.0, 383.0, 397.0, 406.0, 407.0, 409.0, 409.0, 409.0, 409.0, 409.0, 409.0, 407.0, 407.0, 418.0, 425.0, 427.0, 427.0, 427.0, 427.0, 427.0, 427.0, 427.0, 427.0, 427.0, 428.0, 428.0, 428.0, 428.0, 428.0, 430.0, 439.0, 439.0, 439.0, 436.0, 436.0, 436.0, 436.0, 436.0, 436.0, 436.0, 436.0, 436.0, 436.0, 436.0, 436.0, 436.0, 436.0]	[0.012487874133512378, 0.017842365661635995, 0.02286200935486704, 0.04155545472167432, 0.05810157395899296, 0.07340728887356818, 0.09150818013586104, 0.108243397786282, 0.12318422773387283, 0.14157866535242647, 0.15798961673863232, 0.17336871824227273, 0.19127129495609552, 0.20840245904400945, 0.22301833983510733, 0.24146363616455346, 0.2578005181858316, 0.27338066487573087, 0.29111564706545323, 0.30818912584800273, 0.32296304393094033, 0.34154009469784796, 0.3577919848030433, 0.3733472141902894, 0.3910784417530522, 0.4082334991544485, 0.4230060519184917, 0.4414226762019098, 0.45768446498550475, 0.47323593962937593, 0.4909992525354028, 0.5081502138637006, 0.5229466599412262, 0.5414202868705615, 0.5578524008160457, 0.5734021688112989, 0.5911146231228486, 0.6083823203807697, 0.6232538596959785, 0.6415168840903789, 0.6608704675454646, 0.6732489103451371, 0.693569490336813, 0.7081775205442682, 0.7231743290321901, 0.7415131294401363, 0.7600202069152147, 0.7733554062433541, 0.7926676884526387, 0.8082242831587791, 0.8239317471161485, 0.841478654765524, 0.8587917493423447, 0.873357112868689, 0.8915754227200523, 0.9081433871760964, 0.9232306489720941, 0.9410093218320981, 0.9578121234662831, 0.9731041850754991, 0.9927318590926006, 1.0077709928154945, 1.0246113411849365, 1.041153023019433, 1.0590180531144142, 1.0731028197333217, 1.0921355502214283, 1.1078788541490212, 1.1233893688768148, 1.1411690657259896, 1.1584080909378827, 1.1731273957993835]
38	蜻蜓	True	inanimate	animate	right	1.025	[0.0, 0.0, 0.0, 0.0, 0.0, 0.0, 0.0, 0.0, 0.0, 0.0, 0.0, 2.0, 2.0, 3.0, 6.0, 8.0, 8.0, 8.0, 7.0, -8.0, -48.0, -109.0, -225.0, -269.0, -347.0, -424.0, -557.0, -601.0, -681.0, -699.0, -704.0, -708.0, -711.0, -716.0, -718.0, -718.0, -721.0, -721.0, -721.0, -721.0, -688.0, -589.0, -431.0, -215.0, 38.0, 301.0, 543.0, 743.0, 872.0, 932.0, 941.0, 941.0, 941.0, 941.0, 941.0, 941.0, 941.0, 941.0, 941.0, 941.0, 941.0, 941.0, 941.0]	[-490.0, -490.0, -490.0, -490.0, -490.0, -490.0, -490.0, -490.0, -490.0, -491.0, -491.0, -491.0, -491.0, -491.0, -485.0, -475.0, -428.0, -360.0, -286.0, -196.0, -86.0, 13.0, 168.0, 218.0, 302.0, 362.0, 438.0, 455.0, 481.0, 484.0, 484.0, 484.0, 484.0, 482.0, 480.0, 477.0, 473.0, 471.0, 458.0, 453.0, 429.0, 409.0, 394.0, 394.0, 394.0, 412.0, 440.0, 467.0, 485.0, 500.0, 500.0, 500.0, 500.0, 500.0, 500.0, 500.0, 500.0, 500.0, 500.0, 500.0, 500.0, 500.0, 500.0]	[0.011231700307689607, 0.019148578867316246, 0.028020507306791842, 0.03903156996238977, 0.05582993431016803, 0.07053524442017078, 0.08922698313836008, 0.1057386277243495, 0.12105628929566592, 0.13903566589578986, 0.15589205687865615, 0.17057961772661656, 0.1891331165097654, 0.20568981708493084, 0.22091088141314685, 0.23901791661046445, 0.25580945424735546, 0.27055811369791627, 0.28911604988388717, 0.3054218706674874, 0.32097778271418065, 0.33863664767704904, 0.3556893051136285, 0.37050384178292006, 0.38902286591473967, 0.40535394533071667, 0.4207671801559627, 0.4386666849022731, 0.45570056908763945, 0.4706123856594786, 0.4890273032942787, 0.5074609941802919, 0.5209631053730845, 0.540785339078866, 0.5557333370670676, 0.571341814356856, 0.5890030686277896, 0.6065595336258411, 0.6208272548392415, 0.6394927109358832, 0.6556462971493602, 0.6714687902713194, 0.6889272927073762, 0.7055010598851368, 0.7209866573102772, 0.7387721568811685, 0.7556445904774591, 0.7709683959838003, 0.7888593674870208, 0.8057591076940298, 0.8209958733059466, 0.838951698038727, 0.8558026276296005, 0.8707632549339905, 0.8887893941719085, 0.9065281309885904, 0.9205862736562267, 0.9397821612656116, 0.9557217317633331, 0.9710905932588503, 0.9887552608270198, 1.0058748195879161, 1.0208777721272781]
39	天鹅	True	animate	inanimate	left	1.025	[0.0, 0.0, 0.0, 0.0, 0.0, 0.0, 0.0, 1.0, 1.0, 1.0, 1.0, 1.0, 5.0, 14.0, 27.0, 49.0, 72.0, 95.0, 114.0, 122.0, 117.0, 101.0, 28.0, -69.0, -199.0, -346.0, -481.0, -589.0, -642.0, -664.0, -673.0, -681.0, -693.0, -695.0, -696.0, -696.0, -696.0, -696.0, -696.0, -664.0, -553.0, -391.0, -245.0, -163.0, -162.0, -164.0, -239.0, -336.0, -449.0, -555.0, -644.0, -701.0, -731.0, -749.0, -753.0, -753.0, -753.0, -753.0, -753.0, -753.0, -753.0]	[-490.0, -490.0, -490.0, -490.0, -490.0, -490.0, -490.0, -491.0, -491.0, -491.0, -492.0, -492.0, -492.0, -492.0, -492.0, -484.0, -471.0, -452.0, -414.0, -332.0, -252.0, -198.0, -40.0, 61.0, 156.0, 240.0, 304.0, 349.0, 362.0, 365.0, 365.0, 364.0, 360.0, 358.0, 357.0, 357.0, 357.0, 357.0, 357.0, 357.0, 370.0, 393.0, 417.0, 447.0, 449.0, 453.0, 462.0, 471.0, 471.0, 471.0, 471.0, 471.0, 471.0, 471.0, 471.0, 471.0, 471.0, 471.0, 471.0, 471.0, 471.0]	[0.013224129565060139, 0.018328765174373984, 0.024197986931540072, 0.04283818427938968, 0.06178660551086068, 0.07462072791531682, 0.09387498337309808, 0.10982103913556784, 0.12522983667440712, 0.14298154413700104, 0.16113704873714596, 0.1746268718270585, 0.19390638603363186, 0.209674607263878, 0.2271583683323115, 0.2429812029004097, 0.25936621287837625, 0.27472142106853426, 0.29263355513103306, 0.3095479727489874, 0.3246103172423318, 0.3426217791857198, 0.3591815517283976, 0.3745241306023672, 0.39259157120250165, 0.4097326338523999, 0.42465332511346787, 0.4425275712274015, 0.4590897330781445, 0.47460775717627257, 0.49266700574662536, 0.5095353433862329, 0.5245942745823413, 0.542501971242018, 0.5591371783521026, 0.5744712239829823, 0.592921981588006, 0.6094810714712366, 0.6248099970398471, 0.6427238377509639, 0.6595938820391893, 0.6746446212055162, 0.6928335763514042, 0.7093786714831367, 0.7248171650571749, 0.7426060778088868, 0.7596239193808287, 0.7747412184253335, 0.7928745362441987, 0.8096363779623061, 0.8249083010014147, 0.8425262059317902, 0.8596850179601461, 0.8743992027593777, 0.8928994536399841, 0.9090666931588203, 0.9247072557918727, 0.9423569047357887, 0.9596437166910619, 0.9744271920062602, 0.9928598590195179]
