trialIndex	left_option	right_option	response	response_time	xTrajectory	yTrajectory	tTrajectory
0	images/0265.jpg	images/0306.jpg	right	1.372	[0.0, 0.0, 0.0, 0.0, 0.0, 0.0, 0.0, 0.0, 0.0, 0.0, 0.0, 0.0, 0.0, 0.0, 0.0, 0.0, 0.0, 0.0, 0.0, 0.0, 0.0, 0.0, 0.0, 0.0, 0.0, 0.0, 0.0, 0.0, 0.0, 0.0, 0.0, 0.0, 0.0, 0.0, 0.0, -1.0, -8.0, -13.0, -15.0, -10.0, 11.0, 40.0, 89.0, 145.0, 201.0, 248.0, 294.0, 337.0, 382.0, 431.0, 485.0, 559.0, 581.0, 588.0, 592.0, 595.0, 595.0, 595.0, 595.0, 593.0, 593.0, 593.0, 593.0, 593.0, 593.0, 595.0, 598.0, 602.0, 606.0, 611.0, 616.0, 621.0, 628.0, 629.0, 637.0, 640.0, 643.0, 646.0, 650.0, 651.0, 651.0]	[-490.0, -490.0, -490.0, -490.0, -490.0, -490.0, -490.0, -490.0, -490.0, -490.0, -490.0, -490.0, -490.0, -490.0, -490.0, -490.0, -490.0, -490.0, -490.0, -490.0, -490.0, -490.0, -490.0, -490.0, -490.0, -490.0, -490.0, -490.0, -490.0, -490.0, -490.0, -490.0, -490.0, -490.0, -492.0, -493.0, -475.0, -453.0, -433.0, -398.0, -364.0, -327.0, -279.0, -235.0, -199.0, -178.0, -158.0, -140.0, -120.0, -100.0, -77.0, -45.0, -33.0, -29.0, -25.0, -17.0, -4.0, 13.0, 32.0, 50.0, 67.0, 83.0, 103.0, 130.0, 143.0, 156.0, 166.0, 177.0, 189.0, 201.0, 210.0, 217.0, 226.0, 228.0, 238.0, 242.0, 246.0, 249.0, 252.0, 252.0, 252.0]	[0.0032942051766440272, 0.0082763022655854, 0.023912086253403686, 0.03987657396646682, 0.057220388494897634, 0.07315586290496867, 0.09036212021601386, 0.10647713580692653, 0.12300891902123112, 0.13948574762616772, 0.15909396557253785, 0.1729411644191714, 0.19220736665010918, 0.20603442683932371, 0.2252989224070916, 0.2396062382031232, 0.25645307182276156, 0.27303195900458377, 0.2912093088234542, 0.3062262560124509, 0.3241639900370501, 0.33946731564356014, 0.3572439404815668, 0.37304731899348553, 0.3899552512302762, 0.4062668746482814, 0.42321781485225074, 0.4396519768197322, 0.4566462663206039, 0.47286846047791187, 0.49004741114913486, 0.506224208016647, 0.5232406841678312, 0.5397813420422608, 0.5564605811523506, 0.5727189566096058, 0.5899385259108385, 0.6063938505394617, 0.6231457935791695, 0.6396871341275983, 0.656582095703925, 0.672855148484814, 0.6899013206129894, 0.7062515146535588, 0.7233229454286629, 0.7393778863915941, 0.7565861917100847, 0.7731790735415416, 0.7899303339218022, 0.806379514557193, 0.823237953503849, 0.8398035286954837, 0.8565469384047901, 0.8727500179084018, 0.8899402325769188, 0.906174373390968, 0.9232755001285113, 0.9394109956920147, 0.9565561544004595, 0.9726711699768202, 0.9898552406521048, 1.006021456196322, 1.0232406841678312, 1.0393731077347184, 1.0565404530789237, 1.0727660605625715, 1.090009181847563, 1.106078800134128, 1.1233355747535825, 1.1394526383228367, 1.1565281650837278, 1.1726954046316678, 1.1897900460462552, 1.2060682188166538, 1.223185729541001, 1.2399066112702712, 1.2565121224324685, 1.2739310302422382, 1.2898620673076948, 1.3087333472067257, 1.323277548130136]
1	images/0451.jpg	images/0021.jpg	left	1.687	[0.0, 0.0, 0.0, 0.0, 0.0, 0.0, 0.0, 0.0, 0.0, 0.0, 0.0, 0.0, 0.0, 0.0, 0.0, 0.0, 0.0, 0.0, 0.0, 0.0, 0.0, 0.0, 0.0, -3.0, -6.0, -22.0, -33.0, -51.0, -68.0, -93.0, -123.0, -172.0, -186.0, -261.0, -292.0, -381.0, -429.0, -466.0, -492.0, -512.0, -524.0, -531.0, -535.0, -537.0, -539.0, -539.0, -533.0, -512.0, -424.0, -320.0, -198.0, -62.0, 74.0, 197.0, 289.0, 349.0, 383.0, 401.0, 410.0, 412.0, 412.0, 413.0, 415.0, 417.0, 418.0, 419.0, 423.0, 434.0, 458.0, 467.0, 488.0, 492.0, 495.0, 495.0, 495.0, 479.0, 421.0, 306.0, 165.0, 19.0, -120.0, -243.0, -383.0, -408.0, -461.0, -477.0, -483.0, -486.0, -490.0, -495.0, -507.0, -532.0, -575.0, -618.0, -647.0, -664.0, -671.0, -673.0, -673.0, -673.0, -673.0]	[-490.0, -490.0, -490.0, -490.0, -490.0, -490.0, -490.0, -490.0, -490.0, -490.0, -490.0, -490.0, -490.0, -490.0, -490.0, -490.0, -490.0, -490.0, -490.0, -490.0, -490.0, -483.0, -470.0, -439.0, -427.0, -373.0, -333.0, -287.0, -256.0, -218.0, -172.0, -105.0, -84.0, -8.0, 20.0, 80.0, 107.0, 128.0, 142.0, 153.0, 162.0, 169.0, 176.0, 183.0, 189.0, 195.0, 206.0, 224.0, 260.0, 284.0, 300.0, 311.0, 319.0, 325.0, 325.0, 325.0, 325.0, 325.0, 327.0, 327.0, 327.0, 328.0, 328.0, 328.0, 329.0, 329.0, 329.0, 329.0, 329.0, 330.0, 332.0, 334.0, 334.0, 334.0, 334.0, 334.0, 331.0, 321.0, 321.0, 321.0, 313.0, 303.0, 295.0, 294.0, 294.0, 294.0, 294.0, 294.0, 294.0, 294.0, 294.0, 294.0, 294.0, 294.0, 294.0, 295.0, 296.0, 296.0, 296.0, 296.0, 296.0]	[0.0010076151374960318, 0.005458598010591231, 0.021321368476492353, 0.03568022555555217, 0.05248507521173451, 0.06907522639085073, 0.08520696728373878, 0.10191078236675821, 0.11942731142335106, 0.13526311657915358, 0.15222156610980164, 0.16854479484027252, 0.18755329062696546, 0.2021387928398326, 0.21888220254913904, 0.23547883905121125, 0.25265232840320095, 0.26850861353159416, 0.2865804914472392, 0.30205516624846496, 0.3197642071318114, 0.3354064764571376, 0.35531131280004047, 0.36852772819111124, 0.38871450563601684, 0.4019107823696686, 0.4221531970979413, 0.43523580992768984, 0.4545115694781998, 0.46877690131077543, 0.48923947584989946, 0.5020544835861074, 0.5209264461445855, 0.535434124423773, 0.5539780659310054, 0.5685878028016305, 0.5871546136331744, 0.6019333103467943, 0.6201127081731101, 0.6354426577599952, 0.6532506852236111, 0.6689001225313405, 0.6864784328645328, 0.7020729155628942, 0.7189511518226936, 0.7352856445504585, 0.7522673047351418, 0.7685171468619956, 0.7856984868703876, 0.8021135341987247, 0.8190962183725787, 0.8354341244266834, 0.8525130645284662, 0.8687745119823376, 0.8856148602790199, 0.9020804248866625, 0.918978799803881, 0.9353283111850033, 0.952296659379499, 0.9685280695266556, 0.9856408015912166, 1.0018438810948282, 1.0190590130659984, 1.035246049927082, 1.0523464939906262, 1.068583365471568, 1.0855998416227521, 1.101892350387061, 1.118908143864246, 1.1352795005659573, 1.1522727660631062, 1.1685915574635146, 1.1856233935977798, 1.2019418436684646, 1.2190706183901057, 1.2355235536815599, 1.252431144588627, 1.2689339145144913, 1.285711116186576, 1.3023941099527292, 1.3190033757855417, 1.3376254825561773, 1.3522679874004098, 1.3707576569577213, 1.3856445562560111, 1.4036184715805575, 1.419027951764292, 1.436944864472025, 1.4523393260024022, 1.4698896470217733, 1.485600865620654, 1.503022162753041, 1.5188794718851568, 1.5363410463178298, 1.5522079127840698, 1.5687594933260698, 1.5852844498876948, 1.6018974703765707, 1.6185074188688304, 1.6370960750064114, 1.6520553369191475]
2	images/0496.jpg	images/0013.jpg	right	1.328	[0.0, 0.0, 0.0, 0.0, 0.0, 0.0, 0.0, 0.0, 0.0, 0.0, 0.0, 0.0, 0.0, 0.0, 0.0, 0.0, 0.0, 0.0, 0.0, 0.0, 0.0, 0.0, 0.0, 0.0, 0.0, 0.0, 0.0, 0.0, 0.0, 0.0, 0.0, 0.0, -2.0, -7.0, -13.0, -17.0, -31.0, -39.0, -76.0, -99.0, -123.0, -146.0, -166.0, -184.0, -192.0, -200.0, -202.0, -202.0, -202.0, -195.0, -184.0, -165.0, -107.0, -50.0, 27.0, 107.0, 196.0, 294.0, 391.0, 470.0, 522.0, 547.0, 561.0, 563.0, 564.0, 565.0, 566.0, 567.0, 567.0, 567.0, 567.0, 567.0, 567.0, 567.0, 567.0, 567.0, 567.0, 567.0, 567.0, 567.0]	[-490.0, -490.0, -490.0, -490.0, -490.0, -490.0, -490.0, -490.0, -490.0, -490.0, -490.0, -490.0, -490.0, -490.0, -490.0, -490.0, -490.0, -490.0, -490.0, -490.0, -490.0, -490.0, -490.0, -490.0, -490.0, -490.0, -490.0, -490.0, -490.0, -488.0, -479.0, -468.0, -453.0, -434.0, -404.0, -369.0, -293.0, -258.0, -153.0, -99.0, -57.0, -15.0, 21.0, 53.0, 75.0, 98.0, 121.0, 145.0, 162.0, 180.0, 199.0, 213.0, 239.0, 256.0, 270.0, 273.0, 273.0, 273.0, 273.0, 273.0, 273.0, 273.0, 275.0, 276.0, 278.0, 282.0, 287.0, 296.0, 301.0, 307.0, 312.0, 316.0, 319.0, 323.0, 326.0, 327.0, 329.0, 329.0, 329.0, 329.0]	[0.015553181379800662, 0.02096057943708729, 0.035415692429523915, 0.047977089721825905, 0.06564687730860896, 0.08130621328018606, 0.09836979338433594, 0.11452542759070639, 0.13149309311120305, 0.14792008709628135, 0.16486590731074102, 0.18096692823746707, 0.19819332420593128, 0.21453225426375866, 0.2314616904768627, 0.2478992657852359, 0.26484781665203627, 0.2810181281820405, 0.29825954280386213, 0.3145616089022951, 0.3315050397795858, 0.348054913643864, 0.36480446736095473, 0.38126457064936403, 0.39796702039893717, 0.41433564641920384, 0.4313825012068264, 0.4476944659545552, 0.4648853632825194, 0.48102768551325426, 0.49815475357172545, 0.5143295024317922, 0.5314446238189703, 0.5477862845436903, 0.5647815980482846, 0.5811556854023365, 0.5981001402833499, 0.6143673904007301, 0.6314098078582902, 0.6500192853127373, 0.6647966166929109, 0.6867968965962064, 0.6981260815955466, 0.7167389723763335, 0.7315511197375599, 0.7493994245014619, 0.7647856940457132, 0.7823721963650314, 0.7980083216971252, 0.8150742911238922, 0.8313282292510848, 0.8484628066362347, 0.8647150381002575, 0.8815499250631547, 0.8979250364354812, 0.9145588782412233, 0.9310268321860349, 0.9493929391755955, 0.96434708108427, 0.9833074488997227, 0.9976052073616302, 1.016164850196219, 1.0312350453314139, 1.049137280730065, 1.064502728942898, 1.0817089862684952, 1.0975936020404333, 1.1143192624440417, 1.1312179786909837, 1.1476384873385541, 1.164573726215167, 1.1811853813851485, 1.1978356071776943, 1.2143421317596221, 1.2310087415244197, 1.2476514579902869, 1.2643334277672693, 1.2810307575127808, 1.297907628439134, 1.3145622915617423]
3	images/0555.jpg	images/0160.jpg	left	1.281	[0.0, 0.0, 0.0, 0.0, 0.0, 0.0, 0.0, 0.0, 0.0, 0.0, 0.0, 0.0, 0.0, 0.0, 0.0, 0.0, 0.0, 0.0, 0.0, 0.0, 0.0, 0.0, -1.0, 8.0, 45.0, 96.0, 147.0, 217.0, 288.0, 355.0, 410.0, 448.0, 483.0, 509.0, 519.0, 519.0, 519.0, 519.0, 519.0, 519.0, 519.0, 519.0, 519.0, 519.0, 519.0, 518.0, 497.0, 376.0, 196.0, -39.0, -268.0, -465.0, -611.0, -701.0, -754.0, -782.0, -789.0, -795.0, -799.0, -848.0, -903.0, -949.0, -960.0, -960.0, -960.0, -960.0, -960.0, -958.0, -923.0, -907.0, -839.0, -794.0, -765.0, -751.0, -749.0, -749.0, -749.0]	[-490.0, -490.0, -490.0, -490.0, -490.0, -490.0, -490.0, -490.0, -490.0, -490.0, -490.0, -490.0, -490.0, -490.0, -490.0, -490.0, -490.0, -490.0, -490.0, -490.0, -490.0, -490.0, -492.0, -460.0, -371.0, -280.0, -195.0, -107.0, -26.0, 36.0, 85.0, 122.0, 151.0, 170.0, 175.0, 175.0, 175.0, 175.0, 175.0, 175.0, 175.0, 175.0, 175.0, 175.0, 175.0, 175.0, 178.0, 206.0, 253.0, 290.0, 315.0, 319.0, 319.0, 319.0, 316.0, 311.0, 309.0, 307.0, 307.0, 301.0, 301.0, 301.0, 301.0, 301.0, 301.0, 301.0, 301.0, 303.0, 308.0, 310.0, 320.0, 323.0, 323.0, 324.0, 324.0, 324.0, 324.0]	[0.0021032941876910627, 0.007112015257007442, 0.020769091599504463, 0.03777054909733124, 0.05403199655120261, 0.07099249407474417, 0.0876021012372803, 0.10438988424721174, 0.12267168198013678, 0.1377893224125728, 0.1541627271071775, 0.17068700099480338, 0.18837726856872905, 0.2044987694825977, 0.2217251654510619, 0.23773197845730465, 0.25422723904193845, 0.27078564625116996, 0.2880540261830902, 0.30434585227339994, 0.32074588094837964, 0.33733944545383565, 0.3557601657375926, 0.37087473417341243, 0.389079390646657, 0.4042079537321115, 0.4221491010830505, 0.43752786130062304, 0.455276838154532, 0.47067471301124897, 0.48834825526864734, 0.5042557403503451, 0.5210216780542396, 0.5372408002149314, 0.5544815321627539, 0.5706620836863294, 0.5878379623609362, 0.6041796230856562, 0.6211329526267946, 0.6372636695159599, 0.6546081667183898, 0.6707382009626599, 0.6877471677726135, 0.7042212657252094, 0.7210551286843838, 0.737333642799058, 0.7544538841902977, 0.7709337847918505, 0.7877720850956393, 0.8039737992658047, 0.8210913099901518, 0.8372530882043066, 0.8544665135123068, 0.870545689118444, 0.8877632104267832, 0.9040034952340648, 0.9210838006692939, 0.9372988268296467, 0.954545361440978, 0.9706368250481319, 0.9877628691028804, 1.0095098798774416, 1.0210506913572317, 1.0372595735243522, 1.0543996122287354, 1.0706023504026234, 1.0876795838412363, 1.1039830152585637, 1.1210465953627136, 1.1375111359811854, 1.1543808389105834, 1.1736381664813962, 1.187818506383337, 1.206177104046219, 1.221119640627876, 1.2388211721990956, 1.2544095108896727]
4	images/0051.jpg	images/0279.jpg	left	1.631	[0.0, 0.0, 0.0, 0.0, 0.0, 0.0, 0.0, 0.0, 0.0, 0.0, 0.0, 0.0, 0.0, 0.0, 0.0, 0.0, 0.0, 0.0, 0.0, 0.0, 2.0, 0.0, -14.0, -45.0, -92.0, -148.0, -222.0, -315.0, -404.0, -519.0, -552.0, -631.0, -648.0, -683.0, -695.0, -705.0, -711.0, -714.0, -716.0, -717.0, -717.0, -717.0, -715.0, -709.0, -694.0, -679.0, -654.0, -604.0, -517.0, -401.0, -268.0, -152.0, -38.0, 59.0, 154.0, 243.0, 314.0, 368.0, 382.0, 387.0, 390.0, 391.0, 391.0, 391.0, 391.0, 391.0, 391.0, 391.0, 352.0, 268.0, 168.0, 60.0, -62.0, -202.0, -337.0, -438.0, -506.0, -527.0, -533.0, -533.0, -533.0, -533.0, -535.0, -535.0, -535.0, -535.0, -535.0, -535.0, -535.0, -535.0, -542.0, -550.0, -553.0, -563.0, -571.0, -573.0, -574.0, -574.0]	[-490.0, -490.0, -490.0, -490.0, -490.0, -490.0, -490.0, -490.0, -490.0, -490.0, -490.0, -490.0, -490.0, -490.0, -490.0, -490.0, -490.0, -490.0, -490.0, -490.0, -473.0, -452.0, -419.0, -368.0, -302.0, -238.0, -159.0, -71.0, 8.0, 109.0, 137.0, 193.0, 204.0, 228.0, 240.0, 249.0, 257.0, 263.0, 271.0, 285.0, 291.0, 309.0, 314.0, 327.0, 345.0, 356.0, 371.0, 386.0, 397.0, 399.0, 399.0, 399.0, 399.0, 399.0, 399.0, 399.0, 399.0, 399.0, 399.0, 399.0, 399.0, 399.0, 399.0, 399.0, 399.0, 399.0, 399.0, 399.0, 390.0, 368.0, 338.0, 310.0, 292.0, 275.0, 271.0, 271.0, 271.0, 271.0, 272.0, 272.0, 272.0, 272.0, 273.0, 275.0, 282.0, 286.0, 291.0, 297.0, 301.0, 306.0, 312.0, 316.0, 317.0, 318.0, 319.0, 319.0, 319.0, 319.0]	[0.011920373814064078, 0.015641245307051577, 0.023850987636251375, 0.04070737859001383, 0.0569807727006264, 0.07399690750753507, 0.09047749078308698, 0.10743116165394895, 0.12350931325636338, 0.1407370745582739, 0.15679850085871294, 0.17398973951640073, 0.1901040724333143, 0.2073075990920188, 0.22346186796494294, 0.24063296797976363, 0.2569333274004748, 0.2741109127528034, 0.29028736827604007, 0.30729189777048305, 0.3262485109298723, 0.3406927012692904, 0.3593663493375061, 0.37402148349792697, 0.39256269433826674, 0.40757076686713845, 0.42572319936880376, 0.44065720263461117, 0.4588191924704006, 0.4740419634763384, 0.4957589369441848, 0.5072267031500814, 0.5254873382364167, 0.5405373947287444, 0.556797818193445, 0.5735985718492884, 0.5938990131980972, 0.606861135471263, 0.62689499570115, 0.6402151763468282, 0.6599827968020691, 0.6735098252684111, 0.6904897787753725, 0.7080319078086177, 0.7239513395470567, 0.7401165310875513, 0.7584894647443434, 0.7747369175485801, 0.7904170748370234, 0.8073461697204039, 0.8235724598780507, 0.8405838160251733, 0.8568500421388308, 0.8734538466378581, 0.8901784830377437, 0.9070338499877835, 0.9234058893489419, 0.9401206270849798, 0.9573186924098991, 0.97350129194092, 0.9901214804267511, 1.0067665862152353, 1.0241353180608712, 1.040387549524894, 1.057266127128969, 1.0737156490795314, 1.090654983971035, 1.1068252955010394, 1.123911744914949, 1.140218589673168, 1.1574163136683637, 1.17359788918111, 1.1905955920228735, 1.2069908420235151, 1.2241349767282372, 1.2404035921790637, 1.257288313776371, 1.2734828599495813, 1.290618461323902, 1.3067645382252522, 1.3239366622292437, 1.3400892244535498, 1.3572893377713626, 1.380313616784406, 1.3905034320923733, 1.406779898199602, 1.4239213022374315, 1.4400827391218627, 1.4572238018299686, 1.4734562359808479, 1.4904822694516042, 1.506809594182414, 1.5239356382371625, 1.5401544190535787, 1.5573439510626486, 1.5734709132957505, 1.5907113039138494, 1.6068147141777445]
5	images/0024.jpg	images/0416.jpg	right	1.26	[0.0, 0.0, 0.0, 0.0, 0.0, 0.0, 0.0, 0.0, 0.0, 0.0, 0.0, 0.0, 0.0, 0.0, 0.0, 0.0, 0.0, 0.0, 0.0, 0.0, 0.0, 0.0, 0.0, 0.0, 0.0, 4.0, 13.0, 18.0, 34.0, 48.0, 55.0, 60.0, 65.0, 75.0, 88.0, 108.0, 130.0, 150.0, 166.0, 181.0, 204.0, 211.0, 229.0, 243.0, 262.0, 286.0, 325.0, 385.0, 487.0, 598.0, 693.0, 751.0, 777.0, 787.0, 789.0, 789.0, 790.0, 790.0, 787.0, 770.0, 740.0, 713.0, 696.0, 690.0, 689.0, 689.0, 689.0, 689.0, 689.0, 689.0, 689.0, 689.0, 689.0, 689.0, 689.0, 689.0]	[-490.0, -490.0, -490.0, -490.0, -490.0, -490.0, -490.0, -490.0, -490.0, -490.0, -490.0, -490.0, -490.0, -490.0, -490.0, -490.0, -490.0, -490.0, -490.0, -490.0, -490.0, -490.0, -490.0, -490.0, -490.0, -484.0, -459.0, -447.0, -395.0, -346.0, -302.0, -269.0, -233.0, -190.0, -153.0, -119.0, -90.0, -68.0, -49.0, -33.0, -13.0, -6.0, 6.0, 14.0, 25.0, 39.0, 59.0, 84.0, 112.0, 128.0, 143.0, 151.0, 156.0, 158.0, 159.0, 159.0, 164.0, 177.0, 190.0, 207.0, 223.0, 235.0, 241.0, 245.0, 245.0, 245.0, 247.0, 248.0, 249.0, 250.0, 254.0, 257.0, 263.0, 266.0, 267.0, 267.0]	[0.01633483405748848, 0.021364717758842744, 0.033149241033243015, 0.0494379951414885, 0.06628175676451065, 0.08249780692858621, 0.09970611224707682, 0.1160614262917079, 0.13292805722448975, 0.14931067790894303, 0.16635889803001191, 0.18250941224687267, 0.19964808563236147, 0.21581430116202682, 0.2329679931863211, 0.24920179267064668, 0.2663018954190193, 0.2824397803051397, 0.2996552536205854, 0.3157562745473115, 0.3329707238590345, 0.34916629403596744, 0.3662564981204923, 0.3824268096504966, 0.3995675310288789, 0.41590202375664376, 0.4329318118834635, 0.44946598444948904, 0.4663073567498941, 0.4830606651084963, 0.49965525361767504, 0.5190358024119632, 0.5329167932359269, 0.5494304858148098, 0.5662250954774208, 0.5852738685643999, 0.5995917656691745, 0.6181220538564958, 0.6329236198944272, 0.651257300254656, 0.6662049568258226, 0.6849048875446897, 0.69960576032463, 0.7173574678454315, 0.7330263611365808, 0.7508156152907759, 0.766225436818786, 0.7837853151577292, 0.7994968750863336, 0.8170424174459185, 0.8329181585722836, 0.8502746024314547, 0.8661554635327775, 0.8833842488384107, 0.8995122350752354, 0.9163607753580436, 0.9328584252798464, 0.9496919469238492, 0.9662233888084302, 0.9826278548134724, 0.9991743153659627, 1.0181718884850852, 1.0324549696379108, 1.0509241592080798, 1.066046578300302, 1.083564472690341, 1.0993347418989288, 1.116362482032855, 1.1324426816427149, 1.149093590094708, 1.1659694370318903, 1.1830995770869777, 1.1991012700891588, 1.2162996767438017, 1.2324611136282329, 1.2497431468800642]
6	images/0572.jpg	images/0017.jpg	right	1.044	[0.0, 0.0, 0.0, 0.0, 0.0, 0.0, 0.0, 0.0, 0.0, 0.0, 0.0, 3.0, 12.0, 28.0, 54.0, 89.0, 111.0, 134.0, 149.0, 150.0, 150.0, 150.0, 150.0, 150.0, 150.0, 150.0, 150.0, 150.0, 150.0, 152.0, 197.0, 273.0, 355.0, 430.0, 495.0, 550.0, 581.0, 604.0, 613.0, 620.0, 620.0, 620.0, 620.0, 620.0, 620.0, 620.0, 621.0, 625.0, 638.0, 657.0, 678.0, 691.0, 692.0, 692.0, 692.0, 692.0, 692.0, 692.0, 692.0, 692.0, 687.0, 684.0, 684.0]	[-490.0, -490.0, -490.0, -490.0, -490.0, -490.0, -490.0, -490.0, -490.0, -490.0, -490.0, -490.0, -489.0, -479.0, -466.0, -447.0, -433.0, -424.0, -416.0, -416.0, -416.0, -416.0, -416.0, -416.0, -416.0, -416.0, -416.0, -416.0, -412.0, -388.0, -320.0, -222.0, -115.0, -7.0, 90.0, 164.0, 225.0, 272.0, 295.0, 311.0, 313.0, 314.0, 314.0, 314.0, 314.0, 314.0, 315.0, 317.0, 323.0, 334.0, 345.0, 352.0, 353.0, 353.0, 353.0, 353.0, 353.0, 353.0, 353.0, 352.0, 351.0, 349.0, 349.0]	[0.016719857725547627, 0.02143230169895105, 0.033393635487300344, 0.05050807421503123, 0.0666575644427212, 0.08378941114642657, 0.10005939193069935, 0.11716700400575064, 0.1333762275025947, 0.1504753062472446, 0.16675723368825857, 0.18386655242647976, 0.20019455981673673, 0.2171246787038399, 0.23540920710365754, 0.25044697560952045, 0.26909399969736114, 0.2838272991211852, 0.29994948269450106, 0.3167703750077635, 0.33421078679384664, 0.35002338129561394, 0.3677105768729234, 0.383405070140725, 0.40096563116821926, 0.41672395372006577, 0.4336981045635184, 0.4499994879879523, 0.4678955793788191, 0.4835733473300934, 0.5035119756503263, 0.5167481883545406, 0.5365639367810218, 0.5500482986099087, 0.5686994186980883, 0.5835388726991368, 0.6019903129490558, 0.6166952817438869, 0.6353235325077549, 0.6499667200114345, 0.6682969870453235, 0.6835637900076108, 0.7006881273991894, 0.7168679962633178, 0.7337871924828505, 0.7500001706503099, 0.7670855960750487, 0.7835798326705117, 0.8004498769296333, 0.8168840389116667, 0.8337738804984838, 0.8503425276867347, 0.8672081346303457, 0.8835798326617805, 0.900513706219499, 0.9170089668041328, 0.9336858165770536, 0.9503203410422429, 0.9673023425566498, 0.9835740300040925, 1.0004437329334905, 1.0166587591083953, 1.0337800244888058]
7	images/0063.jpg	images/0015.jpg	right	1.566	[0.0, 0.0, 0.0, 0.0, 0.0, 0.0, 0.0, 0.0, 0.0, 0.0, 0.0, 0.0, 0.0, -4.0, -13.0, -29.0, -85.0, -115.0, -195.0, -241.0, -277.0, -299.0, -320.0, -335.0, -353.0, -380.0, -428.0, -486.0, -559.0, -638.0, -711.0, -802.0, -849.0, -886.0, -914.0, -939.0, -954.0, -960.0, -960.0, -960.0, -958.0, -936.0, -882.0, -828.0, -775.0, -726.0, -692.0, -670.0, -658.0, -652.0, -647.0, -644.0, -642.0, -639.0, -635.0, -617.0, -597.0, -565.0, -497.0, -405.0, -306.0, -221.0, -135.0, -37.0, -15.0, 35.0, 51.0, 109.0, 141.0, 169.0, 193.0, 209.0, 221.0, 239.0, 271.0, 323.0, 380.0, 448.0, 465.0, 499.0, 515.0, 535.0, 575.0, 621.0, 664.0, 694.0, 705.0, 705.0, 705.0, 705.0, 705.0, 705.0, 705.0, 705.0, 705.0]	[-490.0, -490.0, -490.0, -490.0, -490.0, -490.0, -490.0, -490.0, -490.0, -490.0, -490.0, -490.0, -487.0, -475.0, -459.0, -428.0, -324.0, -283.0, -179.0, -127.0, -87.0, -66.0, -49.0, -37.0, -22.0, -2.0, 25.0, 57.0, 90.0, 128.0, 162.0, 204.0, 231.0, 252.0, 266.0, 279.0, 290.0, 298.0, 300.0, 305.0, 315.0, 331.0, 357.0, 380.0, 401.0, 415.0, 420.0, 421.0, 421.0, 421.0, 421.0, 421.0, 421.0, 421.0, 421.0, 420.0, 412.0, 405.0, 393.0, 382.0, 374.0, 372.0, 372.0, 372.0, 372.0, 372.0, 372.0, 372.0, 372.0, 372.0, 372.0, 372.0, 372.0, 372.0, 372.0, 372.0, 372.0, 372.0, 372.0, 372.0, 372.0, 372.0, 372.0, 372.0, 370.0, 365.0, 364.0, 364.0, 364.0, 364.0, 364.0, 364.0, 364.0, 364.0, 364.0]	[0.009104717566515319, 0.014392990386113524, 0.018699589374591596, 0.03412067488534376, 0.04986295478011016, 0.06717297734576277, 0.08314941171556711, 0.10063487946172245, 0.11639798067335505, 0.13352743805444334, 0.1497230082313763, 0.16609368225908838, 0.1826493588014273, 0.20162918261485174, 0.21601090900367126, 0.23467465840803925, 0.24955200038675684, 0.26746584109787364, 0.28294495321461, 0.3000566612900002, 0.316008519672323, 0.33271745474485215, 0.3495397123915609, 0.3660359969799174, 0.382623417492141, 0.39942656048515346, 0.41595561304711737, 0.43291099058114924, 0.44950523776060436, 0.4662080288399011, 0.482847673309152, 0.49953749372798484, 0.5159788236924214, 0.5326717161224224, 0.5494987524289172, 0.5662769781047245, 0.5828534759639297, 0.5995125764166005, 0.6169461615354521, 0.6328922172688181, 0.6500015359924873, 0.6663592393742874, 0.6833340728917392, 0.6995869870152092, 0.7164597619557753, 0.7328952892567031, 0.7498448641272262, 0.7663616287027253, 0.7831316623924067, 0.7995125764136901, 0.8166710471123224, 0.8328959719219711, 0.8498138028226094, 0.8660400929802563, 0.8831224464083789, 0.8993439578916878, 0.9167840283480473, 0.9327857213502284, 0.9498322348081274, 0.9660185889952118, 0.983178766357014, 0.9994006191700464, 1.0165174472349463, 1.0327307667321293, 1.0503210237220628, 1.065964999710559, 1.0834637794469018, 1.0994105178397149, 1.1197949271008838, 1.132724281414994, 1.1522731073928298, 1.166105287586106, 1.185456140403403, 1.1993589765479555, 1.2180162406293675, 1.2327140414126916, 1.251101311063394, 1.2659407650644425, 1.2842389467841713, 1.299329280576785, 1.3171086360671325, 1.3327526120556286, 1.3498967467603507, 1.366405319335172, 1.383140878388076, 1.399526229739422, 1.416464540612651, 1.4328358973143622, 1.4497585068747867, 1.4659366690611932, 1.483169891696889, 1.4994866351044038, 1.5164471326279454, 1.5328410173096927, 1.549762944196118]
8	images/0054.jpg	images/0587.jpg	right	1.475	[0.0, 0.0, 0.0, 0.0, 0.0, 0.0, 0.0, 0.0, 0.0, 0.0, 0.0, 0.0, 0.0, 0.0, 0.0, 7.0, 44.0, 83.0, 122.0, 160.0, 200.0, 222.0, 236.0, 251.0, 267.0, 277.0, 284.0, 288.0, 289.0, 289.0, 289.0, 287.0, 282.0, 268.0, 239.0, 174.0, 1.0, -135.0, -257.0, -349.0, -415.0, -448.0, -470.0, -490.0, -502.0, -510.0, -513.0, -513.0, -513.0, -513.0, -468.0, -373.0, -254.0, -137.0, -23.0, 89.0, 175.0, 251.0, 325.0, 415.0, 464.0, 493.0, 513.0, 520.0, 521.0, 521.0, 521.0, 521.0, 521.0, 521.0, 521.0, 522.0, 524.0, 529.0, 530.0, 530.0, 530.0, 530.0, 530.0, 530.0, 533.0, 550.0, 575.0, 622.0, 634.0, 648.0, 649.0, 649.0, 649.0]	[-490.0, -490.0, -490.0, -490.0, -490.0, -490.0, -490.0, -490.0, -490.0, -490.0, -490.0, -490.0, -490.0, -490.0, -490.0, -473.0, -400.0, -321.0, -249.0, -183.0, -111.0, -52.0, -1.0, 49.0, 111.0, 143.0, 168.0, 185.0, 195.0, 203.0, 210.0, 215.0, 219.0, 223.0, 228.0, 236.0, 269.0, 292.0, 310.0, 312.0, 312.0, 312.0, 311.0, 307.0, 304.0, 303.0, 302.0, 302.0, 302.0, 305.0, 327.0, 356.0, 389.0, 409.0, 425.0, 433.0, 442.0, 453.0, 455.0, 455.0, 455.0, 455.0, 455.0, 455.0, 455.0, 455.0, 455.0, 455.0, 455.0, 455.0, 455.0, 455.0, 455.0, 455.0, 455.0, 455.0, 455.0, 455.0, 455.0, 455.0, 454.0, 450.0, 445.0, 439.0, 437.0, 435.0, 435.0, 435.0, 435.0]	[0.010756428149761632, 0.015375688206404448, 0.02036495327774901, 0.03783028238103725, 0.05378862608631607, 0.07103106471186038, 0.08713072030514013, 0.10421921772649512, 0.12026596670330036, 0.13752888530143537, 0.15380808207555674, 0.1708023715764284, 0.1871320856444072, 0.20409087650477886, 0.22063494772010017, 0.2374159040628001, 0.2538872713485034, 0.2710669046791736, 0.28706313636212144, 0.304068007186288, 0.320274841360515, 0.33735139212512877, 0.3535442316351691, 0.3707047503266949, 0.3868805231904844, 0.40408097783802077, 0.42025879870925564, 0.43736709344375413, 0.4535404769703746, 0.4708993101521628, 0.48689178717904724, 0.5040898525039665, 0.5202591400448, 0.5374066880758619, 0.5536015755787957, 0.5707812089240178, 0.5869460591347888, 0.6040168072358938, 0.620305902659311, 0.6374486720305867, 0.6536049889109563, 0.6708962381671881, 0.6870262723969063, 0.7040267058910104, 0.7203055613354081, 0.7373735787696205, 0.7539801139355404, 0.7707126009772765, 0.7889319347741548, 0.8040294365491718, 0.822413634203258, 0.837420682728407, 0.8538992179965135, 0.8707392249634722, 0.8892329905065708, 0.9048387372022262, 0.9205277691362426, 0.9369899204320973, 0.9551351849368075, 0.9708091982320184, 0.9870788376865676, 1.0036116449045949, 1.0212513951846631, 1.037206325578154, 1.053978407260729, 1.0705702651030151, 1.090362802875461, 1.1036925408407114, 1.1205107024870813, 1.1372810775064863, 1.1562342773395358, 1.1702466813876526, 1.189620744844433, 1.2038399967132136, 1.2222654956567567, 1.2369042458303738, 1.2560462028341135, 1.2702593107096618, 1.2889049694640562, 1.3038034740748117, 1.3215418696054257, 1.3371339629666181, 1.354836859871284, 1.3702821800252423, 1.3883165112929419, 1.4038703753612936, 1.4216398321877932, 1.4368987845082302, 1.4544893828278873]
9	images/0201.jpg	images/0378.jpg	left	1.17	[0.0, 0.0, 0.0, 0.0, 0.0, 0.0, 0.0, 0.0, 0.0, 0.0, 0.0, 0.0, 0.0, 0.0, 0.0, 0.0, 25.0, 107.0, 192.0, 272.0, 362.0, 454.0, 522.0, 561.0, 589.0, 607.0, 616.0, 617.0, 618.0, 622.0, 622.0, 622.0, 622.0, 621.0, 607.0, 523.0, 468.0, 270.0, 132.0, 2.0, -113.0, -213.0, -289.0, -330.0, -361.0, -385.0, -415.0, -459.0, -519.0, -607.0, -643.0, -663.0, -675.0, -678.0, -680.0, -682.0, -690.0, -698.0, -709.0, -711.0, -711.0, -712.0, -712.0, -712.0, -712.0, -712.0, -712.0, -712.0, -712.0, -712.0, -712.0]	[-490.0, -490.0, -490.0, -490.0, -490.0, -490.0, -490.0, -490.0, -490.0, -490.0, -490.0, -490.0, -490.0, -490.0, -490.0, -490.0, -462.0, -401.0, -353.0, -305.0, -246.0, -177.0, -119.0, -71.0, -35.0, -8.0, 12.0, 17.0, 22.0, 32.0, 41.0, 44.0, 51.0, 57.0, 62.0, 99.0, 122.0, 182.0, 205.0, 226.0, 232.0, 232.0, 232.0, 232.0, 232.0, 230.0, 227.0, 227.0, 227.0, 228.0, 234.0, 237.0, 241.0, 242.0, 243.0, 245.0, 249.0, 253.0, 260.0, 262.0, 262.0, 264.0, 266.0, 268.0, 268.0, 268.0, 268.0, 268.0, 268.0, 269.0, 269.0]	[0.007286095118615776, 0.01166676337015815, 0.01564295198477339, 0.03137874655658379, 0.04757090340717696, 0.06463857951166574, 0.08376483518804889, 0.09799637504329439, 0.11632357006601524, 0.13133642125467304, 0.14922602732258383, 0.16458635554590728, 0.18369690990948584, 0.19803665233484935, 0.21991507633356377, 0.2313951305404771, 0.2492605019651819, 0.26467885680904146, 0.2816758769622538, 0.2978905617928831, 0.3149305899278261, 0.33132925326935947, 0.34758250872255303, 0.3643112411227776, 0.3808355150249554, 0.3975004181265831, 0.41421686254034285, 0.4311637067439733, 0.4477501032524742, 0.4642409265070455, 0.48086009100370575, 0.49753489276918117, 0.5159334264026256, 0.5308930296305334, 0.551539241350838, 0.564385651727207, 0.5825066815887112, 0.5975888233951991, 0.6158798371179728, 0.630803600375657, 0.6484474466560641, 0.6644030597090023, 0.6814130505226785, 0.6974864234798588, 0.7146483075048309, 0.7308073550375411, 0.748010540366522, 0.7643952090438688, 0.7812870986381313, 0.797726721939398, 0.8146691288129659, 0.8308571896632202, 0.8480375056678895, 0.8641668572381604, 0.881544805073645, 0.8977680232346756, 0.9146667394816177, 0.938526601792546, 0.9477859432226978, 0.9641368199372664, 0.981283002634882, 0.997459116828395, 1.0146462595002959, 1.0308817656477913, 1.0480371643352555, 1.0642989531334024, 1.0813471732544713, 1.0976420713413972, 1.1146797101391712, 1.1309227256133454, 1.148024535010336]
10	images/0507.jpg	images/0417.jpg	left	1.097	[0.0, 0.0, 0.0, 0.0, 0.0, 0.0, 0.0, 0.0, 0.0, 0.0, 0.0, 0.0, 0.0, 0.0, -7.0, -26.0, -66.0, -130.0, -215.0, -351.0, -443.0, -520.0, -580.0, -616.0, -639.0, -652.0, -663.0, -673.0, -679.0, -687.0, -693.0, -699.0, -703.0, -705.0, -708.0, -710.0, -713.0, -714.0, -717.0, -722.0, -742.0, -749.0, -765.0, -770.0, -771.0, -771.0, -771.0, -771.0, -771.0, -771.0, -771.0, -771.0, -771.0, -770.0, -766.0, -763.0, -757.0, -753.0, -748.0, -744.0, -743.0, -742.0, -742.0, -742.0, -742.0, -742.0]	[-490.0, -490.0, -490.0, -490.0, -490.0, -490.0, -490.0, -490.0, -490.0, -490.0, -490.0, -490.0, -490.0, -490.0, -487.0, -481.0, -464.0, -428.0, -382.0, -307.0, -262.0, -217.0, -180.0, -152.0, -131.0, -110.0, -90.0, -70.0, -48.0, -25.0, -3.0, 32.0, 55.0, 72.0, 86.0, 91.0, 97.0, 101.0, 103.0, 111.0, 135.0, 145.0, 171.0, 186.0, 199.0, 208.0, 214.0, 215.0, 215.0, 215.0, 215.0, 215.0, 218.0, 219.0, 223.0, 225.0, 229.0, 232.0, 237.0, 239.0, 240.0, 241.0, 241.0, 241.0, 241.0, 241.0]	[0.001137663028202951, 0.0061054241232341155, 0.01821830979315564, 0.03442685063055251, 0.05171775854250882, 0.06776245951186866, 0.08492161286994815, 0.10130901221418753, 0.1181756431615213, 0.13452481321291998, 0.15148360407329164, 0.1676453822728945, 0.1849093248747522, 0.2012202656333102, 0.21812341919576284, 0.23434288270073012, 0.2514798494084971, 0.26768941423506476, 0.28482911160972435, 0.30119022831786424, 0.3181793978146743, 0.3345937624835642, 0.35142489479039796, 0.36772388887766283, 0.3847932716453215, 0.40094412719190586, 0.4181729124975391, 0.43433264270424843, 0.4515095453825779, 0.467701019559172, 0.4848386689409381, 0.5010683724249247, 0.518293061730219, 0.5345094532240182, 0.5515016947174445, 0.5678303847817006, 0.5847680129954824, 0.6010489164327737, 0.6181251258676639, 0.6343647280154983, 0.6514771187357837, 0.6681529445049819, 0.6847990743117407, 0.7032344719045796, 0.71819509913621, 0.7367639579606475, 0.7514894067280693, 0.7734166413574712, 0.7848089729668573, 0.8032252559205517, 0.818153797838022, 0.835830070762313, 0.8514317214430775, 0.8685441121779149, 0.884698381065391, 0.9013984414777951, 0.9177639955159975, 0.9344947758945636, 0.9511197430401808, 0.9676583529362688, 0.9844287279556738, 1.0027211070118938, 1.017757851514034, 1.0358276814222336, 1.0510019831417594, 1.0686079414590495]
11	images/0064.jpg	images/0399.jpg	right	1.034	[0.0, 0.0, 0.0, 0.0, 0.0, 0.0, 0.0, 0.0, 0.0, 0.0, 0.0, 0.0, 0.0, 0.0, 0.0, 0.0, 0.0, -10.0, -40.0, -89.0, -156.0, -250.0, -356.0, -462.0, -559.0, -648.0, -728.0, -745.0, -748.0, -748.0, -748.0, -736.0, -692.0, -607.0, -502.0, -389.0, -169.0, -80.0, 128.0, 338.0, 605.0, 752.0, 850.0, 882.0, 888.0, 888.0, 888.0, 888.0, 888.0, 888.0, 863.0, 835.0, 746.0, 712.0, 698.0, 697.0, 697.0, 697.0, 697.0, 697.0, 697.0, 697.0]	[-490.0, -490.0, -490.0, -490.0, -490.0, -490.0, -490.0, -490.0, -490.0, -490.0, -490.0, -490.0, -490.0, -490.0, -490.0, -490.0, -490.0, -481.0, -439.0, -376.0, -305.0, -225.0, -148.0, -71.0, -11.0, 44.0, 104.0, 117.0, 122.0, 124.0, 129.0, 137.0, 155.0, 175.0, 199.0, 213.0, 236.0, 240.0, 240.0, 240.0, 242.0, 246.0, 252.0, 258.0, 261.0, 261.0, 261.0, 261.0, 261.0, 261.0, 269.0, 277.0, 302.0, 312.0, 315.0, 317.0, 317.0, 317.0, 317.0, 317.0, 317.0, 317.0]	[0.00425676436861977, 0.008578382010455243, 0.025274687766795978, 0.04158358051790856, 0.05864477128488943, 0.07495912536978722, 0.09205069477320649, 0.10823192897078115, 0.12525966910470743, 0.14161737248650752, 0.1586860725801671, 0.17488983475777786, 0.19194897753186524, 0.20836265952675603, 0.2253572903573513, 0.24162180980783887, 0.25858435533882584, 0.27498062934319023, 0.2919834521744633, 0.31096361730305944, 0.32526410643185955, 0.34161225249408744, 0.35815154503507074, 0.37695319300109986, 0.39190596957632806, 0.4096692824095953, 0.4252248531411169, 0.4430605285888305, 0.45857343268289696, 0.475116138564772, 0.4916315378068248, 0.5091412401961861, 0.5248439254646655, 0.5454092412401224, 0.5582996835873928, 0.5783448078145739, 0.5916871750960127, 0.6084449207846774, 0.6247855575056747, 0.644991108274553, 0.658290467588813, 0.6772911127045518, 0.6916195911471732, 0.7089070857327897, 0.7248671361157903, 0.7451617747865384, 0.7583648781874217, 0.7775966057815822, 0.7915912605094491, 0.811797152593499, 0.8247961388406111, 0.8447603671374964, 0.858349176865886, 0.877539261826314, 0.8916414364648517, 0.910262177902041, 0.9250709119369276, 0.9442374449135968, 0.9582935395883396, 0.977542333828751, 0.9915004659123952, 1.0099034368759021]
12	images/0475.jpg	images/0528.jpg	right	0.777	[0.0, 0.0, 0.0, 0.0, 0.0, 0.0, 0.0, 0.0, 5.0, 12.0, 22.0, 39.0, 67.0, 97.0, 165.0, 222.0, 302.0, 382.0, 443.0, 486.0, 522.0, 540.0, 550.0, 555.0, 558.0, 558.0, 559.0, 559.0, 559.0, 560.0, 567.0, 570.0, 573.0, 577.0, 580.0, 589.0, 596.0, 606.0, 621.0, 628.0, 636.0, 643.0, 649.0, 652.0, 652.0, 652.0, 652.0]	[-490.0, -490.0, -490.0, -490.0, -490.0, -490.0, -490.0, -490.0, -488.0, -484.0, -477.0, -462.0, -427.0, -374.0, -254.0, -152.0, -41.0, 58.0, 130.0, 177.0, 212.0, 232.0, 244.0, 251.0, 257.0, 257.0, 257.0, 257.0, 259.0, 265.0, 273.0, 279.0, 281.0, 285.0, 289.0, 293.0, 298.0, 302.0, 306.0, 307.0, 308.0, 308.0, 308.0, 309.0, 309.0, 309.0, 309.0]	[0.0002286931121489033, 0.005441872664960101, 0.0174025237938622, 0.033516856710775755, 0.05068966338876635, 0.06686543625255581, 0.0839447176840622, 0.10017919982783496, 0.11727281723869964, 0.13368513390014414, 0.1506429007567931, 0.1670255214557983, 0.18397782697866205, 0.20044373293058015, 0.2172656492475653, 0.23349842472816817, 0.25066133274231106, 0.26698660948022734, 0.2839399390213657, 0.3005041488795541, 0.3173049025499495, 0.33367148057732265, 0.3506422180944355, 0.36712246004026383, 0.38395666432916187, 0.40017305583751295, 0.41733186785131693, 0.43389266439771745, 0.4507937699672766, 0.4670657987444429, 0.48393584301811643, 0.5004945915570715, 0.5173069505399326, 0.5334745314175962, 0.5505350395251298, 0.5668784069130197, 0.5839027337206062, 0.600106495883665, 0.6171980653016362, 0.6334762380865868, 0.6505469861731399, 0.6669913881487446, 0.6839474483422237, 0.700279893077095, 0.7172700865776278, 0.7335448460216867, 0.7506207141123014]
13	images/0564.jpg	images/0443.jpg	left	1.796	[0.0, 0.0, 0.0, 0.0, 0.0, 0.0, -4.0, -4.0, -4.0, -4.0, -4.0, -4.0, -4.0, -4.0, -4.0, -4.0, -4.0, -6.0, 3.0, 15.0, 48.0, 73.0, 104.0, 148.0, 208.0, 281.0, 362.0, 434.0, 497.0, 549.0, 585.0, 625.0, 684.0, 703.0, 710.0, 711.0, 711.0, 711.0, 709.0, 698.0, 683.0, 671.0, 659.0, 652.0, 647.0, 645.0, 645.0, 645.0, 645.0, 645.0, 645.0, 645.0, 645.0, 645.0, 645.0, 645.0, 645.0, 646.0, 649.0, 651.0, 651.0, 651.0, 651.0, 648.0, 636.0, 585.0, 541.0, 322.0, 138.0, -62.0, -227.0, -359.0, -451.0, -502.0, -522.0, -527.0, -527.0, -527.0, -527.0, -527.0, -527.0, -527.0, -527.0, -527.0, -527.0, -527.0, -532.0, -542.0, -562.0, -589.0, -596.0, -605.0, -608.0, -620.0, -636.0, -650.0, -656.0, -657.0, -657.0, -657.0, -657.0, -657.0, -657.0, -657.0, -657.0, -657.0, -657.0, -657.0]	[-490.0, -490.0, -490.0, -490.0, -490.0, -490.0, -488.0, -487.0, -487.0, -487.0, -487.0, -487.0, -487.0, -487.0, -487.0, -487.0, -487.0, -484.0, -410.0, -367.0, -263.0, -215.0, -176.0, -134.0, -89.0, -43.0, -5.0, 22.0, 43.0, 57.0, 69.0, 79.0, 100.0, 108.0, 114.0, 116.0, 122.0, 133.0, 152.0, 174.0, 194.0, 209.0, 222.0, 230.0, 237.0, 239.0, 239.0, 239.0, 239.0, 240.0, 240.0, 240.0, 240.0, 240.0, 241.0, 245.0, 248.0, 255.0, 267.0, 280.0, 299.0, 310.0, 320.0, 330.0, 342.0, 362.0, 382.0, 446.0, 475.0, 479.0, 479.0, 479.0, 479.0, 478.0, 474.0, 472.0, 472.0, 472.0, 472.0, 472.0, 472.0, 472.0, 472.0, 472.0, 472.0, 472.0, 469.0, 462.0, 453.0, 447.0, 446.0, 441.0, 439.0, 431.0, 425.0, 418.0, 415.0, 415.0, 415.0, 415.0, 415.0, 415.0, 415.0, 415.0, 415.0, 415.0, 415.0, 415.0]	[0.013709641629247926, 0.01905730638827663, 0.02717523013416212, 0.045375449262792245, 0.060622796256211586, 0.07815093063982204, 0.09400789844221435, 0.11139028360776138, 0.1272370114165824, 0.14410159435647074, 0.16063610825221986, 0.17685284107574262, 0.19354027217195835, 0.21275322644214612, 0.22707760888442863, 0.24654588027624413, 0.26017496730491985, 0.28036720608361065, 0.29374131733493414, 0.31319525273283944, 0.32684413708921056, 0.34390225585957523, 0.36020295661001, 0.37917288175958674, 0.3937201546796132, 0.4119220804859651, 0.42693800367123913, 0.44515767878328916, 0.4602217299398035, 0.47801269075716846, 0.49379285861505195, 0.5114923421788262, 0.5271588461473584, 0.5449737002782058, 0.5601841832976788, 0.5776146964199143, 0.5934921442094492, 0.6108898893580772, 0.6269806703057839, 0.6439619891461916, 0.6601913513004547, 0.6773279766639462, 0.693589765462093, 0.71069123352936, 0.7269386863335967, 0.7440749703819165, 0.760217633942375, 0.777410237933509, 0.7937774986348813, 0.8107554041489493, 0.8268919237161754, 0.8440394717472373, 0.8602323112572776, 0.8772733633813914, 0.8938109492737567, 0.9107830521243159, 0.9269366383377928, 0.9439694984757807, 0.9601415166689549, 0.9773064726905432, 0.9934679095604224, 1.0107492601528065, 1.026819219769095, 1.0439415091532283, 1.0601264980214182, 1.0772194327582838, 1.093519792193547, 1.1106482255709125, 1.126890217041364, 1.1439585758053, 1.1605306363344425, 1.1774375445820624, 1.196326915131067, 1.2108410787332105, 1.226935955666704, 1.2435786721325712, 1.2636674870009301, 1.2771327341761207, 1.2973024449602235, 1.3101689939794596, 1.330505275298492, 1.343613488104893, 1.3606538575695595, 1.3770849475404248, 1.3951459028030513, 1.4102068819483975, 1.4301598462479888, 1.4437459253240377, 1.4625625919434242, 1.477177448803559, 1.4953032573248493, 1.5101932286197552, 1.5285538742900826, 1.5437879092933144, 1.5642132785287686, 1.5769941529579228, 1.5945547139708651, 1.6101720659789862, 1.6273803712974768, 1.6437585546518676, 1.6608163320925087, 1.6770924568700138, 1.6940010717808036, 1.7101645566435764, 1.7273807126184693, 1.743823407930904, 1.7606518095708452, 1.7771272728423355]
14	images/0570.jpg	images/0316.jpg	left	1.533	[0.0, 0.0, 0.0, 0.0, 0.0, 0.0, 0.0, 0.0, 0.0, 0.0, 0.0, 0.0, 0.0, 0.0, 0.0, 0.0, 0.0, 0.0, 0.0, 0.0, 0.0, 0.0, 0.0, 0.0, 0.0, 0.0, 0.0, -17.0, -54.0, -103.0, -168.0, -223.0, -254.0, -264.0, -276.0, -227.0, -163.0, -19.0, 28.0, 160.0, 210.0, 251.0, 277.0, 294.0, 302.0, 306.0, 311.0, 322.0, 335.0, 358.0, 388.0, 410.0, 440.0, 457.0, 479.0, 503.0, 536.0, 577.0, 611.0, 632.0, 639.0, 639.0, 639.0, 639.0, 639.0, 639.0, 639.0, 639.0, 639.0, 639.0, 639.0, 639.0, 636.0, 619.0, 564.0, 357.0, 171.0, -56.0, -278.0, -472.0, -602.0, -656.0, -678.0, -688.0, -692.0, -694.0, -694.0, -694.0, -695.0, -702.0, -710.0, -715.0]	[-490.0, -490.0, -490.0, -490.0, -490.0, -490.0, -490.0, -490.0, -490.0, -490.0, -490.0, -490.0, -490.0, -490.0, -490.0, -490.0, -490.0, -490.0, -490.0, -490.0, -490.0, -490.0, -490.0, -490.0, -490.0, -490.0, -490.0, -453.0, -401.0, -330.0, -255.0, -171.0, -76.0, 34.0, 73.0, 171.0, 239.0, 319.0, 339.0, 375.0, 390.0, 402.0, 408.0, 412.0, 413.0, 415.0, 416.0, 419.0, 420.0, 421.0, 421.0, 421.0, 421.0, 421.0, 419.0, 415.0, 411.0, 405.0, 400.0, 398.0, 397.0, 397.0, 397.0, 397.0, 397.0, 397.0, 397.0, 397.0, 397.0, 396.0, 392.0, 388.0, 378.0, 363.0, 339.0, 306.0, 306.0, 306.0, 316.0, 345.0, 359.0, 368.0, 372.0, 373.0, 373.0, 373.0, 373.0, 373.0, 373.0, 373.0, 373.0, 372.0]	[0.012847775709815323, 0.017040369464666583, 0.025924585876055062, 0.04231027855712455, 0.05902706430060789, 0.07563359946652781, 0.09250773972598836, 0.10908662690781057, 0.12615942301636096, 0.142249179945793, 0.15906563492899295, 0.17605275643290952, 0.1922425239608856, 0.20937471199431457, 0.22562250614282675, 0.24267004358989652, 0.2590523229446262, 0.276090985731571, 0.29232853988651186, 0.30938324533053674, 0.3256030501506757, 0.3427417235216126, 0.35900078165286686, 0.37614901235792786, 0.3923701825115131, 0.4093453573586885, 0.4257006714033196, 0.44267721158394124, 0.45907143759541214, 0.4759691298386315, 0.492494427744532, 0.5092757254169555, 0.525931071213563, 0.5426253289624583, 0.5612508490739856, 0.575991999154212, 0.5946656472224277, 0.6093204400531249, 0.6259774924983503, 0.642596315650735, 0.6613768009556225, 0.6760012151498813, 0.6939164211944444, 0.7092948400677415, 0.7267113585403422, 0.7425516010262072, 0.7596527277637506, 0.7758735565876123, 0.7923169345594943, 0.8089449737017276, 0.8258279886213131, 0.8423218838870525, 0.8590571016102331, 0.8760906444076682, 0.8922660759271821, 0.9088657844404224, 0.927319955357234, 0.942278534595971, 0.9605163003579946, 0.9754939942504279, 0.9937430240097456, 1.0089367817126913, 1.026666643912904, 1.0425055210653227, 1.05958241315966, 1.075495359575143, 1.0927278995368397, 1.109095160238212, 1.1261478176893434, 1.142278193263337, 1.1592871600732906, 1.1755069649079815, 1.1927135635487502, 1.2090879922470776, 1.226020500456798, 1.2424833344120998, 1.2593462106888182, 1.2755083302326966, 1.2927173182106344, 1.3091907334892312, 1.3260478071024409, 1.3422034413233632, 1.359308322731522, 1.3754656636010623, 1.3926033129828284, 1.4087944458296988, 1.425976468497538, 1.442130737385014, 1.4592987654032186, 1.475533588876715, 1.4927408701914828, 1.5088746590918163]
15	images/0193.jpg	images/0554.jpg	right	0.851	[0.0, 0.0, 0.0, 0.0, 0.0, 0.0, 0.0, 0.0, 0.0, 0.0, 0.0, 0.0, 0.0, 0.0, 0.0, 0.0, 0.0, 12.0, 51.0, 114.0, 239.0, 280.0, 392.0, 452.0, 516.0, 570.0, 617.0, 655.0, 679.0, 695.0, 700.0, 702.0, 703.0, 703.0, 703.0, 698.0, 691.0, 683.0, 677.0, 671.0, 669.0, 669.0, 669.0, 668.0, 668.0, 666.0, 666.0, 666.0, 666.0, 666.0, 666.0, 666.0]	[-490.0, -490.0, -490.0, -490.0, -490.0, -490.0, -490.0, -490.0, -490.0, -490.0, -490.0, -490.0, -490.0, -490.0, -490.0, -490.0, -490.0, -479.0, -453.0, -406.0, -304.0, -266.0, -170.0, -111.0, -46.0, 11.0, 60.0, 93.0, 116.0, 134.0, 145.0, 152.0, 156.0, 159.0, 163.0, 171.0, 182.0, 199.0, 214.0, 225.0, 227.0, 227.0, 229.0, 229.0, 232.0, 237.0, 243.0, 245.0, 248.0, 250.0, 252.0, 252.0]	[0.00727005246153567, 0.011511798176798038, 0.015000904531916603, 0.032873102609300986, 0.04765930866415147, 0.06690298290050123, 0.08112291744328104, 0.10017578651604708, 0.11409500663285144, 0.13302021715207957, 0.1474725994776236, 0.1655731493665371, 0.18088671496661846, 0.19933064590441063, 0.2141598599118879, 0.232134799240157, 0.24752106876985636, 0.26549566676840186, 0.2808181070286082, 0.2987227317498764, 0.31414518259407487, 0.33208257528895047, 0.34762039668567013, 0.3652284029958537, 0.3810754721489502, 0.39803494566876907, 0.4141417692590039, 0.43138557321799453, 0.447667159314733, 0.46462117151531857, 0.48102734418353066, 0.4979151377774542, 0.5141458652506117, 0.531246992002707, 0.5477487379102968, 0.5644320730061736, 0.5808553123351885, 0.597925719092018, 0.6140502920025028, 0.6312667893071193, 0.6474094528675778, 0.664578504889505, 0.6807112697861157, 0.6978868071309989, 0.7140755506552523, 0.731241871995735, 0.747506050116499, 0.7646085422020406, 0.7809126562788151, 0.7979021671199007, 0.81710419873707, 0.8313374452554854]
16	images/0432.jpg	images/0035.jpg	right	1.038	[0.0, 0.0, 0.0, 0.0, 0.0, 0.0, 0.0, 0.0, 0.0, 0.0, 0.0, 9.0, 30.0, 50.0, 66.0, 79.0, 90.0, 98.0, 107.0, 121.0, 137.0, 158.0, 183.0, 248.0, 318.0, 388.0, 433.0, 449.0, 450.0, 450.0, 450.0, 450.0, 450.0, 450.0, 450.0, 454.0, 473.0, 491.0, 499.0, 506.0, 514.0, 514.0, 514.0, 514.0, 514.0, 514.0, 514.0, 514.0, 514.0, 514.0, 514.0, 529.0, 555.0, 578.0, 600.0, 622.0, 642.0, 654.0, 658.0, 659.0, 659.0, 659.0, 659.0]	[-490.0, -490.0, -490.0, -490.0, -490.0, -490.0, -490.0, -490.0, -490.0, -490.0, -490.0, -460.0, -351.0, -273.0, -218.0, -172.0, -140.0, -126.0, -114.0, -95.0, -80.0, -69.0, -62.0, -38.0, -12.0, 8.0, 16.0, 18.0, 18.0, 18.0, 18.0, 18.0, 18.0, 18.0, 18.0, 20.0, 35.0, 74.0, 137.0, 222.0, 305.0, 371.0, 398.0, 410.0, 413.0, 415.0, 415.0, 415.0, 415.0, 415.0, 415.0, 415.0, 415.0, 412.0, 407.0, 400.0, 395.0, 391.0, 391.0, 391.0, 391.0, 391.0, 391.0]	[0.006388389214407653, 0.010527735008508898, 0.013953694753581658, 0.029961190433823504, 0.04601374205958564, 0.06324355135438964, 0.07963436403952073, 0.09684710668807384, 0.11296178093471099, 0.12986868916777894, 0.14617928858206142, 0.1632193167170044, 0.17949544149450958, 0.19635490443033632, 0.2126487785280915, 0.2298045185598312, 0.24597995009389706, 0.26317289541475475, 0.2792513883614447, 0.2964255603728816, 0.31260099190694746, 0.32978164924134035, 0.3459485474450048, 0.363144223447307, 0.3793684655975085, 0.39646276568237226, 0.41283821836987045, 0.4298004225711338, 0.4490731101250276, 0.4631582181027625, 0.4798780758283101, 0.49652932562457863, 0.5151179817621596, 0.5298662998393411, 0.5483488013996975, 0.5631667514244327, 0.5809249442681903, 0.5965214749594452, 0.6141632732469589, 0.6297970092273317, 0.6471326317696366, 0.663126815459691, 0.68041874737537, 0.6962624031875748, 0.7133147192944307, 0.7296833453292493, 0.7461021473136498, 0.7626950291596586, 0.7793199963052757, 0.7960132300650002, 0.8152022910217056, 0.8292706736829132, 0.8475439380854368, 0.8627902610751335, 0.8799279104568996, 0.8959435981232673, 0.913112308800919, 0.9295522734464612, 0.9464526963565731, 0.9627916264144005, 0.9797961558942916, 0.9958985421544639, 1.0131812580802944]
17	images/0434.jpg	images/0422.jpg	right	0.783	[0.0, 0.0, 0.0, 0.0, 0.0, 0.0, 0.0, 0.0, 0.0, 0.0, 0.0, 0.0, 0.0, 0.0, 0.0, 0.0, 7.0, 18.0, 33.0, 40.0, 68.0, 103.0, 144.0, 182.0, 225.0, 285.0, 359.0, 426.0, 487.0, 544.0, 602.0, 644.0, 663.0, 663.0, 663.0, 663.0, 663.0, 663.0, 664.0, 664.0, 664.0, 664.0, 664.0, 663.0, 663.0, 663.0, 663.0, 663.0]	[-490.0, -490.0, -490.0, -490.0, -490.0, -490.0, -490.0, -490.0, -490.0, -490.0, -490.0, -490.0, -490.0, -490.0, -490.0, -479.0, -448.0, -390.0, -288.0, -248.0, -133.0, -60.0, 8.0, 55.0, 94.0, 132.0, 169.0, 199.0, 220.0, 236.0, 256.0, 270.0, 278.0, 278.0, 278.0, 278.0, 278.0, 278.0, 280.0, 287.0, 292.0, 296.0, 299.0, 304.0, 305.0, 305.0, 305.0, 305.0]	[0.01155105147336144, 0.015497544110985473, 0.020567363782902248, 0.038071946168201976, 0.053026770750875585, 0.07146524034033064, 0.0861647478013765, 0.10655154639971443, 0.11962699124705978, 0.1371291843097424, 0.15286634421499912, 0.17004427089705132, 0.18615075314301066, 0.20619997337053064, 0.21962801524205133, 0.23712713630811777, 0.2530359867378138, 0.27124542187084444, 0.2861145718488842, 0.30418235376419034, 0.3197075458447216, 0.3368895685125608, 0.35285473889962304, 0.3699033003504155, 0.3861265184968943, 0.4033041038492229, 0.4197348524903646, 0.4365786141133867, 0.4528574695577845, 0.46988520969171077, 0.48607770787202753, 0.5032754318672232, 0.5195532633078983, 0.536604896755307, 0.552988541443483, 0.5699459669704083, 0.5861347104946617, 0.6030931600253098, 0.6194494980591116, 0.6365540381375467, 0.6527656509715598, 0.6698585857229773, 0.6860582518856972, 0.7031586959637934, 0.7194566660618875, 0.7365963634365471, 0.7527533629763639, 0.7698978390108095]
18	images/0571.jpg	images/0052.jpg	right	1.857	[0.0, 0.0, 0.0, 0.0, 0.0, 0.0, 0.0, 0.0, 0.0, 0.0, 0.0, 0.0, 3.0, 28.0, 75.0, 137.0, 200.0, 262.0, 320.0, 376.0, 422.0, 463.0, 493.0, 511.0, 530.0, 540.0, 552.0, 571.0, 589.0, 599.0, 606.0, 608.0, 608.0, 608.0, 608.0, 608.0, 612.0, 618.0, 621.0, 622.0, 623.0, 622.0, 612.0, 567.0, 461.0, 302.0, 102.0, -132.0, -231.0, -299.0, -330.0, -356.0, -375.0, -394.0, -426.0, -442.0, -483.0, -531.0, -581.0, -607.0, -633.0, -656.0, -672.0, -686.0, -692.0, -695.0, -698.0, -701.0, -703.0, -703.0, -703.0, -703.0, -703.0, -703.0, -703.0, -703.0, -703.0, -703.0, -703.0, -703.0, -670.0, -630.0, -451.0, -379.0, -155.0, -14.0, 111.0, 200.0, 249.0, 276.0, 300.0, 331.0, 377.0, 416.0, 437.0, 448.0, 454.0, 454.0, 454.0, 454.0, 460.0, 483.0, 517.0, 565.0, 600.0, 620.0, 625.0, 625.0, 626.0, 626.0, 626.0, 626.0]	[-490.0, -490.0, -490.0, -490.0, -490.0, -490.0, -490.0, -490.0, -490.0, -490.0, -490.0, -490.0, -490.0, -476.0, -442.0, -389.0, -330.0, -260.0, -193.0, -124.0, -58.0, -3.0, 41.0, 72.0, 105.0, 126.0, 147.0, 173.0, 197.0, 211.0, 219.0, 223.0, 223.0, 223.0, 223.0, 223.0, 227.0, 234.0, 239.0, 243.0, 245.0, 247.0, 253.0, 264.0, 278.0, 304.0, 326.0, 326.0, 322.0, 301.0, 292.0, 283.0, 275.0, 267.0, 258.0, 253.0, 247.0, 245.0, 245.0, 245.0, 245.0, 245.0, 245.0, 245.0, 246.0, 247.0, 252.0, 261.0, 271.0, 278.0, 288.0, 290.0, 294.0, 296.0, 297.0, 297.0, 297.0, 297.0, 297.0, 297.0, 309.0, 316.0, 340.0, 351.0, 353.0, 353.0, 357.0, 357.0, 357.0, 359.0, 364.0, 371.0, 377.0, 382.0, 384.0, 385.0, 387.0, 387.0, 387.0, 387.0, 387.0, 387.0, 384.0, 373.0, 370.0, 367.0, 367.0, 367.0, 367.0, 367.0, 367.0, 367.0]	[0.016055282307206653, 0.020332526648417115, 0.0321143192704767, 0.04907652345718816, 0.06569432260585018, 0.08232543375925161, 0.0987909983668942, 0.11570234394457657, 0.13430055740172975, 0.14907823012617882, 0.16796930733835325, 0.18242271366761997, 0.20102434046566486, 0.21588256779068615, 0.2328300946537638, 0.24902566483069677, 0.26678215101128444, 0.28255719889421016, 0.299244629975874, 0.31566377330455, 0.3329311292327475, 0.3488949342863634, 0.3658175438467879, 0.38222644716734067, 0.3988773556338856, 0.41571872791973874, 0.43221432984864805, 0.44868672112352215, 0.46521099502569996, 0.4819735193887027, 0.49946308313519694, 0.5152657789731165, 0.5330915557715343, 0.548817451679497, 0.5657410852436442, 0.5821110765973572, 0.5993320112465881, 0.6152599763154285, 0.6324802282906603, 0.6485607692302437, 0.6658844451158075, 0.6820728472957853, 0.6989763422170654, 0.7153545255714562, 0.7322068205248797, 0.7486099211964756, 0.7656615546438843, 0.7819346074247733, 0.7990091101819417, 0.8151961470430251, 0.8323273110872833, 0.8485252706013853, 0.8657704398792703, 0.8818984261160949, 0.8991227740916656, 0.9152377896680264, 0.9323395990795689, 0.9489335049147485, 0.9656748666311614, 0.9847202263772488, 0.9990388061560225, 1.0176370196277276, 1.0324993429385358, 1.0488573876500595, 1.0657530319003854, 1.0832589796191314, 1.0990166195115307, 1.1152278910158202, 1.1319013274478493, 1.149412395170657, 1.1652314750099322, 1.1822435138310539, 1.1987517450761516, 1.2188187146093696, 1.2321095406077802, 1.2489307742507663, 1.2652297683380311, 1.2840460936131421, 1.298760961057269, 1.318098843228654, 1.3319863193755737, 1.3508169806445949, 1.3653280722646741, 1.3839552990248194, 1.3986295478389366, 1.4163290314027108, 1.4319808580476092, 1.4489833395346068, 1.4651860777084948, 1.4823916523600928, 1.498729217084474, 1.515690055952291, 1.5321112472738605, 1.5489771955471952, 1.5651952937041642, 1.5823353324085474, 1.5987568650598405, 1.615732722581015, 1.6321976045292104, 1.648994944858714, 1.6655202427646145, 1.682429881664575, 1.6985319265950238, 1.7156088186893612, 1.7319153221033048, 1.7489792435371783, 1.7651690110651543, 1.7823779990430921, 1.7984971106197918, 1.815878471781616, 1.8319180527614662, 1.8489498888957314]
19	images/0591.jpg	images/0004.jpg	right	1.892	[0.0, 0.0, 0.0, 0.0, 0.0, 0.0, 0.0, 0.0, 0.0, 0.0, 0.0, 0.0, 0.0, 2.0, 5.0, 9.0, 16.0, 32.0, 74.0, 116.0, 170.0, 227.0, 283.0, 339.0, 354.0, 378.0, 383.0, 400.0, 410.0, 426.0, 447.0, 468.0, 483.0, 490.0, 493.0, 497.0, 498.0, 498.0, 498.0, 499.0, 499.0, 499.0, 499.0, 473.0, 378.0, 219.0, -10.0, -369.0, -474.0, -709.0, -769.0, -867.0, -883.0, -885.0, -885.0, -885.0, -885.0, -885.0, -885.0, -885.0, -885.0, -885.0, -885.0, -885.0, -885.0, -885.0, -865.0, -830.0, -786.0, -745.0, -707.0, -660.0, -614.0, -559.0, -494.0, -318.0, -153.0, 9.0, 133.0, 212.0, 239.0, 246.0, 246.0, 246.0, 246.0, 246.0, 246.0, 246.0, 246.0, 248.0, 252.0, 259.0, 269.0, 303.0, 332.0, 345.0, 372.0, 412.0, 484.0, 533.0, 571.0, 604.0, 630.0, 648.0, 654.0, 655.0, 655.0, 655.0, 655.0, 655.0, 661.0, 663.0, 663.0, 663.0]	[-490.0, -490.0, -490.0, -490.0, -490.0, -490.0, -490.0, -490.0, -490.0, -490.0, -490.0, -490.0, -488.0, -485.0, -474.0, -464.0, -447.0, -416.0, -328.0, -229.0, -113.0, -24.0, 45.0, 116.0, 138.0, 179.0, 187.0, 205.0, 213.0, 222.0, 235.0, 247.0, 255.0, 259.0, 260.0, 261.0, 262.0, 262.0, 262.0, 263.0, 263.0, 263.0, 263.0, 263.0, 278.0, 302.0, 327.0, 336.0, 336.0, 336.0, 336.0, 336.0, 336.0, 336.0, 336.0, 336.0, 336.0, 336.0, 336.0, 336.0, 336.0, 336.0, 336.0, 336.0, 336.0, 336.0, 336.0, 336.0, 336.0, 336.0, 336.0, 336.0, 336.0, 336.0, 336.0, 336.0, 343.0, 343.0, 343.0, 343.0, 344.0, 345.0, 345.0, 345.0, 345.0, 345.0, 345.0, 345.0, 345.0, 345.0, 347.0, 350.0, 353.0, 354.0, 354.0, 354.0, 354.0, 354.0, 346.0, 338.0, 334.0, 329.0, 329.0, 329.0, 329.0, 329.0, 329.0, 329.0, 329.0, 329.0, 329.0, 329.0, 329.0, 329.0]	[0.012688031827565283, 0.017343473198707215, 0.025603391477488913, 0.04246524375048466, 0.05854407804145012, 0.07616607900126837, 0.09195785218616948, 0.10917912816512398, 0.12530609039822593, 0.14245432110328693, 0.15860551797959488, 0.17572234604449477, 0.19193259354506154, 0.20903747495322023, 0.22524260244972538, 0.24233075854135677, 0.25859937399218325, 0.2756796794128604, 0.2918322416226147, 0.30900163497426547, 0.32516443719214294, 0.3423109612194821, 0.358579235340585, 0.3756667087582173, 0.39200188414542936, 0.40902723495673854, 0.4259221965330653, 0.4423515798553126, 0.4609914359461982, 0.47582440462429076, 0.49363755209196825, 0.5093136133800726, 0.5265331826813053, 0.5423270038736518, 0.5585550006944686, 0.5753103570605163, 0.5948813696886646, 0.6088831924134865, 0.6281572453008266, 0.6420262894680491, 0.6608344227424823, 0.6753601916861953, 0.6947158231632784, 0.7085872566676699, 0.7279944294423331, 0.7421986626432044, 0.7629121169738937, 0.7752219518006314, 0.7935634828172624, 0.8086899979098234, 0.8264256627735449, 0.8421174253890058, 0.8594079919712385, 0.8753267410502303, 0.8923479958612006, 0.9085097740608035, 0.9258928419003496, 0.9421508760278812, 0.9592332294414518, 0.9752345811284613, 0.9922814359160839, 1.0085275233868742, 1.0257791779877152, 1.0421143533894792, 1.059064952263725, 1.0753141117311316, 1.0923599425150314, 1.1085415180423297, 1.1257730340003036, 1.1422829719085712, 1.158884728414705, 1.1755192528798943, 1.1924032918032026, 1.2088077578082448, 1.2256487887789262, 1.2419897668296471, 1.2589980509801535, 1.2751837225077907, 1.2922684652585303, 1.3085107980587054, 1.3257976099848747, 1.3418545989406994, 1.3590260402852437, 1.3751762131723808, 1.3923490198503714, 1.4084985100780614, 1.4256569807621418, 1.4417378630460007, 1.4591260508750565, 1.4753113810584182, 1.4922544706059853, 1.509799330291571, 1.5292788656806806, 1.5418911215820117, 1.558903501732857, 1.575843519269256, 1.5920274841337232, 1.609046690937248, 1.6256713167531416, 1.643528154847445, 1.6589628936781082, 1.676397161470959, 1.6922094146430027, 1.7096153517923085, 1.7255600421776762, 1.742923995363526, 1.7588936030660989, 1.7757622820063261, 1.7921858626650646, 1.8093132720387075, 1.8255989541503368, 1.8420580334350234, 1.85860756598413, 1.8774976191925816]
20	images/0115.jpg	images/0520.jpg	left	1.029	[0.0, 0.0, 0.0, 0.0, 0.0, 0.0, 0.0, 4.0, 17.0, 33.0, 55.0, 77.0, 101.0, 129.0, 173.0, 222.0, 271.0, 312.0, 354.0, 388.0, 414.0, 459.0, 497.0, 542.0, 596.0, 647.0, 692.0, 714.0, 725.0, 726.0, 726.0, 726.0, 726.0, 727.0, 727.0, 727.0, 720.0, 712.0, 691.0, 635.0, 534.0, 410.0, 245.0, 69.0, -115.0, -357.0, -487.0, -574.0, -628.0, -656.0, -667.0, -674.0, -681.0, -704.0, -715.0, -748.0, -753.0, -757.0, -757.0, -757.0, -757.0, -757.0]	[-490.0, -490.0, -490.0, -490.0, -490.0, -490.0, -490.0, -489.0, -466.0, -426.0, -363.0, -284.0, -200.0, -118.0, -16.0, 92.0, 177.0, 242.0, 293.0, 331.0, 358.0, 390.0, 407.0, 427.0, 450.0, 470.0, 489.0, 495.0, 496.0, 496.0, 496.0, 496.0, 496.0, 491.0, 470.0, 451.0, 434.0, 417.0, 400.0, 368.0, 332.0, 297.0, 273.0, 269.0, 269.0, 269.0, 269.0, 269.0, 269.0, 269.0, 269.0, 269.0, 270.0, 275.0, 279.0, 289.0, 292.0, 294.0, 295.0, 295.0, 295.0, 295.0]	[0.01669152708200272, 0.02147906433674507, 0.033447224777773954, 0.05014626120100729, 0.06660841248231009, 0.08368598725064658, 0.10009693857864477, 0.11699770281848032, 0.13338066484720912, 0.15034867169742938, 0.16652307922777254, 0.1833060835779179, 0.20005529595073313, 0.217056753434008, 0.23332468622538727, 0.2501807358348742, 0.2664930419123266, 0.2835760780144483, 0.29978018150723074, 0.3166560284444131, 0.33339875549427234, 0.3502746024314547, 0.36646095661853906, 0.38355013669934124, 0.3997044055722654, 0.4169625455251662, 0.43303625979751814, 0.4497513388778316, 0.466364018022432, 0.4835282913845731, 0.49968733893183526, 0.5168970095692202, 0.5330273851432139, 0.5502431997883832, 0.566375964684994, 0.5831248357280856, 0.60027682108921, 0.6164293833135162, 0.633815181805403, 0.6500145066529512, 0.6669357508799294, 0.68307192910288, 0.7003467943577562, 0.7164413299615262, 0.7335916086594807, 0.7497905921773054, 0.7668879642442334, 0.783316323562758, 0.8002027518232353, 0.8164792179304641, 0.833704248565482, 0.8500530772871571, 0.8669070789037505, 0.8832569316145964, 0.900219818475307, 0.9163925193424802, 0.9335308513836935, 0.9499701333552366, 0.9670849134126911, 0.9831333690526662, 1.000226986463531, 1.0164450846205]
21	images/0282.jpg	images/0045.jpg	right	0.887	[0.0, 0.0, 0.0, 0.0, 0.0, 0.0, 0.0, 0.0, 0.0, 0.0, 0.0, 0.0, 10.0, 21.0, 34.0, 47.0, 56.0, 63.0, 67.0, 78.0, 88.0, 102.0, 158.0, 216.0, 307.0, 417.0, 544.0, 658.0, 741.0, 774.0, 783.0, 784.0, 784.0, 784.0, 788.0, 792.0, 794.0, 796.0, 797.0, 798.0, 801.0, 808.0, 813.0, 829.0, 835.0, 855.0, 874.0, 893.0, 905.0, 913.0, 923.0, 927.0, 927.0, 927.0]	[-490.0, -490.0, -490.0, -490.0, -490.0, -490.0, -490.0, -490.0, -490.0, -490.0, -490.0, -490.0, -445.0, -369.0, -271.0, -179.0, -111.0, -62.0, -34.0, 1.0, 23.0, 38.0, 64.0, 84.0, 115.0, 143.0, 161.0, 163.0, 169.0, 171.0, 171.0, 171.0, 171.0, 171.0, 175.0, 183.0, 187.0, 190.0, 192.0, 196.0, 201.0, 211.0, 220.0, 233.0, 237.0, 250.0, 265.0, 280.0, 291.0, 297.0, 306.0, 309.0, 309.0, 309.0]	[0.00916991216945462, 0.013748553596087731, 0.018930330508737825, 0.03549488169664983, 0.05168123588373419, 0.06890148785896599, 0.08507794339675456, 0.10208247287664562, 0.11852516818908043, 0.1354406097525498, 0.15176793448335957, 0.16874140266736504, 0.18520696727500763, 0.20192614234110806, 0.21834187234344427, 0.23552867367106955, 0.25184678241203073, 0.2686506080790423, 0.28490215686906595, 0.3018455877463566, 0.3181916858011391, 0.3353194365190575, 0.3517368731700117, 0.36870283202733845, 0.38513187401986215, 0.4018623130687047, 0.41819134446268436, 0.43526516456040554, 0.4515371933521237, 0.4687765599664999, 0.4848451542638941, 0.5019582276581787, 0.5181346831814153, 0.5352818898827536, 0.551572350654169, 0.5687444746581605, 0.5849240021925652, 0.6019701743061887, 0.6183678136585513, 0.635425932428916, 0.6516969372169115, 0.668531482850085, 0.684888503557886, 0.7019507183285896, 0.7209455607808195, 0.7352713085565483, 0.7532298638980137, 0.7686256907618372, 0.7867699312773766, 0.8019223876908654, 0.8194809006963624, 0.8352405885816552, 0.8525444671540754, 0.8685406988370232]
22	images/0148.jpg	images/0075.jpg	right	0.664	[0.0, 0.0, 0.0, 0.0, 0.0, 0.0, 0.0, 0.0, 0.0, 0.0, 0.0, 0.0, 7.0, 25.0, 50.0, 89.0, 128.0, 178.0, 231.0, 284.0, 345.0, 447.0, 516.0, 565.0, 611.0, 670.0, 732.0, 786.0, 818.0, 830.0, 833.0, 833.0, 833.0, 833.0, 833.0, 833.0, 833.0, 833.0, 833.0, 833.0]	[-490.0, -490.0, -490.0, -490.0, -490.0, -490.0, -490.0, -490.0, -490.0, -490.0, -490.0, -490.0, -472.0, -432.0, -360.0, -263.0, -169.0, -77.0, 12.0, 91.0, 163.0, 239.0, 277.0, 301.0, 321.0, 346.0, 372.0, 397.0, 409.0, 415.0, 416.0, 416.0, 416.0, 416.0, 416.0, 416.0, 416.0, 416.0, 416.0, 416.0]	[0.0029962214321130887, 0.007676580105908215, 0.02243855150300078, 0.038792500214185566, 0.05539118472370319, 0.07466557894076686, 0.08867320431454573, 0.10745983361266553, 0.12230406628805213, 0.14033737356658094, 0.15559325387584977, 0.17415187270671595, 0.1886220043670619, 0.20544562733266503, 0.22221702635579277, 0.2403793575213058, 0.25560076320834924, 0.27372349974757526, 0.28864658034581225, 0.3068297328281915, 0.32378886501828674, 0.33874505491985474, 0.3555427365936339, 0.37388665693288203, 0.3886274656833848, 0.40633991990762297, 0.4222146370302653, 0.43916762522712816, 0.45554922192241065, 0.4724496448325226, 0.48863360968243796, 0.5058282616810175, 0.5220606958318967, 0.5392058545257896, 0.5553901607199805, 0.5724858261237387, 0.5887834548921091, 0.6058678563131252, 0.6222685676475521, 0.6393239557655761]
23	images/0137.jpg	images/0117.jpg	right	0.834	[0.0, 0.0, 0.0, 0.0, 0.0, 0.0, 0.0, 0.0, 0.0, 1.0, 7.0, 19.0, 43.0, 71.0, 107.0, 142.0, 200.0, 237.0, 269.0, 297.0, 329.0, 357.0, 379.0, 401.0, 418.0, 436.0, 454.0, 465.0, 477.0, 481.0, 496.0, 507.0, 514.0, 519.0, 521.0, 525.0, 529.0, 538.0, 549.0, 568.0, 573.0, 589.0, 600.0, 609.0, 616.0, 623.0, 629.0, 633.0, 634.0, 634.0, 634.0]	[-490.0, -490.0, -490.0, -490.0, -490.0, -490.0, -490.0, -490.0, -490.0, -488.0, -480.0, -461.0, -421.0, -369.0, -300.0, -227.0, -94.0, -5.0, 65.0, 111.0, 151.0, 177.0, 195.0, 211.0, 222.0, 237.0, 249.0, 259.0, 268.0, 269.0, 279.0, 286.0, 291.0, 294.0, 295.0, 296.0, 298.0, 299.0, 303.0, 308.0, 309.0, 312.0, 314.0, 314.0, 316.0, 317.0, 318.0, 318.0, 318.0, 318.0, 318.0]	[0.00700654333923012, 0.0112926623551175, 0.014977693877881393, 0.03161290101706982, 0.04746884481573943, 0.0643685850664042, 0.08049930195556954, 0.09760042870766483, 0.11405507066228893, 0.13128897595743183, 0.1474620181543287, 0.16429861178039573, 0.1804446886817459, 0.1975908713793615, 0.21386494816397317, 0.23099679486767855, 0.2471066904545296, 0.2642050865397323, 0.28040304603928234, 0.29756629539770074, 0.313805214871536, 0.3309524215728743, 0.3472893036378082, 0.36413784392061643, 0.3804463953420054, 0.3975546900765039, 0.4141038812813349, 0.43083739234134555, 0.4471073731256183, 0.4641675399034284, 0.4804170407005586, 0.49755537274177186, 0.5136662923323456, 0.5308554829971399, 0.5470722158206627, 0.564137843917706, 0.5803416060953168, 0.5974550208338769, 0.6201127081585582, 0.6307486457517371, 0.647105666459538, 0.6641422812535893, 0.683297208903241, 0.6976400233397726, 0.7166314524656627, 0.7310852001246531, 0.7477927698782878, 0.7641941638721619, 0.7803760807291837, 0.7971020824625157, 0.8145575129019562]
24	images/0539.jpg	images/0567.jpg	left	1.238	[0.0, 0.0, 0.0, 0.0, 0.0, 0.0, 0.0, 0.0, 0.0, 0.0, 0.0, 0.0, 0.0, 0.0, 0.0, 0.0, 15.0, 50.0, 97.0, 150.0, 209.0, 271.0, 333.0, 394.0, 446.0, 487.0, 527.0, 557.0, 594.0, 613.0, 630.0, 639.0, 645.0, 652.0, 659.0, 664.0, 666.0, 666.0, 666.0, 666.0, 666.0, 660.0, 637.0, 585.0, 502.0, 407.0, 305.0, 196.0, 76.0, -82.0, -160.0, -218.0, -272.0, -321.0, -368.0, -398.0, -426.0, -457.0, -498.0, -531.0, -555.0, -568.0, -574.0, -596.0, -613.0, -626.0, -630.0, -630.0, -630.0, -630.0, -630.0, -630.0, -630.0, -630.0]	[-490.0, -490.0, -490.0, -490.0, -490.0, -490.0, -490.0, -490.0, -490.0, -490.0, -490.0, -490.0, -490.0, -490.0, -490.0, -490.0, -458.0, -397.0, -307.0, -214.0, -112.0, -3.0, 102.0, 191.0, 258.0, 304.0, 345.0, 374.0, 405.0, 419.0, 430.0, 437.0, 442.0, 448.0, 454.0, 458.0, 460.0, 460.0, 460.0, 460.0, 460.0, 454.0, 438.0, 413.0, 382.0, 352.0, 325.0, 305.0, 287.0, 265.0, 256.0, 247.0, 247.0, 247.0, 247.0, 249.0, 252.0, 257.0, 263.0, 267.0, 273.0, 275.0, 277.0, 283.0, 289.0, 293.0, 294.0, 294.0, 294.0, 294.0, 294.0, 294.0, 294.0, 294.0]	[0.0033170745009556413, 0.008410104826907627, 0.02278602855221834, 0.039906952617457137, 0.05604040017351508, 0.07324836416228209, 0.08943164635275025, 0.10652355710044503, 0.1227911485475488, 0.13973219008767046, 0.15608545613940805, 0.17325450816133525, 0.1893971717072418, 0.2065365277521778, 0.22273755926289596, 0.23982196068391204, 0.25629537596250884, 0.2733009294461226, 0.28939102771983016, 0.30649249578709714, 0.3227846632216824, 0.3399472299061017, 0.3561724960600259, 0.37299304704356473, 0.3893114971142495, 0.4064300318423193, 0.42263311134593096, 0.43979260604828596, 0.4559414135874249, 0.4731746362231206, 0.48928521446941886, 0.5064102345349966, 0.5233342094143154, 0.5406333093269495, 0.5559745228965767, 0.5749478613724932, 0.5899532032344723, 0.6068676208087709, 0.6227211752702715, 0.6397615447349381, 0.6572268738382263, 0.6743525765486993, 0.6893797637312673, 0.7064720158086857, 0.7229901457176311, 0.739636275509838, 0.7575347562378738, 0.7730452709947713, 0.790550536068622, 0.8068317808356369, 0.824866453447612, 0.8397874860529555, 0.856407333194511, 0.8730302523472346, 0.8897064194461564, 0.9061624267342268, 0.9227839805535041, 0.9394321583531564, 0.9577194174053147, 0.9728350098448573, 0.991310002078535, 1.0062467359966831, 1.0242902832687832, 1.039559134238516, 1.0570947779488051, 1.072672876645811, 1.0901071444386616, 1.1062194293626817, 1.1231959695433034, 1.1393335130997002, 1.156496421113843, 1.1727902952115983, 1.1898811819701223, 1.2062289866880747]
25	images/0044.jpg	images/0225.jpg	left	1.015	[0.0, 0.0, 0.0, 0.0, 0.0, 0.0, 0.0, 0.0, 0.0, 0.0, 5.0, 13.0, 22.0, 40.0, 80.0, 138.0, 192.0, 241.0, 285.0, 326.0, 372.0, 410.0, 468.0, 510.0, 551.0, 593.0, 648.0, 703.0, 751.0, 774.0, 781.0, 781.0, 781.0, 781.0, 772.0, 757.0, 740.0, 704.0, 653.0, 572.0, 475.0, 356.0, 191.0, 5.0, -178.0, -419.0, -527.0, -595.0, -647.0, -680.0, -700.0, -712.0, -723.0, -731.0, -737.0, -739.0, -739.0, -739.0, -739.0, -739.0, -739.0]	[-490.0, -491.0, -491.0, -491.0, -491.0, -491.0, -491.0, -491.0, -491.0, -491.0, -489.0, -469.0, -450.0, -414.0, -343.0, -239.0, -135.0, -52.0, 11.0, 61.0, 102.0, 127.0, 161.0, 177.0, 188.0, 197.0, 213.0, 232.0, 251.0, 257.0, 259.0, 259.0, 259.0, 259.0, 265.0, 275.0, 287.0, 308.0, 331.0, 349.0, 351.0, 351.0, 351.0, 351.0, 334.0, 302.0, 290.0, 281.0, 274.0, 269.0, 268.0, 268.0, 268.0, 268.0, 268.0, 268.0, 268.0, 268.0, 268.0, 268.0, 268.0]	[0.001376596133923158, 0.005834405674249865, 0.019057989047723822, 0.036281995693570934, 0.05228061669913586, 0.06948243669467047, 0.08587154270207975, 0.10293478147650603, 0.11920271426788531, 0.13613215048098937, 0.15239871793892235, 0.16962613789655734, 0.1859084066672949, 0.2030180667352397, 0.21910918901266996, 0.23603691856260411, 0.2521963074395899, 0.2693697967915796, 0.28555751631211024, 0.3026344084064476, 0.3188647945498815, 0.3360666145454161, 0.35221200875821523, 0.36942748207366094, 0.3856861988606397, 0.4028620775352465, 0.42184190134867094, 0.43598708393983543, 0.45269431234919466, 0.4693486341420794, 0.4880403728602687, 0.5027426109736552, 0.5189112158404896, 0.5356628175504738, 0.553732988802949, 0.5693469274701783, 0.586467168861418, 0.6026658110349672, 0.6197273431462236, 0.6358645453728968, 0.6527519976370968, 0.6692680795385968, 0.6855489829758881, 0.7023179926763987, 0.7214319603663171, 0.7358130040956894, 0.7541149404714815, 0.7691540743107907, 0.7868586778640747, 0.8027811816136818, 0.8196648792072665, 0.8356047909328481, 0.852721618997748, 0.869118234331836, 0.8860108065855457, 0.9025439551478485, 0.9193890821043169, 0.9357833081157878, 0.9526615443755873, 0.9689076318463776, 0.9860760011943057]
26	images/0420.jpg	images/0110.jpg	right	0.914	[0.0, 0.0, 0.0, 0.0, 3.0, 5.0, 6.0, 6.0, 6.0, 6.0, 7.0, 12.0, 30.0, 66.0, 119.0, 166.0, 214.0, 268.0, 325.0, 383.0, 430.0, 470.0, 499.0, 540.0, 560.0, 576.0, 591.0, 600.0, 613.0, 628.0, 645.0, 655.0, 663.0, 669.0, 674.0, 679.0, 686.0, 687.0, 688.0, 688.0, 688.0, 688.0, 687.0, 685.0, 680.0, 675.0, 667.0, 666.0, 664.0, 664.0, 663.0, 662.0, 662.0, 662.0, 662.0]	[-490.0, -490.0, -490.0, -490.0, -487.0, -482.0, -481.0, -481.0, -481.0, -481.0, -479.0, -468.0, -438.0, -379.0, -275.0, -165.0, -62.0, 31.0, 120.0, 188.0, 251.0, 299.0, 340.0, 389.0, 410.0, 423.0, 431.0, 434.0, 440.0, 447.0, 453.0, 458.0, 461.0, 461.0, 461.0, 461.0, 458.0, 458.0, 456.0, 450.0, 443.0, 436.0, 432.0, 427.0, 421.0, 414.0, 402.0, 401.0, 397.0, 397.0, 396.0, 394.0, 394.0, 392.0, 392.0]	[0.011251361051108688, 0.016148807539138943, 0.022309527616016567, 0.039874184629297815, 0.05579054438567255, 0.0742095579917077, 0.08920977986417711, 0.10618905071169138, 0.12239486088219564, 0.13939358771312982, 0.15563728584675118, 0.1735968651919393, 0.18918656921596266, 0.20545655000023544, 0.22215968240925577, 0.23871706561476458, 0.25565469382854644, 0.2723895702220034, 0.28929818511824124, 0.3056142458663089, 0.3220914158009691, 0.33869010031048674, 0.35543112068262417, 0.37259641803393606, 0.38900805203593336, 0.4059968802030198, 0.422297239623731, 0.439507592949667, 0.45542053936515003, 0.4724708074791124, 0.4887680949032074, 0.5058897016278934, 0.5220606958318967, 0.5392857264669146, 0.5554840273107402, 0.5726049513614271, 0.5887930122262333, 0.606129658757709, 0.6223491222481243, 0.6393444357527187, 0.655622949852841, 0.6725203007663367, 0.6888291935174493, 0.7060122401890112, 0.7222897302999627, 0.7392730971478159, 0.7554905126453377, 0.7724953834549524, 0.7887919882196002, 0.8059303202608135, 0.8220951704715844, 0.8391843505523866, 0.8554219046927756, 0.8725435114174616, 0.888779017564957]
27	images/0578.jpg	images/0433.jpg	right	0.798	[0.0, 0.0, 0.0, 0.0, 0.0, 0.0, 0.0, 0.0, 0.0, 0.0, 0.0, 0.0, 0.0, 0.0, 0.0, 2.0, 15.0, 38.0, 68.0, 110.0, 172.0, 237.0, 289.0, 342.0, 398.0, 448.0, 468.0, 487.0, 505.0, 527.0, 552.0, 574.0, 586.0, 589.0, 589.0, 589.0, 589.0, 589.0, 589.0, 589.0, 589.0, 590.0, 591.0, 593.0, 595.0, 595.0, 595.0, 595.0]	[-490.0, -490.0, -490.0, -490.0, -490.0, -490.0, -490.0, -490.0, -490.0, -490.0, -490.0, -490.0, -490.0, -490.0, -490.0, -486.0, -433.0, -356.0, -274.0, -172.0, -62.0, 32.0, 104.0, 165.0, 213.0, 249.0, 265.0, 277.0, 286.0, 295.0, 306.0, 315.0, 321.0, 324.0, 324.0, 324.0, 324.0, 324.0, 324.0, 324.0, 324.0, 324.0, 327.0, 332.0, 336.0, 336.0, 336.0, 336.0]	[0.00021879446285311133, 0.004649980022804812, 0.015898610421572812, 0.032747150704381056, 0.05077670332684647, 0.0659465677163098, 0.08381364580418449, 0.09951496573921759, 0.1168495642777998, 0.13267922544036992, 0.15038485299737658, 0.16593905838089995, 0.18324839828710537, 0.19928968593012542, 0.2163433673704276, 0.23279937465849798, 0.24963494429539423, 0.26613225288747344, 0.2830435984506039, 0.29917158468742855, 0.31622117014194373, 0.3324850069329841, 0.349550976374303, 0.36578579984779935, 0.38291559855861124, 0.39932381923426874, 0.4162826100946404, 0.4326597694453085, 0.44955950969597325, 0.4657741945266025, 0.4830534971115412, 0.49907669410458766, 0.5164368926198222, 0.532621198814013, 0.5496021763246972, 0.5660575009533204, 0.5829459772066912, 0.5993122139043408, 0.6164525939529995, 0.6326945854234509, 0.6495840856805444, 0.6662148554896703, 0.6830538384529063, 0.6993026565760374, 0.7162713461002568, 0.7325273322348949, 0.7496636162686627, 0.7657953571761027]
28	images/0490.jpg	images/0154.jpg	left	1.018	[0.0, 0.0, 0.0, 0.0, 0.0, 0.0, 0.0, 0.0, 0.0, 0.0, 0.0, 1.0, 11.0, 37.0, 79.0, 137.0, 195.0, 256.0, 333.0, 418.0, 497.0, 559.0, 602.0, 642.0, 653.0, 664.0, 670.0, 683.0, 697.0, 711.0, 721.0, 724.0, 725.0, 725.0, 725.0, 725.0, 722.0, 687.0, 571.0, 401.0, 171.0, -69.0, -293.0, -490.0, -644.0, -726.0, -749.0, -749.0, -749.0, -749.0, -749.0, -749.0, -749.0, -747.0, -740.0, -734.0, -727.0, -722.0, -713.0, -710.0, -710.0, -710.0]	[-490.0, -490.0, -490.0, -490.0, -490.0, -490.0, -490.0, -490.0, -490.0, -490.0, -490.0, -490.0, -472.0, -426.0, -356.0, -268.0, -186.0, -101.0, -10.0, 89.0, 178.0, 246.0, 287.0, 322.0, 336.0, 348.0, 359.0, 368.0, 379.0, 390.0, 396.0, 398.0, 398.0, 398.0, 398.0, 398.0, 398.0, 394.0, 378.0, 354.0, 319.0, 280.0, 246.0, 217.0, 195.0, 183.0, 178.0, 178.0, 178.0, 178.0, 178.0, 178.0, 183.0, 205.0, 229.0, 256.0, 279.0, 300.0, 324.0, 330.0, 330.0, 330.0]	[0.008189603671780787, 0.012584266587509774, 0.017143110700999387, 0.03170437827066053, 0.047245271678548306, 0.06561513333872426, 0.08057814989297185, 0.09835102006036323, 0.11370486296073068, 0.13238704435934778, 0.14709781580313575, 0.16520212034811266, 0.1804457126709167, 0.19786018315062393, 0.21368540698313154, 0.2313551945699146, 0.247004631877644, 0.2641552519053221, 0.2805498192610685, 0.29750451412110124, 0.31396734807640314, 0.3307960910460679, 0.3472125037078513, 0.36420235586410854, 0.38059077922662254, 0.3974642368266359, 0.41366765765997116, 0.4310152268590173, 0.4469660612521693, 0.4642409265070455, 0.4805409445980331, 0.49751373010803945, 0.5139943133835914, 0.5308879096264718, 0.5472295703511918, 0.5641893852152862, 0.5803907580557279, 0.5974768661399139, 0.6137226122809807, 0.6310735948063666, 0.6469937092188047, 0.6641470599133754, 0.6806218405254185, 0.6975642473989865, 0.7140130867046537, 0.7308182776905596, 0.7472517569985939, 0.7640658226591768, 0.7802975741360569, 0.7974635541613679, 0.8137277322821319, 0.8309612962329993, 0.8470305731898407, 0.8641235079412581, 0.880296550138155, 0.8974072342098225, 0.91365571100323, 0.9307858510583173, 0.9469868825690355, 0.9640996146190446, 0.980306107463548, 0.9974492181645473]
29	images/0426.jpg	images/0197.jpg	left	1.112	[0.0, 0.0, 0.0, 0.0, 0.0, 0.0, 0.0, 0.0, 0.0, 3.0, 11.0, 26.0, 46.0, 76.0, 139.0, 193.0, 244.0, 290.0, 324.0, 356.0, 383.0, 410.0, 437.0, 460.0, 501.0, 551.0, 623.0, 653.0, 664.0, 664.0, 664.0, 664.0, 664.0, 664.0, 664.0, 664.0, 664.0, 664.0, 664.0, 653.0, 588.0, 475.0, 316.0, 130.0, -64.0, -227.0, -359.0, -459.0, -536.0, -607.0, -631.0, -645.0, -660.0, -677.0, -693.0, -707.0, -714.0, -715.0, -716.0, -717.0, -717.0, -717.0, -712.0, -707.0, -705.0, -705.0, -705.0]	[-490.0, -488.0, -487.0, -487.0, -487.0, -487.0, -487.0, -487.0, -487.0, -481.0, -465.0, -445.0, -425.0, -378.0, -237.0, -136.0, -47.0, 30.0, 89.0, 135.0, 164.0, 187.0, 210.0, 227.0, 256.0, 284.0, 323.0, 339.0, 344.0, 344.0, 344.0, 344.0, 344.0, 344.0, 344.0, 344.0, 344.0, 344.0, 344.0, 344.0, 344.0, 335.0, 311.0, 287.0, 262.0, 234.0, 216.0, 204.0, 202.0, 202.0, 202.0, 202.0, 202.0, 202.0, 202.0, 204.0, 208.0, 208.0, 209.0, 225.0, 233.0, 259.0, 276.0, 287.0, 291.0, 291.0, 291.0]	[0.01172444867552258, 0.01592864774283953, 0.023542763912701048, 0.04076403989165556, 0.057019684682018124, 0.0739323955931468, 0.09016346439602785, 0.10747314563195687, 0.123446508005145, 0.14075209324073512, 0.15701115135743748, 0.17388768095406704, 0.1900695978110889, 0.2072533271566499, 0.22345947865687776, 0.24068553329561837, 0.2568650608154712, 0.27411091276735533, 0.29008427514054347, 0.30734036707144696, 0.3233819960587425, 0.3405247654300183, 0.3569684847316239, 0.37385866764816456, 0.390451890823897, 0.4071202072664164, 0.4234465080080554, 0.440583816045546, 0.45676368490967434, 0.4738948489539325, 0.4900436565076234, 0.5071686765586492, 0.5234229560155654, 0.540754823901807, 0.5568029381975066, 0.5738989449455403, 0.5900928084593033, 0.6072147565137129, 0.6234188600210473, 0.6405537787359208, 0.6567107782757375, 0.6738453556608874, 0.6900330751814181, 0.7072202178533189, 0.7233905293833232, 0.7405875707045197, 0.7566838129714597, 0.7738228276866721, 0.790170291060349, 0.807141711251461, 0.8235352545889327, 0.8405636773968581, 0.8568036208744161, 0.8738566196552711, 0.890178141722572, 0.9072587884875247, 0.9235980598750757, 0.9405664080550196, 0.9591601841966622, 0.9738494516641367, 0.9926913769159, 1.0071891565457918, 1.0264963187364629, 1.0407025999447796, 1.0593656666897004, 1.0738856329553528, 1.0907386105827754]
30	images/0415.jpg	images/0284.jpg	right	0.775	[0.0, 0.0, 0.0, 0.0, 0.0, 0.0, 0.0, 0.0, 0.0, 0.0, 0.0, 0.0, 10.0, 19.0, 29.0, 30.0, 43.0, 56.0, 75.0, 109.0, 154.0, 205.0, 252.0, 310.0, 370.0, 424.0, 473.0, 524.0, 581.0, 632.0, 660.0, 696.0, 741.0, 771.0, 788.0, 790.0, 791.0, 791.0, 791.0, 791.0, 791.0, 791.0, 791.0, 791.0, 791.0, 791.0, 791.0]	[-490.0, -490.0, -490.0, -490.0, -490.0, -490.0, -490.0, -490.0, -490.0, -490.0, -490.0, -486.0, -456.0, -427.0, -389.0, -375.0, -311.0, -265.0, -200.0, -116.0, -27.0, 49.0, 112.0, 180.0, 238.0, 283.0, 317.0, 347.0, 374.0, 388.0, 398.0, 407.0, 425.0, 437.0, 445.0, 445.0, 446.0, 446.0, 446.0, 446.0, 446.0, 446.0, 445.0, 445.0, 445.0, 445.0, 445.0]	[0.006080165461753495, 0.010598390945233405, 0.014627827506046742, 0.029076113845803775, 0.04710293580137659, 0.06210418166301679, 0.07925275369780138, 0.09556676643842366, 0.11250575998565182, 0.12913891913194675, 0.1460014540643897, 0.16507514445402194, 0.17936198026291095, 0.19816055623232387, 0.21253545595391188, 0.2314753437967738, 0.24578777958231512, 0.2650048298528418, 0.2793944069126155, 0.2972232556930976, 0.31249074132938404, 0.33040799538139254, 0.3460301260492997, 0.36361560436489526, 0.37922510571661405, 0.39646617900871206, 0.4123726401012391, 0.4297393239394296, 0.44569220634002704, 0.4624383467162261, 0.4791725404356839, 0.4955575504427543, 0.5120978670020122, 0.5308548003231408, 0.5456317903881427, 0.5633435619383818, 0.5786905781715177, 0.5960176673834212, 0.6123115414811764, 0.6293522522755666, 0.6455177851457847, 0.6623844160931185, 0.6790107485721819, 0.6960456567030633, 0.7122849175066222, 0.7292143537342781, 0.745699032995617]
31	images/0398.jpg	images/0581.jpg	left	1.222	[0.0, 0.0, 0.0, 0.0, 0.0, 0.0, 0.0, 0.0, 0.0, 0.0, 0.0, 0.0, 0.0, 0.0, 6.0, 31.0, 44.0, 74.0, 114.0, 203.0, 260.0, 310.0, 359.0, 408.0, 456.0, 502.0, 539.0, 571.0, 598.0, 628.0, 637.0, 653.0, 655.0, 655.0, 655.0, 655.0, 655.0, 655.0, 655.0, 655.0, 655.0, 652.0, 641.0, 613.0, 596.0, 583.0, 567.0, 535.0, 468.0, 360.0, 208.0, 22.0, -151.0, -344.0, -384.0, -466.0, -489.0, -503.0, -506.0, -507.0, -510.0, -520.0, -535.0, -553.0, -571.0, -583.0, -586.0, -587.0, -587.0, -587.0, -598.0, -622.0, -643.0, -649.0]	[-490.0, -490.0, -490.0, -490.0, -490.0, -490.0, -490.0, -490.0, -490.0, -490.0, -490.0, -490.0, -490.0, -490.0, -484.0, -444.0, -425.0, -372.0, -305.0, -167.0, -83.0, -3.0, 61.0, 106.0, 148.0, 187.0, 217.0, 245.0, 267.0, 293.0, 298.0, 308.0, 310.0, 310.0, 310.0, 310.0, 310.0, 310.0, 310.0, 310.0, 310.0, 312.0, 316.0, 326.0, 335.0, 339.0, 342.0, 345.0, 350.0, 350.0, 350.0, 347.0, 325.0, 296.0, 291.0, 271.0, 268.0, 265.0, 265.0, 265.0, 265.0, 264.0, 264.0, 264.0, 264.0, 264.0, 264.0, 264.0, 264.0, 264.0, 264.0, 265.0, 271.0, 271.0]	[0.00557601657055784, 0.010092535376315936, 0.018025115277851, 0.027645245732855983, 0.043909423853619955, 0.06119555310579017, 0.07724810474610422, 0.09436971147079021, 0.11054889766091947, 0.12766128839575686, 0.14390703452227172, 0.1610900811938336, 0.17729077137482818, 0.19429325286182575, 0.21063969224633183, 0.2276315924100345, 0.24381623993394896, 0.26100884393963497, 0.27728462737286463, 0.2942847195372451, 0.3106871375493938, 0.3277298963366775, 0.34391283718287013, 0.3613430089899339, 0.37752117117634043, 0.3943471834791126, 0.41062876959040295, 0.42765002440137323, 0.4438862132083159, 0.461030347913038, 0.47722762476769276, 0.49431748750794213, 0.5105205670115538, 0.527269779398921, 0.5443238021689467, 0.5607579641509801, 0.5776983230316546, 0.5940932317025727, 0.6116616433719173, 0.6274510272342013, 0.6448259030730696, 0.6606169935985235, 0.6782209039083682, 0.6941191730147693, 0.7146322648477508, 0.7272554434021004, 0.7472913516394328, 0.7605012817075476, 0.7805866832350148, 0.7938327945885248, 0.8124566080368822, 0.8274018752854317, 0.8468448880157666, 0.8605954896192998, 0.8802579795155907, 0.8939017438679002, 0.9133567032695282, 0.9272353047563229, 0.9464274377096444, 0.9607620601454983, 0.9800641023466596, 0.9941198556771269, 1.0125293119635899, 1.0275186111830408, 1.0447480791481212, 1.0605487269931473, 1.0790889138443163, 1.0941157596826088, 1.1121415576344589, 1.1272366700868588, 1.1456201850669459, 1.1605545296624769, 1.1786653195304098, 1.1938785332167754]
32	images/0151.jpg	images/0165.jpg	right	0.673	[0.0, 0.0, 0.0, 0.0, 0.0, 0.0, 0.0, 0.0, 0.0, 0.0, 8.0, 27.0, 75.0, 136.0, 218.0, 304.0, 451.0, 543.0, 622.0, 674.0, 704.0, 719.0, 726.0, 728.0, 728.0, 728.0, 728.0, 728.0, 728.0, 728.0, 728.0, 712.0, 703.0, 700.0, 700.0, 700.0, 700.0, 700.0, 700.0, 700.0, 700.0]	[-490.0, -490.0, -490.0, -490.0, -490.0, -490.0, -490.0, -490.0, -490.0, -490.0, -486.0, -460.0, -404.0, -329.0, -238.0, -128.0, 43.0, 160.0, 251.0, 311.0, 348.0, 376.0, 398.0, 408.0, 410.0, 413.0, 413.0, 413.0, 413.0, 413.0, 414.0, 414.0, 415.0, 418.0, 418.0, 418.0, 418.0, 418.0, 418.0, 418.0, 418.0]	[0.008757923191296868, 0.013344415274332277, 0.017990981970797293, 0.033954787024413235, 0.05026914109475911, 0.06758667298709042, 0.08355457402649336, 0.10063249012455344, 0.1168147483112989, 0.1341387655265862, 0.15016571719024796, 0.16723236929101404, 0.1834231608081609, 0.20055159418552648, 0.21679256166680716, 0.23394318169448525, 0.2501667411852395, 0.2672941505734343, 0.283572323343833, 0.30057207417848986, 0.31699019348889124, 0.3340302216238342, 0.35232328333950136, 0.3673484225291759, 0.3861190091702156, 0.4006345381203573, 0.4197819564433303, 0.4339541043591453, 0.4519799023109954, 0.46734364386065863, 0.48476459966332186, 0.5005065382283647, 0.5178442087635631, 0.5338680884306086, 0.5506958073965507, 0.5672770839155419, 0.5835497953667073, 0.6002594131132355, 0.6186855947162258, 0.633463950100122, 0.6518379077606369]
33	images/0173.jpg	images/0440.jpg	right	0.724	[0.0, 0.0, 0.0, 0.0, 0.0, 0.0, 0.0, 0.0, 0.0, 0.0, 0.0, 0.0, 0.0, 0.0, 0.0, 0.0, 8.0, 29.0, 76.0, 140.0, 257.0, 304.0, 459.0, 512.0, 652.0, 712.0, 758.0, 783.0, 797.0, 806.0, 810.0, 813.0, 814.0, 814.0, 814.0, 814.0, 808.0, 763.0, 714.0, 677.0, 662.0, 660.0, 660.0, 660.0]	[-490.0, -490.0, -490.0, -490.0, -490.0, -490.0, -490.0, -490.0, -490.0, -490.0, -490.0, -490.0, -490.0, -490.0, -490.0, -490.0, -474.0, -434.0, -356.0, -249.0, -89.0, -48.0, 66.0, 93.0, 166.0, 191.0, 211.0, 224.0, 233.0, 239.0, 243.0, 248.0, 250.0, 250.0, 250.0, 250.0, 255.0, 281.0, 305.0, 320.0, 325.0, 326.0, 326.0, 326.0]	[0.01179476325341966, 0.018228891101898625, 0.023773846376570873, 0.039987507203477435, 0.05700705535127781, 0.07306267897365615, 0.09013103775214404, 0.10649078912683763, 0.12362639050115831, 0.13965914481377695, 0.15695687939296477, 0.1729831483826274, 0.19011328842316289, 0.20628428262716625, 0.22348098261863925, 0.2396079448662931, 0.2568411674874369, 0.27299031637085136, 0.29007130446552765, 0.3062928159488365, 0.3233823373739142, 0.3397175127611263, 0.35682956216624007, 0.3730118203529855, 0.3901081684307428, 0.40682393017050344, 0.42351511592278257, 0.43968133146699984, 0.4566295410040766, 0.4746256429789355, 0.49005150714947376, 0.5076100201695226, 0.5234731319651473, 0.5398130860121455, 0.5564015305280918, 0.5730558523209766, 0.5899719765438931, 0.6063170505949529, 0.6230358843313297, 0.6414112073252909, 0.6565541064046556, 0.6744170884921914, 0.6899221419298556, 0.7075898815091932]
34	images/0126.jpg	images/0499.jpg	left	0.968	[0.0, 0.0, 0.0, 0.0, 0.0, -1.0, -1.0, -1.0, -1.0, -1.0, 11.0, 37.0, 82.0, 190.0, 234.0, 366.0, 396.0, 474.0, 496.0, 548.0, 565.0, 578.0, 589.0, 603.0, 616.0, 633.0, 637.0, 644.0, 645.0, 645.0, 645.0, 645.0, 645.0, 646.0, 646.0, 640.0, 619.0, 557.0, 449.0, 311.0, 152.0, -100.0, -260.0, -389.0, -503.0, -590.0, -644.0, -672.0, -691.0, -705.0, -708.0, -708.0, -708.0, -708.0, -708.0, -708.0, -708.0, -708.0]	[-490.0, -490.0, -490.0, -490.0, -490.0, -490.0, -490.0, -490.0, -490.0, -484.0, -463.0, -415.0, -338.0, -198.0, -146.0, -40.0, -19.0, 33.0, 49.0, 83.0, 97.0, 110.0, 123.0, 138.0, 155.0, 177.0, 183.0, 191.0, 193.0, 193.0, 193.0, 193.0, 193.0, 204.0, 215.0, 225.0, 239.0, 256.0, 286.0, 309.0, 331.0, 340.0, 340.0, 340.0, 340.0, 340.0, 340.0, 340.0, 340.0, 343.0, 344.0, 344.0, 344.0, 344.0, 344.0, 344.0, 344.0, 344.0]	[0.00038980234239716083, 0.005472592674777843, 0.01828555240354035, 0.03415890419273637, 0.05425898304383736, 0.06759725432493724, 0.08494209285709076, 0.10079803665576037, 0.11811625120753888, 0.13399130967445672, 0.15162969462107867, 0.16732043323281687, 0.18715734430588782, 0.20074171670421492, 0.22024446273280773, 0.23410224290273618, 0.25338619445392396, 0.26740781449188944, 0.28568005489069037, 0.3009284258878324, 0.31905867173918523, 0.33404319228429813, 0.35125593493285123, 0.3673149718961213, 0.38724097090016585, 0.40085742861265317, 0.41781451280985493, 0.4340251016401453, 0.4512023456481984, 0.46733442788536195, 0.48458915449737106, 0.5007389860402327, 0.517886192741571, 0.5342804187530419, 0.5514429854374612, 0.5673378412175225, 0.5845649198454339, 0.6008417272823863, 0.6177636541833635, 0.6342811014183098, 0.6510897057451075, 0.6673934784921585, 0.6844498906139052, 0.7007618553616339, 0.7177936914958991, 0.7341090695699677, 0.7511224737099838, 0.7672767425974598, 0.7845461465331027, 0.8006318074621959, 0.8177407848706935, 0.8340725469315657, 0.8511443190363934, 0.8674125931429444, 0.8846710744255688, 0.900719530065544, 0.9178110994689632, 0.9347016237297794]
35	images/0497.jpg	images/0085.jpg	left	1.018	[0.0, -1.0, -4.0, -7.0, -7.0, -7.0, -7.0, 8.0, 34.0, 72.0, 118.0, 159.0, 204.0, 247.0, 296.0, 362.0, 407.0, 440.0, 467.0, 486.0, 500.0, 512.0, 527.0, 546.0, 563.0, 571.0, 571.0, 571.0, 571.0, 572.0, 579.0, 585.0, 593.0, 600.0, 606.0, 607.0, 607.0, 607.0, 553.0, 452.0, 299.0, 123.0, -80.0, -293.0, -487.0, -652.0, -767.0, -818.0, -828.0, -828.0, -828.0, -828.0, -828.0, -828.0, -828.0, -828.0, -828.0, -828.0, -828.0, -828.0, -828.0]	[-490.0, -491.0, -490.0, -487.0, -486.0, -484.0, -475.0, -455.0, -401.0, -319.0, -219.0, -127.0, -50.0, 22.0, 98.0, 193.0, 254.0, 296.0, 322.0, 339.0, 349.0, 357.0, 366.0, 374.0, 382.0, 385.0, 385.0, 385.0, 385.0, 385.0, 385.0, 378.0, 372.0, 368.0, 365.0, 365.0, 365.0, 365.0, 338.0, 318.0, 303.0, 297.0, 297.0, 297.0, 295.0, 295.0, 302.0, 309.0, 310.0, 310.0, 310.0, 310.0, 310.0, 310.0, 310.0, 310.0, 310.0, 310.0, 310.0, 310.0, 310.0]	[0.007361871044849977, 0.01316111943742726, 0.026436244108481333, 0.04348446422955021, 0.05955920250562485, 0.07684499042807147, 0.09318221382272895, 0.11035877515678294, 0.12651065470709, 0.14341961094760336, 0.15970017305517104, 0.17676921449310612, 0.19291051272011828, 0.21012154869094957, 0.22632121486822143, 0.2434073229524074, 0.2595776344969636, 0.27671460120473057, 0.29312623519217595, 0.31032771385798696, 0.3265929159679217, 0.3434633015713189, 0.35975888233224396, 0.3765951346431393, 0.3931269178574439, 0.4101037993823411, 0.42630995088256896, 0.44328751506691333, 0.4595397465309361, 0.4766715932346415, 0.49283712610485964, 0.510088439390529, 0.5262276896246476, 0.5433516856719507, 0.5595158532087225, 0.5766664732509525, 0.5928739900846267, 0.6100700074021006, 0.6262044789764332, 0.6433298403571825, 0.659571831827634, 0.6767139185394626, 0.6929323580261553, 0.7100741034082603, 0.7262829855753807, 0.7433226723660482, 0.7620038297609426, 0.7767282545246417, 0.7928644327621441, 0.8095924824738177, 0.82699637163023, 0.8431390351906884, 0.8607784441410331, 0.8764582600852009, 0.893271301742061, 0.9098525782610523, 0.9301707689155592, 0.9431028538820101, 0.963690697652055, 0.9764865907345666, 0.9949878656043438]
36	images/0262.jpg	images/0118.jpg	right	0.694	[0.0, 0.0, 0.0, 0.0, 0.0, 0.0, 0.0, 0.0, 2.0, 14.0, 57.0, 77.0, 145.0, 171.0, 233.0, 287.0, 346.0, 408.0, 439.0, 460.0, 480.0, 501.0, 526.0, 563.0, 607.0, 623.0, 644.0, 644.0, 644.0, 644.0, 644.0, 644.0, 644.0, 644.0, 644.0, 644.0, 644.0, 644.0, 644.0, 644.0, 644.0, 644.0]	[-490.0, -490.0, -490.0, -490.0, -490.0, -490.0, -488.0, -483.0, -475.0, -452.0, -380.0, -346.0, -243.0, -197.0, -88.0, 33.0, 135.0, 218.0, 247.0, 264.0, 276.0, 284.0, 294.0, 306.0, 318.0, 323.0, 325.0, 325.0, 325.0, 325.0, 325.0, 325.0, 325.0, 325.0, 325.0, 325.0, 325.0, 325.0, 325.0, 325.0, 325.0, 325.0]	[0.004184060424449854, 0.008871245765476488, 0.024693056257092394, 0.04476582846837118, 0.05791670791222714, 0.07492055473267101, 0.09245278510206845, 0.10869887257285882, 0.12466916294943076, 0.14641344305709936, 0.15775832938379608, 0.177398291285499, 0.19243435312819201, 0.20828210492618382, 0.22494120537885465, 0.24112858356966171, 0.25782181732938625, 0.2762572149222251, 0.291802886989899, 0.3105898576322943, 0.32446265645558015, 0.34167539910413325, 0.3584054968232522, 0.3749734613520559, 0.39188241759256925, 0.41068645488121547, 0.425181162514491, 0.44408145571651403, 0.45849595007894095, 0.47782802958681714, 0.4918691056082025, 0.5098757889063563, 0.524552085713367, 0.5416733511083294, 0.5576982547645457, 0.5750267093098955, 0.5910683382826392, 0.6082599182846025, 0.6244548058020882, 0.6416160071530612, 0.6578074813296553, 0.6750133973255288]
37	images/0541.jpg	images/0055.jpg	left	0.998	[0.0, 0.0, 0.0, 0.0, 0.0, 0.0, 0.0, 0.0, 0.0, 3.0, 12.0, 31.0, 68.0, 177.0, 211.0, 305.0, 333.0, 423.0, 470.0, 499.0, 517.0, 528.0, 537.0, 542.0, 545.0, 549.0, 550.0, 552.0, 553.0, 557.0, 559.0, 559.0, 559.0, 559.0, 556.0, 543.0, 496.0, 383.0, 218.0, -120.0, -342.0, -515.0, -655.0, -766.0, -838.0, -867.0, -877.0, -877.0, -878.0, -878.0, -878.0, -878.0, -878.0, -878.0, -878.0, -878.0, -878.0, -878.0, -878.0, -878.0]	[-490.0, -490.0, -490.0, -490.0, -490.0, -490.0, -490.0, -490.0, -490.0, -487.0, -473.0, -443.0, -384.0, -232.0, -188.0, -89.0, -62.0, 14.0, 48.0, 72.0, 88.0, 98.0, 105.0, 109.0, 112.0, 116.0, 118.0, 121.0, 123.0, 131.0, 137.0, 143.0, 152.0, 167.0, 181.0, 198.0, 225.0, 272.0, 327.0, 393.0, 412.0, 412.0, 412.0, 412.0, 411.0, 403.0, 396.0, 396.0, 395.0, 395.0, 395.0, 395.0, 395.0, 395.0, 395.0, 395.0, 395.0, 395.0, 395.0, 395.0]	[0.013813065539579839, 0.0180510565842269, 0.027591315112658776, 0.044624516580370255, 0.0607364601601148, 0.07806969336525071, 0.09412463434273377, 0.11129675834672526, 0.12751417384424713, 0.14487095903314184, 0.16076171881286427, 0.17802122408465948, 0.19423283691867255, 0.21123975573573261, 0.2275694698037114, 0.24457126863126177, 0.26082486541417893, 0.2779928934323834, 0.2941444316529669, 0.3112175690912409, 0.32757015246897936, 0.34466479388356674, 0.3607388495001942, 0.3779782161145704, 0.39423283691576216, 0.41120186776970513, 0.42775890963093843, 0.4445702446246287, 0.46138601694838144, 0.47798470144334715, 0.49662250954133924, 0.5112633077078499, 0.5300373076897813, 0.5446603565505939, 0.5627161918091588, 0.5780816400219919, 0.5953377319674473, 0.6112527263903758, 0.62868904217612, 0.6445074393413961, 0.6617372486362001, 0.6779000508540776, 0.694272090215236, 0.7108878413710045, 0.7274360085866647, 0.7442340315756155, 0.7623885120847262, 0.7777829736151034, 0.7952766333619365, 0.810853366725496, 0.8282627172011416, 0.8444087941024918, 0.8619819844316225, 0.8777392829942983, 0.8947902337677078, 0.9109748812916223, 0.9279766801191727, 0.9443357488198671, 0.9612416330637643, 0.9777768296189606]
38	images/0278.jpg	images/0156.jpg	right	0.59	[0.0, 0.0, 0.0, 0.0, 0.0, 0.0, 3.0, 6.0, 14.0, 26.0, 50.0, 91.0, 145.0, 240.0, 343.0, 431.0, 492.0, 533.0, 561.0, 578.0, 593.0, 608.0, 622.0, 638.0, 658.0, 675.0, 688.0, 691.0, 691.0, 691.0, 691.0, 696.0, 704.0, 705.0, 705.0, 705.0]	[-490.0, -490.0, -490.0, -490.0, -490.0, -490.0, -491.0, -488.0, -480.0, -467.0, -434.0, -364.0, -263.0, -123.0, 18.0, 125.0, 195.0, 241.0, 276.0, 292.0, 306.0, 317.0, 326.0, 337.0, 348.0, 357.0, 362.0, 363.0, 363.0, 363.0, 363.0, 366.0, 370.0, 372.0, 372.0, 372.0]	[0.012196512252558023, 0.016369308679713868, 0.02446880044590216, 0.04364625607558992, 0.05765149212675169, 0.07682041444058996, 0.09109223159612156, 0.10960818378953263, 0.1244077018200187, 0.1429444753448479, 0.15781328399316408, 0.17584147126763128, 0.19088743175962009, 0.20881253646803088, 0.22409401676850393, 0.24163034312368836, 0.2577084947406547, 0.27458365900383797, 0.29108881825231947, 0.30793872388312593, 0.3243708378577139, 0.341302663407987, 0.3576197481597774, 0.3745205123996129, 0.3907949305139482, 0.4079216572281439, 0.424310080576106, 0.44118422085011844, 0.45771702806814574, 0.4746693336055614, 0.4910297676397022, 0.5080496571172262, 0.524381760522374, 0.5413006154121831, 0.5577760786836734, 0.5746297389705433]
39	images/0464.jpg	images/0589.jpg	left	1.295	[0.0, -2.0, -2.0, -2.0, -4.0, -4.0, -4.0, -4.0, -2.0, 7.0, 35.0, 46.0, 87.0, 113.0, 139.0, 166.0, 191.0, 230.0, 272.0, 320.0, 371.0, 428.0, 517.0, 543.0, 612.0, 627.0, 650.0, 654.0, 654.0, 654.0, 654.0, 645.0, 627.0, 596.0, 543.0, 455.0, 279.0, 114.0, -82.0, -261.0, -409.0, -518.0, -595.0, -648.0, -690.0, -739.0, -746.0, -758.0, -765.0, -768.0, -769.0, -771.0, -773.0, -773.0, -773.0, -773.0, -773.0, -773.0, -773.0, -773.0, -773.0, -773.0, -773.0, -773.0, -773.0, -773.0, -773.0, -773.0, -773.0, -773.0, -773.0, -773.0, -773.0, -773.0, -773.0, -773.0, -773.0, -773.0]	[-490.0, -490.0, -490.0, -490.0, -488.0, -488.0, -488.0, -488.0, -487.0, -482.0, -461.0, -453.0, -420.0, -399.0, -381.0, -360.0, -342.0, -314.0, -279.0, -244.0, -199.0, -150.0, -60.0, -29.0, 62.0, 88.0, 140.0, 157.0, 171.0, 186.0, 203.0, 231.0, 267.0, 308.0, 351.0, 398.0, 449.0, 477.0, 497.0, 499.0, 481.0, 442.0, 405.0, 372.0, 341.0, 310.0, 304.0, 293.0, 288.0, 285.0, 283.0, 281.0, 280.0, 280.0, 280.0, 280.0, 280.0, 280.0, 280.0, 280.0, 280.0, 280.0, 280.0, 280.0, 280.0, 280.0, 280.0, 280.0, 280.0, 280.0, 280.0, 280.0, 280.0, 280.0, 280.0, 280.0, 280.0, 280.0]	[0.006204410703503527, 0.013777908243355341, 0.02618263365002349, 0.04449378603021614, 0.05913594953017309, 0.0771340995124774, 0.09269752090040129, 0.11091241735266522, 0.12605599909147713, 0.1443712474720087, 0.1593854639941128, 0.17731637135148048, 0.19266372892889194, 0.2110312012518989, 0.2260461004334502, 0.24427977020968683, 0.25938751199282706, 0.2778782055393094, 0.2924514197802637, 0.3106055589450989, 0.3257679140078835, 0.34616358726634644, 0.35910147489630617, 0.3765924039762467, 0.39249067306809593, 0.41050042837741785, 0.4258426659507677, 0.4438305759249488, 0.45916905884223524, 0.4766347292752471, 0.4924155798071297, 0.5096959063957911, 0.5257747406722046, 0.5429564220103202, 0.5592281094577629, 0.5762828149017878, 0.5925480170262745, 0.6097641730011674, 0.6257648420141777, 0.6429625660093734, 0.6590110216493485, 0.6763725854980294, 0.6922824599168962, 0.7094279599550646, 0.7269857903011143, 0.7426673129230039, 0.7591956828255206, 0.7761752950027585, 0.79310200054897, 0.8110315425874433, 0.8264840307383565, 0.8459963340865215, 0.8591199068905553, 0.876182804320706, 0.8930903952277731, 0.9123781014350243, 0.9258184313075617, 0.9429089767218102, 0.9606586362351663, 0.9759530871815514, 0.992801286134636, 1.0090989149030065, 1.0259191245422699, 1.0425137130514486, 1.059418573291623, 1.0758015353203518, 1.0929245073639322, 1.1091408988722833, 1.1262785482394975, 1.1426830142445397, 1.1596233731252141, 1.1760018978093285, 1.1929258727031993, 1.2093006427312503, 1.226275476248702, 1.2425280490424484, 1.2597117783734575, 1.2761049803957576]
40	images/0039.jpg	images/0099.jpg	left	1.496	[0.0, 0.0, 0.0, 0.0, 0.0, 0.0, 0.0, 0.0, 0.0, 0.0, 0.0, 0.0, 0.0, 0.0, 1.0, 5.0, 14.0, 30.0, 67.0, 161.0, 281.0, 420.0, 550.0, 667.0, 739.0, 785.0, 802.0, 808.0, 812.0, 812.0, 812.0, 812.0, 812.0, 812.0, 812.0, 812.0, 812.0, 812.0, 812.0, 812.0, 810.0, 806.0, 805.0, 805.0, 805.0, 805.0, 805.0, 805.0, 805.0, 805.0, 805.0, 797.0, 739.0, 658.0, 539.0, 393.0, 223.0, 49.0, -107.0, -213.0, -265.0, -287.0, -307.0, -312.0, -328.0, -340.0, -359.0, -392.0, -444.0, -487.0, -520.0, -538.0, -550.0, -565.0, -600.0, -616.0, -657.0, -672.0, -675.0, -675.0, -675.0, -675.0, -675.0, -675.0, -675.0, -675.0, -675.0, -675.0, -675.0, -675.0]	[-490.0, -490.0, -490.0, -490.0, -490.0, -490.0, -490.0, -490.0, -490.0, -490.0, -490.0, -490.0, -490.0, -490.0, -490.0, -490.0, -478.0, -457.0, -407.0, -310.0, -206.0, -105.0, -16.0, 71.0, 136.0, 183.0, 208.0, 223.0, 248.0, 261.0, 273.0, 286.0, 294.0, 301.0, 303.0, 305.0, 307.0, 307.0, 307.0, 307.0, 310.0, 315.0, 316.0, 316.0, 316.0, 316.0, 316.0, 316.0, 316.0, 316.0, 316.0, 316.0, 316.0, 316.0, 316.0, 316.0, 316.0, 322.0, 322.0, 322.0, 322.0, 322.0, 320.0, 320.0, 320.0, 320.0, 320.0, 320.0, 320.0, 320.0, 320.0, 320.0, 320.0, 320.0, 320.0, 320.0, 320.0, 320.0, 320.0, 320.0, 320.0, 320.0, 320.0, 320.0, 320.0, 320.0, 320.0, 320.0, 320.0, 320.0]	[0.012978506259969436, 0.017863664761534892, 0.02674685718375258, 0.042691206239396706, 0.05897791234019678, 0.07562165280978661, 0.09469363653624896, 0.10884086713485885, 0.12742372060893103, 0.1421805720165139, 0.1600831487303367, 0.17571654339553788, 0.1924118251481559, 0.20908389626129065, 0.22649529472982977, 0.2423935638362309, 0.2595800238341326, 0.2755516795295989, 0.2924435691238614, 0.3091108615626581, 0.3261003724037437, 0.34242769713455345, 0.3592987653973978, 0.3755571408692049, 0.392232966638403, 0.40889752841030713, 0.4260508791048778, 0.4423314412124455, 0.45925814677320886, 0.47557625551417004, 0.4925268543884158, 0.5090586376027204, 0.5261252897180384, 0.5423795691749547, 0.5592025094811106, 0.5758595619408879, 0.5923732545197709, 0.6088889950915473, 0.6261700043396559, 0.6423546518635703, 0.6593154907168355, 0.6755612368579023, 0.6921831320069032, 0.7090183603140758, 0.7260751137509942, 0.7421034307481023, 0.7592718000960303, 0.7755574821931077, 0.7922107799822697, 0.8092774320830358, 0.8258058019855525, 0.8426079209748423, 0.8590478856203845, 0.8759674231841927, 0.8923701825115131, 0.9109789773065131, 0.9255948581703706, 0.942685403584619, 0.9588021258241497, 0.9759551351889968, 0.9923916864936473, 1.0092719707608921, 1.0255614075285848, 1.0427645928430138, 1.0590338909678394, 1.0761104417179013, 1.0921227160579292, 1.1095279705477878, 1.1257054500747472, 1.1432199311238946, 1.1587785738520324, 1.1759769805066753, 1.1923804225079948, 1.2096935170702636, 1.2255597008625045, 1.2429670033452567, 1.2588703924411675, 1.2766275612812024, 1.2922176066495012, 1.3098945622332394, 1.3256235301378183, 1.3433015097252792, 1.3588850697560702, 1.3791776604339248, 1.3921281773946248, 1.41186473655398, 1.4259177592175547, 1.445268270705128, 1.4590871389227686, 1.477950909480569]
